trials_2.thisRepN,trials_2.thisTrialN,trials_2.thisN,trials_2.thisIndex,trials.thisRepN,trials.thisTrialN,trials.thisN,trials.thisIndex,Instrucción2.started,N_A_4.started,N_B_4.started,Exitos_3.started,Dias_3.started,Stimuli_1.started,Stimuli_2.started,Transitions,Rewards,Mode,Stay,Neighbour,Stimuli_3.started,Modo.started,Dias2.started,Exitos2.started,Stimuli_3.stopped,Modo.stopped,Dias2.stopped,Exitos2.stopped,Reward.started,Stimuli_reward.started,Exitos3.started,Dias3.started,Reward.stopped,Stimuli_reward.stopped,Exitos3.stopped,Dias3.stopped,Cue_text.started,Stimuli_4.started,Exitos4.started,Dias4.started,Stimuli_3_3.started,Stimuli_2_3.started,Instrucción.started,N_A.started,N_B.started,N_C.started,Exitos_2.started,Dias_2.started,Stimuli_1_3.started,Stimuli_3_2.started,Stimuli_2_2.started,Pregunta.started,N_A_2.started,N_B_2.started,N_C_2.started,Exitos5.started,Dias5.started,Stimuli_1_2.started,Resp_final_1,Modo2.started,Modo1.started,Pregunta_4.started,Modo3.started,Exitos7.started,Dias6.started,Resp_final_2,Modo1_2.started,Pregunta_3.started,Modo2_2.started,Exitos8.started,Dias7.started,Resp_final_3,Mensaje_Final2.started,Exitos6.started,participant,session,date,expName,psychopyVersion,frameRate,
0,0,0,0,0,0,0,0,25.639679035999507,25.639679035999507,25.639679035999507,25.639679035999507,25.639679035999507,25.639679035999507,25.639679035999507,0,0,0,0,['N_A'],42.14148770599968,42.14148770599968,42.14148770599968,42.14148770599968,44.17644073699921,44.17644073699921,44.17644073699921,44.17644073699921,44.17644073699921,44.17644073699921,44.17644073699921,44.17644073699921,46.21277597500011,46.21277597500011,46.21277597500011,46.21277597500011,,,,,,,,,,,,,,,,,,,,,,,,,,,,,,,,,,,,,,,01,007,2022-09-23_14h40.38.518,test2,2022.2.4,59.946741636027795,
0,0,0,0,1,0,1,0,46.21277597500011,46.21277597500011,46.21277597500011,46.21277597500011,46.21277597500011,46.21277597500011,46.21277597500011,-1,-1,azul,1,['N_A'],49.03252377999888,49.03252377999888,49.03252377999888,49.03252377999888,51.0680900339994,51.0680900339994,51.0680900339994,51.0680900339994,51.0680900339994,51.0680900339994,51.0680900339994,51.0680900339994,53.10347878399989,53.10347878399989,53.10347878399989,53.10347878399989,,,,,,,,,,,,,,,,,,,,,,,,,,,,,,,,,,,,,,,01,007,2022-09-23_14h40.38.518,test2,2022.2.4,59.946741636027795,
0,0,0,0,2,0,2,0,53.10347878399989,53.10347878399989,53.10347878399989,53.10347878399989,53.10347878399989,53.10347878399989,53.10347878399989,1,1,rojo,1,['N_A'],56.79119768899909,56.79119768899909,56.79119768899909,56.79119768899909,58.82706338499884,58.82706338499884,58.82706338499884,58.82706338499884,58.82706338499884,58.82706338499884,58.82706338499884,58.82706338499884,60.861667646999194,60.861667646999194,60.861667646999194,60.861667646999194,,,,,,,,,,,,,,,,,,,,,,,,,,,,,,,,,,,,,,,01,007,2022-09-23_14h40.38.518,test2,2022.2.4,59.946741636027795,
0,0,0,0,3,0,3,0,60.861667646999194,60.861667646999194,60.861667646999194,60.861667646999194,60.861667646999194,60.861667646999194,60.861667646999194,1,-1,rojo,0,['N_B'],62.697711532999165,62.697711532999165,62.697711532999165,62.697711532999165,64.73379874499915,64.73379874499915,64.73379874499915,64.73379874499915,64.73379874499915,64.73379874499915,64.73379874499915,64.73379874499915,66.76860786699945,66.76860786699945,66.76860786699945,66.76860786699945,,,,,,,,,,,,,,,,,,,,,,,,,,,,,,,,,,,,,,,01,007,2022-09-23_14h40.38.518,test2,2022.2.4,59.946741636027795,
0,0,0,0,4,0,4,0,66.76860786699945,66.76860786699945,66.76860786699945,66.76860786699945,66.76860786699945,66.76860786699945,66.76860786699945,1,1,azul,0,['N_A'],70.40569359099936,70.40569359099936,70.40569359099936,70.40569359099936,72.42391272500026,72.42391272500026,72.42391272500026,72.42391272500026,72.42391272500026,72.42391272500026,72.42391272500026,72.42391272500026,74.45998313099881,74.45998313099881,74.45998313099881,74.45998313099881,,,,,,,,,,,,,,,,,,,,,,,,,,,,,,,,,,,,,,,01,007,2022-09-23_14h40.38.518,test2,2022.2.4,59.946741636027795,
0,0,0,0,5,0,5,0,74.45998313099881,74.45998313099881,74.45998313099881,74.45998313099881,74.45998313099881,74.45998313099881,74.45998313099881,1,1,rojo,1,['N_A'],78.86482553299902,78.86482553299902,78.86482553299902,78.86482553299902,80.90123248899909,80.90123248899909,80.90123248899909,80.90123248899909,80.90123248899909,80.90123248899909,80.90123248899909,80.90123248899909,82.93600993299879,82.93600993299879,82.93600993299879,82.93600993299879,,,,,,,,,,,,,,,,,,,,,,,,,,,,,,,,,,,,,,,01,007,2022-09-23_14h40.38.518,test2,2022.2.4,59.946741636027795,
0,0,0,0,6,0,6,0,82.93600993299879,82.93600993299879,82.93600993299879,82.93600993299879,82.93600993299879,82.93600993299879,82.93600993299879,1,-1,rojo,0,['N_B'],84.52114708099907,84.52114708099907,84.52114708099907,84.52114708099907,86.55719186799979,86.55719186799979,86.55719186799979,86.55719186799979,86.55719186799979,86.55719186799979,86.55719186799979,86.55719186799979,88.59231689999979,88.59231689999979,88.59231689999979,88.59231689999979,,,,,,,,,,,,,,,,,,,,,,,,,,,,,,,,,,,,,,,01,007,2022-09-23_14h40.38.518,test2,2022.2.4,59.946741636027795,
0,0,0,0,7,0,7,0,88.59231689999979,88.59231689999979,88.59231689999979,88.59231689999979,88.59231689999979,88.59231689999979,88.59231689999979,1,-1,azul,1,['N_B'],90.44438939999964,90.44438939999964,90.44438939999964,90.44438939999964,92.48067330899903,92.48067330899903,92.48067330899903,92.48067330899903,92.48067330899903,92.48067330899903,92.48067330899903,92.48067330899903,94.51597323900023,94.51597323900023,94.51597323900023,94.51597323900023,,,,,,,,,,,,,,,,,,,,,,,,,,,,,,,,,,,,,,,01,007,2022-09-23_14h40.38.518,test2,2022.2.4,59.946741636027795,
0,0,0,0,8,0,8,0,94.51597323900023,94.51597323900023,94.51597323900023,94.51597323900023,94.51597323900023,94.51597323900023,94.51597323900023,1,1,azul,1,['N_B'],97.03510855400054,97.03510855400054,97.03510855400054,97.03510855400054,99.0536785509994,99.0536785509994,99.0536785509994,99.0536785509994,99.0536785509994,99.0536785509994,99.0536785509994,99.0536785509994,101.09051582499887,101.09051582499887,101.09051582499887,101.09051582499887,,,,,,,,,,,,,,,,,,,,,,,,,,,,,,,,,,,,,,,01,007,2022-09-23_14h40.38.518,test2,2022.2.4,59.946741636027795,
0,0,0,0,9,0,9,0,101.09051582499887,101.09051582499887,101.09051582499887,101.09051582499887,101.09051582499887,101.09051582499887,101.09051582499887,1,1,azul,0,['N_A'],103.0752307900002,103.0752307900002,103.0752307900002,103.0752307900002,105.09483995899973,105.09483995899973,105.09483995899973,105.09483995899973,105.09483995899973,105.09483995899973,105.09483995899973,105.09483995899973,107.13007569399997,107.13007569399997,107.13007569399997,107.13007569399997,,,,,,,,,,,,,,,,,,,,,,,,,,,,,,,,,,,,,,,01,007,2022-09-23_14h40.38.518,test2,2022.2.4,59.946741636027795,
0,0,0,0,10,0,10,0,107.13007569399997,107.13007569399997,107.13007569399997,107.13007569399997,107.13007569399997,107.13007569399997,107.13007569399997,1,1,rojo,0,['N_B'],109.23161694800001,109.23161694800001,109.23161694800001,109.23161694800001,111.24996748599915,111.24996748599915,111.24996748599915,111.24996748599915,111.24996748599915,111.24996748599915,111.24996748599915,111.24996748599915,113.28693545799979,113.28693545799979,113.28693545799979,113.28693545799979,,,,,,,,,,,,,,,,,,,,,,,,,,,,,,,,,,,,,,,01,007,2022-09-23_14h40.38.518,test2,2022.2.4,59.946741636027795,
0,0,0,0,11,0,11,0,113.28693545799979,113.28693545799979,113.28693545799979,113.28693545799979,113.28693545799979,113.28693545799979,113.28693545799979,1,1,azul,1,['N_B'],115.38946458300052,115.38946458300052,115.38946458300052,115.38946458300052,117.424888345,117.424888345,117.424888345,117.424888345,117.424888345,117.424888345,117.424888345,117.424888345,119.45997061900016,119.45997061900016,119.45997061900016,119.45997061900016,,,,,,,,,,,,,,,,,,,,,,,,,,,,,,,,,,,,,,,01,007,2022-09-23_14h40.38.518,test2,2022.2.4,59.946741636027795,
0,0,0,0,12,0,12,0,119.45997061900016,119.45997061900016,119.45997061900016,119.45997061900016,119.45997061900016,119.45997061900016,119.45997061900016,-1,-1,rojo,0,['N_A'],122.47950714499893,122.47950714499893,122.47950714499893,122.47950714499893,124.51607710600001,124.51607710600001,124.51607710600001,124.51607710600001,124.51607710600001,124.51607710600001,124.51607710600001,124.51607710600001,126.55182729499938,126.55182729499938,126.55182729499938,126.55182729499938,,,,,,,,,,,,,,,,,,,,,,,,,,,,,,,,,,,,,,,01,007,2022-09-23_14h40.38.518,test2,2022.2.4,59.946741636027795,
0,0,0,0,13,0,13,0,126.55182729499938,126.55182729499938,126.55182729499938,126.55182729499938,126.55182729499938,126.55182729499938,126.55182729499938,1,-1,rojo,1,['N_A'],128.469944905999,128.469944905999,128.469944905999,128.469944905999,130.50566214900027,130.50566214900027,130.50566214900027,130.50566214900027,130.50566214900027,130.50566214900027,130.50566214900027,130.50566214900027,132.54156078099913,132.54156078099913,132.54156078099913,132.54156078099913,,,,,,,,,,,,,,,,,,,,,,,,,,,,,,,,,,,,,,,01,007,2022-09-23_14h40.38.518,test2,2022.2.4,59.946741636027795,
0,0,0,0,14,0,14,0,132.54156078099913,132.54156078099913,132.54156078099913,132.54156078099913,132.54156078099913,132.54156078099913,132.54156078099913,1,-1,rojo,0,['N_B'],148.20807808099926,148.20807808099926,148.20807808099926,148.20807808099926,150.24398952400043,150.24398952400043,150.24398952400043,150.24398952400043,150.24398952400043,150.24398952400043,150.24398952400043,150.24398952400043,152.2792370089992,152.2792370089992,152.2792370089992,152.2792370089992,,,,,,,,,,,,,,,,,,,,,,,,,,,,,,,,,,,,,,,01,007,2022-09-23_14h40.38.518,test2,2022.2.4,59.946741636027795,
0,0,0,0,15,0,15,0,152.2792370089992,152.2792370089992,152.2792370089992,152.2792370089992,152.2792370089992,152.2792370089992,152.2792370089992,1,1,azul,1,['N_B'],154.61498206000033,154.61498206000033,154.61498206000033,154.61498206000033,156.6347463459988,156.6347463459988,156.6347463459988,156.6347463459988,156.6347463459988,156.6347463459988,156.6347463459988,156.6347463459988,158.67000630599978,158.67000630599978,158.67000630599978,158.67000630599978,,,,,,,,,,,,,,,,,,,,,,,,,,,,,,,,,,,,,,,01,007,2022-09-23_14h40.38.518,test2,2022.2.4,59.946741636027795,
0,0,0,0,16,0,16,0,158.67000630599978,158.67000630599978,158.67000630599978,158.67000630599978,158.67000630599978,158.67000630599978,158.67000630599978,1,1,azul,0,['N_A'],162.04060604699953,162.04060604699953,162.04060604699953,162.04060604699953,164.0765279369989,164.0765279369989,164.0765279369989,164.0765279369989,164.0765279369989,164.0765279369989,164.0765279369989,164.0765279369989,166.11144437300027,166.11144437300027,166.11144437300027,166.11144437300027,,,,,,,,,,,,,,,,,,,,,,,,,,,,,,,,,,,,,,,01,007,2022-09-23_14h40.38.518,test2,2022.2.4,59.946741636027795,
0,0,0,0,17,0,17,0,166.11144437300027,166.11144437300027,166.11144437300027,166.11144437300027,166.11144437300027,166.11144437300027,166.11144437300027,1,-1,rojo,0,['N_B'],167.66372268399937,167.66372268399937,167.66372268399937,167.66372268399937,169.69899548099966,169.69899548099966,169.69899548099966,169.69899548099966,169.69899548099966,169.69899548099966,169.69899548099966,169.69899548099966,171.7341773469998,171.7341773469998,171.7341773469998,171.7341773469998,,,,,,,,,,,,,,,,,,,,,,,,,,,,,,,,,,,,,,,01,007,2022-09-23_14h40.38.518,test2,2022.2.4,59.946741636027795,
0,0,0,0,18,0,18,0,171.7341773469998,171.7341773469998,171.7341773469998,171.7341773469998,171.7341773469998,171.7341773469998,171.7341773469998,1,1,azul,1,['N_B'],173.3864056099992,173.3864056099992,173.3864056099992,173.3864056099992,175.42209472300055,175.42209472300055,175.42209472300055,175.42209472300055,175.42209472300055,175.42209472300055,175.42209472300055,175.42209472300055,177.45780235599887,177.45780235599887,177.45780235599887,177.45780235599887,,,,,,,,,,,,,,,,,,,,,,,,,,,,,,,,,,,,,,,01,007,2022-09-23_14h40.38.518,test2,2022.2.4,59.946741636027795,
0,0,0,0,19,0,19,0,177.45780235599887,177.45780235599887,177.45780235599887,177.45780235599887,177.45780235599887,177.45780235599887,177.45780235599887,1,-1,azul,1,['N_B'],178.80891878200055,178.80891878200055,178.80891878200055,178.80891878200055,180.84501657699911,180.84501657699911,180.84501657699911,180.84501657699911,180.84501657699911,180.84501657699911,180.84501657699911,180.84501657699911,182.8795951439988,182.8795951439988,182.8795951439988,182.8795951439988,,,,,,,,,,,,,,,,,,,,,,,,,,,,,,,,,,,,,,,01,007,2022-09-23_14h40.38.518,test2,2022.2.4,59.946741636027795,
0,0,0,0,20,0,20,0,182.8795951439988,182.8795951439988,182.8795951439988,182.8795951439988,182.8795951439988,182.8795951439988,182.8795951439988,1,1,azul,1,['N_B'],185.14969179199943,185.14969179199943,185.14969179199943,185.14969179199943,187.16705919699962,187.16705919699962,187.16705919699962,187.16705919699962,187.16705919699962,187.16705919699962,187.16705919699962,187.16705919699962,189.20383868499994,189.20383868499994,189.20383868499994,189.20383868499994,,,,,,,,,,,,,,,,,,,,,,,,,,,,,,,,,,,,,,,01,007,2022-09-23_14h40.38.518,test2,2022.2.4,59.946741636027795,
0,0,0,0,21,0,21,0,189.20383868499994,189.20383868499994,189.20383868499994,189.20383868499994,189.20383868499994,189.20383868499994,189.20383868499994,-1,1,rojo,1,['N_B'],191.3894738910003,191.3894738910003,191.3894738910003,191.3894738910003,193.42500903700056,193.42500903700056,193.42500903700056,193.42500903700056,193.42500903700056,193.42500903700056,193.42500903700056,193.42500903700056,195.4608512880004,195.4608512880004,195.4608512880004,195.4608512880004,,,,,,,,,,,,,,,,,,,,,,,,,,,,,,,,,,,,,,,01,007,2022-09-23_14h40.38.518,test2,2022.2.4,59.946741636027795,
0,0,0,0,22,0,22,0,195.4608512880004,195.4608512880004,195.4608512880004,195.4608512880004,195.4608512880004,195.4608512880004,195.4608512880004,1,-1,azul,1,['N_B'],197.49609630399937,197.49609630399937,197.49609630399937,197.49609630399937,199.5318907460005,199.5318907460005,199.5318907460005,199.5318907460005,199.5318907460005,199.5318907460005,199.5318907460005,199.5318907460005,201.56761402899974,201.56761402899974,201.56761402899974,201.56761402899974,,,,,,,,,,,,,,,,,,,,,,,,,,,,,,,,,,,,,,,01,007,2022-09-23_14h40.38.518,test2,2022.2.4,59.946741636027795,
0,0,0,0,23,0,23,0,201.56761402899974,201.56761402899974,201.56761402899974,201.56761402899974,201.56761402899974,201.56761402899974,201.56761402899974,1,-1,azul,0,['N_A'],203.35235167300016,203.35235167300016,203.35235167300016,203.35235167300016,205.38833509399956,205.38833509399956,205.38833509399956,205.38833509399956,205.38833509399956,205.38833509399956,205.38833509399956,205.38833509399956,207.42364795399953,207.42364795399953,207.42364795399953,207.42364795399953,,,,,,,,,,,,,,,,,,,,,,,,,,,,,,,,,,,,,,,01,007,2022-09-23_14h40.38.518,test2,2022.2.4,59.946741636027795,
0,0,0,0,24,0,24,0,207.42364795399953,207.42364795399953,207.42364795399953,207.42364795399953,207.42364795399953,207.42364795399953,207.42364795399953,-1,-1,azul,1,['N_A'],209.1428032700005,209.1428032700005,209.1428032700005,209.1428032700005,211.17794235399924,211.17794235399924,211.17794235399924,211.17794235399924,211.17794235399924,211.17794235399924,211.17794235399924,211.17794235399924,213.21367067199935,213.21367067199935,213.21367067199935,213.21367067199935,,,,,,,,,,,,,,,,,,,,,,,,,,,,,,,,,,,,,,,01,007,2022-09-23_14h40.38.518,test2,2022.2.4,59.946741636027795,
0,0,0,0,25,0,25,0,213.21367067199935,213.21367067199935,213.21367067199935,213.21367067199935,213.21367067199935,213.21367067199935,213.21367067199935,1,-1,rojo,0,['N_B'],214.79868231599903,214.79868231599903,214.79868231599903,214.79868231599903,216.83506289700017,216.83506289700017,216.83506289700017,216.83506289700017,216.83506289700017,216.83506289700017,216.83506289700017,216.83506289700017,218.87044283899922,218.87044283899922,218.87044283899922,218.87044283899922,,,,,,,,,,,,,,,,,,,,,,,,,,,,,,,,,,,,,,,01,007,2022-09-23_14h40.38.518,test2,2022.2.4,59.946741636027795,
0,0,0,0,26,0,26,0,218.87044283899922,218.87044283899922,218.87044283899922,218.87044283899922,218.87044283899922,218.87044283899922,218.87044283899922,-1,-1,rojo,1,['N_B'],220.23783601300056,220.23783601300056,220.23783601300056,220.23783601300056,222.2732620200004,222.2732620200004,222.2732620200004,222.2732620200004,222.2732620200004,222.2732620200004,222.2732620200004,222.2732620200004,224.30922671000008,224.30922671000008,224.30922671000008,224.30922671000008,,,,,,,,,,,,,,,,,,,,,,,,,,,,,,,,,,,,,,,01,007,2022-09-23_14h40.38.518,test2,2022.2.4,59.946741636027795,
0,0,0,0,27,0,27,0,224.30922671000008,224.30922671000008,224.30922671000008,224.30922671000008,224.30922671000008,224.30922671000008,224.30922671000008,-1,1,rojo,1,['N_B'],228.46369860099912,228.46369860099912,228.46369860099912,228.46369860099912,230.48232056599954,230.48232056599954,230.48232056599954,230.48232056599954,230.48232056599954,230.48232056599954,230.48232056599954,230.48232056599954,232.51845949800008,232.51845949800008,232.51845949800008,232.51845949800008,,,,,,,,,,,,,,,,,,,,,,,,,,,,,,,,,,,,,,,01,007,2022-09-23_14h40.38.518,test2,2022.2.4,59.946741636027795,
0,0,0,0,28,0,28,0,232.51845949800008,232.51845949800008,232.51845949800008,232.51845949800008,232.51845949800008,232.51845949800008,232.51845949800008,1,1,azul,0,['N_A'],234.75400448999972,234.75400448999972,234.75400448999972,234.75400448999972,236.7718247339999,236.7718247339999,236.7718247339999,236.7718247339999,236.7718247339999,236.7718247339999,236.7718247339999,236.7718247339999,238.80887106000046,238.80887106000046,238.80887106000046,238.80887106000046,,,,,,,,,,,,,,,,,,,,,,,,,,,,,,,,,,,,,,,01,007,2022-09-23_14h40.38.518,test2,2022.2.4,59.946741636027795,
0,0,0,0,29,0,29,0,238.80887106000046,238.80887106000046,238.80887106000046,238.80887106000046,238.80887106000046,238.80887106000046,238.80887106000046,1,1,rojo,1,['N_A'],242.0284932579998,242.0284932579998,242.0284932579998,242.0284932579998,244.06416768899908,244.06416768899908,244.06416768899908,244.06416768899908,244.06416768899908,244.06416768899908,244.06416768899908,244.06416768899908,246.10054675599895,246.10054675599895,246.10054675599895,246.10054675599895,,,,,,,,,,,,,,,,,,,,,,,,,,,,,,,,,,,,,,,01,007,2022-09-23_14h40.38.518,test2,2022.2.4,59.946741636027795,
0,0,0,0,30,0,30,0,246.10054675599895,246.10054675599895,246.10054675599895,246.10054675599895,246.10054675599895,246.10054675599895,246.10054675599895,1,-1,rojo,0,['N_B'],247.48425665499963,247.48425665499963,247.48425665499963,247.48425665499963,249.52088053199986,249.52088053199986,249.52088053199986,249.52088053199986,249.52088053199986,249.52088053199986,249.52088053199986,249.52088053199986,251.5553155029993,251.5553155029993,251.5553155029993,251.5553155029993,,,,,,,,,,,,,,,,,,,,,,,,,,,,,,,,,,,,,,,01,007,2022-09-23_14h40.38.518,test2,2022.2.4,59.946741636027795,
0,0,0,0,31,0,31,0,251.5553155029993,251.5553155029993,251.5553155029993,251.5553155029993,251.5553155029993,251.5553155029993,251.5553155029993,1,1,azul,1,['N_B'],253.55841020799926,253.55841020799926,253.55841020799926,253.55841020799926,255.59445756700006,255.59445756700006,255.59445756700006,255.59445756700006,255.59445756700006,255.59445756700006,255.59445756700006,255.59445756700006,257.6295591809994,257.6295591809994,257.6295591809994,257.6295591809994,,,,,,,,,,,,,,,,,,,,,,,,,,,,,,,,,,,,,,,01,007,2022-09-23_14h40.38.518,test2,2022.2.4,59.946741636027795,
0,0,0,0,32,0,32,0,257.6295591809994,257.6295591809994,257.6295591809994,257.6295591809994,257.6295591809994,257.6295591809994,257.6295591809994,1,-1,azul,1,['N_B'],259.4314500069995,259.4314500069995,259.4314500069995,259.4314500069995,261.46717750800053,261.46717750800053,261.46717750800053,261.46717750800053,261.46717750800053,261.46717750800053,261.46717750800053,261.46717750800053,263.5020395089996,263.5020395089996,263.5020395089996,263.5020395089996,,,,,,,,,,,,,,,,,,,,,,,,,,,,,,,,,,,,,,,01,007,2022-09-23_14h40.38.518,test2,2022.2.4,59.946741636027795,
0,0,0,0,33,0,33,0,263.5020395089996,263.5020395089996,263.5020395089996,263.5020395089996,263.5020395089996,263.5020395089996,263.5020395089996,-1,-1,rojo,1,['N_B'],265.0535498720001,265.0535498720001,265.0535498720001,265.0535498720001,267.0903963259989,267.0903963259989,267.0903963259989,267.0903963259989,267.0903963259989,267.0903963259989,267.0903963259989,267.0903963259989,269.12482816100055,269.12482816100055,269.12482816100055,269.12482816100055,,,,,,,,,,,,,,,,,,,,,,,,,,,,,,,,,,,,,,,01,007,2022-09-23_14h40.38.518,test2,2022.2.4,59.946741636027795,
0,0,0,0,34,0,34,0,269.12482816100055,269.12482816100055,269.12482816100055,269.12482816100055,269.12482816100055,269.12482816100055,269.12482816100055,1,-1,azul,1,['N_B'],270.5760720039998,270.5760720039998,270.5760720039998,270.5760720039998,272.6123501740003,272.6123501740003,272.6123501740003,272.6123501740003,272.6123501740003,272.6123501740003,272.6123501740003,272.6123501740003,274.6480334299995,274.6480334299995,274.6480334299995,274.6480334299995,,,,,,,,,,,,,,,,,,,,,,,,,,,,,,,,,,,,,,,01,007,2022-09-23_14h40.38.518,test2,2022.2.4,59.946741636027795,
0,0,0,0,35,0,35,0,274.6480334299995,274.6480334299995,274.6480334299995,274.6480334299995,274.6480334299995,274.6480334299995,274.6480334299995,-1,1,rojo,1,['N_B'],276.4494958670002,276.4494958670002,276.4494958670002,276.4494958670002,278.46928689999913,278.46928689999913,278.46928689999913,278.46928689999913,278.46928689999913,278.46928689999913,278.46928689999913,278.46928689999913,280.5040446040002,280.5040446040002,280.5040446040002,280.5040446040002,,,,,,,,,,,,,,,,,,,,,,,,,,,,,,,,,,,,,,,01,007,2022-09-23_14h40.38.518,test2,2022.2.4,59.946741636027795,
0,0,0,0,36,0,36,0,280.5040446040002,280.5040446040002,280.5040446040002,280.5040446040002,280.5040446040002,280.5040446040002,280.5040446040002,1,1,azul,0,['N_A'],282.2394589739997,282.2394589739997,282.2394589739997,282.2394589739997,284.27529847799997,284.27529847799997,284.27529847799997,284.27529847799997,284.27529847799997,284.27529847799997,284.27529847799997,284.27529847799997,286.3105271029999,286.3105271029999,286.3105271029999,286.3105271029999,,,,,,,,,,,,,,,,,,,,,,,,,,,,,,,,,,,,,,,01,007,2022-09-23_14h40.38.518,test2,2022.2.4,59.946741636027795,
0,0,0,0,37,0,37,0,286.3105271029999,286.3105271029999,286.3105271029999,286.3105271029999,286.3105271029999,286.3105271029999,286.3105271029999,1,-1,rojo,1,['N_A'],287.9964767429992,287.9964767429992,287.9964767429992,287.9964767429992,290.03235549499914,290.03235549499914,290.03235549499914,290.03235549499914,290.03235549499914,290.03235549499914,290.03235549499914,290.03235549499914,292.06707955599995,292.06707955599995,292.06707955599995,292.06707955599995,,,,,,,,,,,,,,,,,,,,,,,,,,,,,,,,,,,,,,,01,007,2022-09-23_14h40.38.518,test2,2022.2.4,59.946741636027795,
0,0,0,0,38,0,38,0,292.06707955599995,292.06707955599995,292.06707955599995,292.06707955599995,292.06707955599995,292.06707955599995,292.06707955599995,1,-1,rojo,1,['N_A'],294.3702667180005,294.3702667180005,294.3702667180005,294.3702667180005,296.40540782899916,296.40540782899916,296.40540782899916,296.40540782899916,296.40540782899916,296.40540782899916,296.40540782899916,296.40540782899916,298.44058695400054,298.44058695400054,298.44058695400054,298.44058695400054,,,,,,,,,,,,,,,,,,,,,,,,,,,,,,,,,,,,,,,01,007,2022-09-23_14h40.38.518,test2,2022.2.4,59.946741636027795,
0,0,0,0,39,0,39,0,298.44058695400054,298.44058695400054,298.44058695400054,298.44058695400054,298.44058695400054,298.44058695400054,298.44058695400054,1,1,rojo,0,['N_B'],300.94354738400034,300.94354738400034,300.94354738400034,300.94354738400034,302.9794339349992,302.9794339349992,302.9794339349992,302.9794339349992,302.9794339349992,302.9794339349992,302.9794339349992,302.9794339349992,305.01375869799995,305.01375869799995,305.01375869799995,305.01375869799995,,,,,,,,,,,,,,,,,,,,,,,,,,,,,,,,,,,,,,,01,007,2022-09-23_14h40.38.518,test2,2022.2.4,59.946741636027795,
0,0,0,0,40,0,40,0,305.01375869799995,305.01375869799995,305.01375869799995,305.01375869799995,305.01375869799995,305.01375869799995,305.01375869799995,1,-1,azul,0,['N_A'],306.6333870059989,306.6333870059989,306.6333870059989,306.6333870059989,308.6688632610003,308.6688632610003,308.6688632610003,308.6688632610003,308.6688632610003,308.6688632610003,308.6688632610003,308.6688632610003,310.7045498690004,310.7045498690004,310.7045498690004,310.7045498690004,,,,,,,,,,,,,,,,,,,,,,,,,,,,,,,,,,,,,,,01,007,2022-09-23_14h40.38.518,test2,2022.2.4,59.946741636027795,
0,0,0,0,41,0,41,0,310.7045498690004,310.7045498690004,310.7045498690004,310.7045498690004,310.7045498690004,310.7045498690004,310.7045498690004,1,-1,rojo,0,['N_B'],312.4897463819998,312.4897463819998,312.4897463819998,312.4897463819998,314.52593343099943,314.52593343099943,314.52593343099943,314.52593343099943,314.52593343099943,314.52593343099943,314.52593343099943,314.52593343099943,316.56092947899924,316.56092947899924,316.56092947899924,316.56092947899924,,,,,,,,,,,,,,,,,,,,,,,,,,,,,,,,,,,,,,,01,007,2022-09-23_14h40.38.518,test2,2022.2.4,59.946741636027795,
0,0,0,0,42,0,42,0,316.56092947899924,316.56092947899924,316.56092947899924,316.56092947899924,316.56092947899924,316.56092947899924,316.56092947899924,-1,1,rojo,1,['N_B'],318.4627477390004,318.4627477390004,318.4627477390004,318.4627477390004,320.498963439999,320.498963439999,320.498963439999,320.498963439999,320.498963439999,320.498963439999,320.498963439999,320.498963439999,322.53452747899973,322.53452747899973,322.53452747899973,322.53452747899973,,,,,,,,,,,,,,,,,,,,,,,,,,,,,,,,,,,,,,,01,007,2022-09-23_14h40.38.518,test2,2022.2.4,59.946741636027795,
0,0,0,0,43,0,43,0,322.53452747899973,322.53452747899973,322.53452747899973,322.53452747899973,322.53452747899973,322.53452747899973,322.53452747899973,-1,-1,rojo,1,['N_B'],326.4214032939999,326.4214032939999,326.4214032939999,326.4214032939999,328.45775624700036,328.45775624700036,328.45775624700036,328.45775624700036,328.45775624700036,328.45775624700036,328.45775624700036,328.45775624700036,330.49264452900024,330.49264452900024,330.49264452900024,330.49264452900024,,,,,,,,,,,,,,,,,,,,,,,,,,,,,,,,,,,,,,,01,007,2022-09-23_14h40.38.518,test2,2022.2.4,59.946741636027795,
0,0,0,0,44,0,44,0,330.49264452900024,330.49264452900024,330.49264452900024,330.49264452900024,330.49264452900024,330.49264452900024,330.49264452900024,1,-1,azul,0,['N_A'],333.1289490899999,333.1289490899999,333.1289490899999,333.1289490899999,335.1649231070005,335.1649231070005,335.1649231070005,335.1649231070005,335.1649231070005,335.1649231070005,335.1649231070005,335.1649231070005,337.20028687500053,337.20028687500053,337.20028687500053,337.20028687500053,,,,,,,,,,,,,,,,,,,,,,,,,,,,,,,,,,,,,,,01,007,2022-09-23_14h40.38.518,test2,2022.2.4,59.946741636027795,
0,0,0,0,45,0,45,0,337.20028687500053,337.20028687500053,337.20028687500053,337.20028687500053,337.20028687500053,337.20028687500053,337.20028687500053,1,1,rojo,0,['N_B'],339.1354757099998,339.1354757099998,339.1354757099998,339.1354757099998,341.17216087499946,341.17216087499946,341.17216087499946,341.17216087499946,341.17216087499946,341.17216087499946,341.17216087499946,341.17216087499946,343.2074267099997,343.2074267099997,343.2074267099997,343.2074267099997,,,,,,,,,,,,,,,,,,,,,,,,,,,,,,,,,,,,,,,01,007,2022-09-23_14h40.38.518,test2,2022.2.4,59.946741636027795,
0,0,0,0,46,0,46,0,343.2074267099997,343.2074267099997,343.2074267099997,343.2074267099997,343.2074267099997,343.2074267099997,343.2074267099997,1,-1,azul,0,['N_A'],345.0588315169989,345.0588315169989,345.0588315169989,345.0588315169989,347.0953046399991,347.0953046399991,347.0953046399991,347.0953046399991,347.0953046399991,347.0953046399991,347.0953046399991,347.0953046399991,349.1297948880001,349.1297948880001,349.1297948880001,349.1297948880001,,,,,,,,,,,,,,,,,,,,,,,,,,,,,,,,,,,,,,,01,007,2022-09-23_14h40.38.518,test2,2022.2.4,59.946741636027795,
0,0,0,0,47,0,47,0,349.1297948880001,349.1297948880001,349.1297948880001,349.1297948880001,349.1297948880001,349.1297948880001,349.1297948880001,1,-1,rojo,0,['N_B'],351.61652112499905,351.61652112499905,351.61652112499905,351.61652112499905,353.65186557999914,353.65186557999914,353.65186557999914,353.65186557999914,353.65186557999914,353.65186557999914,353.65186557999914,353.65186557999914,355.6877591600005,355.6877591600005,355.6877591600005,355.6877591600005,,,,,,,,,,,,,,,,,,,,,,,,,,,,,,,,,,,,,,,01,007,2022-09-23_14h40.38.518,test2,2022.2.4,59.946741636027795,
0,0,0,0,48,0,48,0,355.6877591600005,355.6877591600005,355.6877591600005,355.6877591600005,355.6877591600005,355.6877591600005,355.6877591600005,-1,-1,rojo,1,['N_B'],357.40567759199985,357.40567759199985,357.40567759199985,357.40567759199985,359.44205728700035,359.44205728700035,359.44205728700035,359.44205728700035,359.44205728700035,359.44205728700035,359.44205728700035,359.44205728700035,361.47730462300024,361.47730462300024,361.47730462300024,361.47730462300024,,,,,,,,,,,,,,,,,,,,,,,,,,,,,,,,,,,,,,,01,007,2022-09-23_14h40.38.518,test2,2022.2.4,59.946741636027795,
0,0,0,0,49,0,49,0,361.47730462300024,361.47730462300024,361.47730462300024,361.47730462300024,361.47730462300024,361.47730462300024,361.47730462300024,1,1,azul,1,['N_B'],362.9452556670003,362.9452556670003,362.9452556670003,362.9452556670003,364.9816555799989,364.9816555799989,364.9816555799989,364.9816555799989,364.9816555799989,364.9816555799989,364.9816555799989,364.9816555799989,367.01665477999995,367.01665477999995,367.01665477999995,367.01665477999995,,,,,,,,,,,,,,,,,,,,,,,,,,,,,,,,,,,,,,,01,007,2022-09-23_14h40.38.518,test2,2022.2.4,59.946741636027795,
0,0,0,0,50,0,50,0,367.01665477999995,367.01665477999995,367.01665477999995,367.01665477999995,367.01665477999995,367.01665477999995,367.01665477999995,1,-1,azul,1,['N_B'],368.45100125799945,368.45100125799945,368.45100125799945,368.45100125799945,370.4865903289992,370.4865903289992,370.4865903289992,370.4865903289992,370.4865903289992,370.4865903289992,370.4865903289992,370.4865903289992,372.52295218499967,372.52295218499967,372.52295218499967,372.52295218499967,,,,,,,,,,,,,,,,,,,,,,,,,,,,,,,,,,,,,,,01,007,2022-09-23_14h40.38.518,test2,2022.2.4,59.946741636027795,
0,0,0,0,51,0,51,0,372.52295218499967,372.52295218499967,372.52295218499967,372.52295218499967,372.52295218499967,372.52295218499967,372.52295218499967,1,-1,azul,0,['N_A'],373.941508210999,373.941508210999,373.941508210999,373.941508210999,375.9764814609989,375.9764814609989,375.9764814609989,375.9764814609989,375.9764814609989,375.9764814609989,375.9764814609989,375.9764814609989,378.01147761799984,378.01147761799984,378.01147761799984,378.01147761799984,,,,,,,,,,,,,,,,,,,,,,,,,,,,,,,,,,,,,,,01,007,2022-09-23_14h40.38.518,test2,2022.2.4,59.946741636027795,
0,0,0,0,52,0,52,0,378.01147761799984,378.01147761799984,378.01147761799984,378.01147761799984,378.01147761799984,378.01147761799984,378.01147761799984,1,-1,rojo,1,['N_A'],380.0477771149999,380.0477771149999,380.0477771149999,380.0477771149999,382.08384232299977,382.08384232299977,382.08384232299977,382.08384232299977,382.08384232299977,382.08384232299977,382.08384232299977,382.08384232299977,384.1186948300001,384.1186948300001,384.1186948300001,384.1186948300001,,,,,,,,,,,,,,,,,,,,,,,,,,,,,,,,,,,,,,,01,007,2022-09-23_14h40.38.518,test2,2022.2.4,59.946741636027795,
0,0,0,0,53,0,53,0,384.1186948300001,384.1186948300001,384.1186948300001,384.1186948300001,384.1186948300001,384.1186948300001,384.1186948300001,-1,-1,azul,1,['N_A'],385.7037084019994,385.7037084019994,385.7037084019994,385.7037084019994,387.7392647939996,387.7392647939996,387.7392647939996,387.7392647939996,387.7392647939996,387.7392647939996,387.7392647939996,387.7392647939996,389.77520236300006,389.77520236300006,389.77520236300006,389.77520236300006,,,,,,,,,,,,,,,,,,,,,,,,,,,,,,,,,,,,,,,01,007,2022-09-23_14h40.38.518,test2,2022.2.4,59.946741636027795,
0,0,0,0,54,0,54,0,389.77520236300006,389.77520236300006,389.77520236300006,389.77520236300006,389.77520236300006,389.77520236300006,389.77520236300006,1,-1,rojo,1,['N_A'],391.510493492,391.510493492,391.510493492,391.510493492,393.5464941219998,393.5464941219998,393.5464941219998,393.5464941219998,393.5464941219998,393.5464941219998,393.5464941219998,393.5464941219998,395.5813891460002,395.5813891460002,395.5813891460002,395.5813891460002,,,,,,,,,,,,,,,,,,,,,,,,,,,,,,,,,,,,,,,01,007,2022-09-23_14h40.38.518,test2,2022.2.4,59.946741636027795,
0,0,0,0,55,0,55,0,395.5813891460002,395.5813891460002,395.5813891460002,395.5813891460002,395.5813891460002,395.5813891460002,395.5813891460002,1,-1,rojo,0,['N_B'],396.9995171749997,396.9995171749997,396.9995171749997,396.9995171749997,399.036100841,399.036100841,399.036100841,399.036100841,399.036100841,399.036100841,399.036100841,399.036100841,401.0708017380002,401.0708017380002,401.0708017380002,401.0708017380002,,,,,,,,,,,,,,,,,,,,,,,,,,,,,,,,,,,,,,,01,007,2022-09-23_14h40.38.518,test2,2022.2.4,59.946741636027795,
0,0,0,0,56,0,56,0,401.0708017380002,401.0708017380002,401.0708017380002,401.0708017380002,401.0708017380002,401.0708017380002,401.0708017380002,1,-1,azul,1,['N_B'],402.5063282539995,402.5063282539995,402.5063282539995,402.5063282539995,404.54207057299936,404.54207057299936,404.54207057299936,404.54207057299936,404.54207057299936,404.54207057299936,404.54207057299936,404.54207057299936,406.57668864600055,406.57668864600055,406.57668864600055,406.57668864600055,,,,,,,,,,,,,,,,,,,,,,,,,,,,,,,,,,,,,,,01,007,2022-09-23_14h40.38.518,test2,2022.2.4,59.946741636027795,
0,0,0,0,57,0,57,0,406.57668864600055,406.57668864600055,406.57668864600055,406.57668864600055,406.57668864600055,406.57668864600055,406.57668864600055,1,1,azul,0,['N_A'],408.0956567109988,408.0956567109988,408.0956567109988,408.0956567109988,410.13109797700054,410.13109797700054,410.13109797700054,410.13109797700054,410.13109797700054,410.13109797700054,410.13109797700054,410.13109797700054,412.1662896529997,412.1662896529997,412.1662896529997,412.1662896529997,,,,,,,,,,,,,,,,,,,,,,,,,,,,,,,,,,,,,,,01,007,2022-09-23_14h40.38.518,test2,2022.2.4,59.946741636027795,
0,0,0,0,58,0,58,0,412.1662896529997,412.1662896529997,412.1662896529997,412.1662896529997,412.1662896529997,412.1662896529997,412.1662896529997,1,-1,rojo,0,['N_B'],413.63486746200033,413.63486746200033,413.63486746200033,413.63486746200033,415.6711391730005,415.6711391730005,415.6711391730005,415.6711391730005,415.6711391730005,415.6711391730005,415.6711391730005,415.6711391730005,417.70591238499946,417.70591238499946,417.70591238499946,417.70591238499946,,,,,,,,,,,,,,,,,,,,,,,,,,,,,,,,,,,,,,,01,007,2022-09-23_14h40.38.518,test2,2022.2.4,59.946741636027795,
0,0,0,0,59,0,59,0,417.70591238499946,417.70591238499946,417.70591238499946,417.70591238499946,417.70591238499946,417.70591238499946,417.70591238499946,-1,-1,rojo,1,['N_B'],419.05678124299993,419.05678124299993,419.05678124299993,419.05678124299993,421.09297318899917,421.09297318899917,421.09297318899917,421.09297318899917,421.09297318899917,421.09297318899917,421.09297318899917,421.09297318899917,423.12865069299914,423.12865069299914,423.12865069299914,423.12865069299914,,,,,,,,,,,,,,,,,,,,,,,,,,,,,,,,,,,,,,,01,007,2022-09-23_14h40.38.518,test2,2022.2.4,59.946741636027795,
0,0,0,0,60,0,60,0,423.12865069299914,423.12865069299914,423.12865069299914,423.12865069299914,423.12865069299914,423.12865069299914,423.12865069299914,1,1,azul,1,['N_B'],424.29621430800034,424.29621430800034,424.29621430800034,424.29621430800034,426.3322650739992,426.3322650739992,426.3322650739992,426.3322650739992,426.3322650739992,426.3322650739992,426.3322650739992,426.3322650739992,428.36790605199894,428.36790605199894,428.36790605199894,428.36790605199894,,,,,,,,,,,,,,,,,,,,,,,,,,,,,,,,,,,,,,,01,007,2022-09-23_14h40.38.518,test2,2022.2.4,59.946741636027795,
0,0,0,0,61,0,61,0,428.36790605199894,428.36790605199894,428.36790605199894,428.36790605199894,428.36790605199894,428.36790605199894,428.36790605199894,1,-1,azul,1,['N_B'],430.03600043500046,430.03600043500046,430.03600043500046,430.03600043500046,432.07240998199995,432.07240998199995,432.07240998199995,432.07240998199995,432.07240998199995,432.07240998199995,432.07240998199995,432.07240998199995,434.1074341559997,434.1074341559997,434.1074341559997,434.1074341559997,,,,,,,,,,,,,,,,,,,,,,,,,,,,,,,,,,,,,,,01,007,2022-09-23_14h40.38.518,test2,2022.2.4,59.946741636027795,
0,0,0,0,62,0,62,0,434.1074341559997,434.1074341559997,434.1074341559997,434.1074341559997,434.1074341559997,434.1074341559997,434.1074341559997,1,1,azul,1,['N_B'],436.1934684099997,436.1934684099997,436.1934684099997,436.1934684099997,438.22864080100044,438.22864080100044,438.22864080100044,438.22864080100044,438.22864080100044,438.22864080100044,438.22864080100044,438.22864080100044,440.26345099900027,440.26345099900027,440.26345099900027,440.26345099900027,,,,,,,,,,,,,,,,,,,,,,,,,,,,,,,,,,,,,,,01,007,2022-09-23_14h40.38.518,test2,2022.2.4,59.946741636027795,
0,0,0,0,63,0,63,0,440.26345099900027,440.26345099900027,440.26345099900027,440.26345099900027,440.26345099900027,440.26345099900027,440.26345099900027,1,-1,azul,1,['N_B'],441.68209811700035,441.68209811700035,441.68209811700035,441.68209811700035,443.71786514499945,443.71786514499945,443.71786514499945,443.71786514499945,443.71786514499945,443.71786514499945,443.71786514499945,443.71786514499945,445.75377687999935,445.75377687999935,445.75377687999935,445.75377687999935,,,,,,,,,,,,,,,,,,,,,,,,,,,,,,,,,,,,,,,01,007,2022-09-23_14h40.38.518,test2,2022.2.4,59.946741636027795,
0,0,0,0,64,0,64,0,445.75377687999935,445.75377687999935,445.75377687999935,445.75377687999935,445.75377687999935,445.75377687999935,445.75377687999935,1,-1,azul,0,['N_A'],447.2383343959991,447.2383343959991,447.2383343959991,447.2383343959991,449.2743895629992,449.2743895629992,449.2743895629992,449.2743895629992,449.2743895629992,449.2743895629992,449.2743895629992,449.2743895629992,451.30998944599924,451.30998944599924,451.30998944599924,451.30998944599924,,,,,,,,,,,,,,,,,,,,,,,,,,,,,,,,,,,,,,,01,007,2022-09-23_14h40.38.518,test2,2022.2.4,59.946741636027795,
0,0,0,0,65,0,65,0,451.30998944599924,451.30998944599924,451.30998944599924,451.30998944599924,451.30998944599924,451.30998944599924,451.30998944599924,-1,-1,azul,1,['N_A'],453.24535804100015,453.24535804100015,453.24535804100015,453.24535804100015,455.2815325749998,455.2815325749998,455.2815325749998,455.2815325749998,455.2815325749998,455.2815325749998,455.2815325749998,455.2815325749998,457.31659073599985,457.31659073599985,457.31659073599985,457.31659073599985,,,,,,,,,,,,,,,,,,,,,,,,,,,,,,,,,,,,,,,01,007,2022-09-23_14h40.38.518,test2,2022.2.4,59.946741636027795,
0,0,0,0,66,0,66,0,457.31659073599985,457.31659073599985,457.31659073599985,457.31659073599985,457.31659073599985,457.31659073599985,457.31659073599985,1,-1,rojo,1,['N_A'],459.00167384199995,459.00167384199995,459.00167384199995,459.00167384199995,461.03734154499944,461.03734154499944,461.03734154499944,461.03734154499944,461.03734154499944,461.03734154499944,461.03734154499944,461.03734154499944,463.07254148299944,463.07254148299944,463.07254148299944,463.07254148299944,,,,,,,,,,,,,,,,,,,,,,,,,,,,,,,,,,,,,,,01,007,2022-09-23_14h40.38.518,test2,2022.2.4,59.946741636027795,
0,0,0,0,67,0,67,0,463.07254148299944,463.07254148299944,463.07254148299944,463.07254148299944,463.07254148299944,463.07254148299944,463.07254148299944,1,-1,rojo,0,['N_B'],464.5748710030002,464.5748710030002,464.5748710030002,464.5748710030002,466.61049247699884,466.61049247699884,466.61049247699884,466.61049247699884,466.61049247699884,466.61049247699884,466.61049247699884,466.61049247699884,468.6456929470005,468.6456929470005,468.6456929470005,468.6456929470005,,,,,,,,,,,,,,,,,,,,,,,,,,,,,,,,,,,,,,,01,007,2022-09-23_14h40.38.518,test2,2022.2.4,59.946741636027795,
0,0,0,0,68,0,68,0,468.6456929470005,468.6456929470005,468.6456929470005,468.6456929470005,468.6456929470005,468.6456929470005,468.6456929470005,-1,-1,rojo,1,['N_B'],470.3970379789989,470.3970379789989,470.3970379789989,470.3970379789989,472.4338818159995,472.4338818159995,472.4338818159995,472.4338818159995,472.4338818159995,472.4338818159995,472.4338818159995,472.4338818159995,474.4678320799994,474.4678320799994,474.4678320799994,474.4678320799994,,,,,,,,,,,,,,,,,,,,,,,,,,,,,,,,,,,,,,,01,007,2022-09-23_14h40.38.518,test2,2022.2.4,59.946741636027795,
0,0,0,0,69,0,69,0,474.4678320799994,474.4678320799994,474.4678320799994,474.4678320799994,474.4678320799994,474.4678320799994,474.4678320799994,1,-1,azul,0,['N_A'],476.0208717209989,476.0208717209989,476.0208717209989,476.0208717209989,478.0558446739997,478.0558446739997,478.0558446739997,478.0558446739997,478.0558446739997,478.0558446739997,478.0558446739997,478.0558446739997,480.09097189099884,480.09097189099884,480.09097189099884,480.09097189099884,,,,,,,,,,,,,,,,,,,,,,,,,,,,,,,,,,,,,,,01,007,2022-09-23_14h40.38.518,test2,2022.2.4,59.946741636027795,
0,0,0,0,70,0,70,0,480.09097189099884,480.09097189099884,480.09097189099884,480.09097189099884,480.09097189099884,480.09097189099884,480.09097189099884,1,-1,rojo,0,['N_B'],481.8092361130002,481.8092361130002,481.8092361130002,481.8092361130002,483.84557667399895,483.84557667399895,483.84557667399895,483.84557667399895,483.84557667399895,483.84557667399895,483.84557667399895,483.84557667399895,485.88117944499936,485.88117944499936,485.88117944499936,485.88117944499936,,,,,,,,,,,,,,,,,,,,,,,,,,,,,,,,,,,,,,,01,007,2022-09-23_14h40.38.518,test2,2022.2.4,59.946741636027795,
0,0,0,0,71,0,71,0,485.88117944499936,485.88117944499936,485.88117944499936,485.88117944499936,485.88117944499936,485.88117944499936,485.88117944499936,1,-1,azul,0,['N_A'],487.61645110800055,487.61645110800055,487.61645110800055,487.61645110800055,489.6525745029994,489.6525745029994,489.6525745029994,489.6525745029994,489.6525745029994,489.6525745029994,489.6525745029994,489.6525745029994,491.68734661800045,491.68734661800045,491.68734661800045,491.68734661800045,,,,,,,,,,,,,,,,,,,,,,,,,,,,,,,,,,,,,,,01,007,2022-09-23_14h40.38.518,test2,2022.2.4,59.946741636027795,
0,0,0,0,72,0,72,0,491.68734661800045,491.68734661800045,491.68734661800045,491.68734661800045,491.68734661800045,491.68734661800045,491.68734661800045,-1,-1,azul,0,['N_B'],494.0394440130003,494.0394440130003,494.0394440130003,494.0394440130003,496.07626249999885,496.07626249999885,496.07626249999885,496.07626249999885,496.07626249999885,496.07626249999885,496.07626249999885,496.07626249999885,498.11163145499995,498.11163145499995,498.11163145499995,498.11163145499995,,,,,,,,,,,,,,,,,,,,,,,,,,,,,,,,,,,,,,,01,007,2022-09-23_14h40.38.518,test2,2022.2.4,59.946741636027795,
0,0,0,0,73,0,73,0,498.11163145499995,498.11163145499995,498.11163145499995,498.11163145499995,498.11163145499995,498.11163145499995,498.11163145499995,-1,-1,rojo,1,['N_B'],499.4790355320001,499.4790355320001,499.4790355320001,499.4790355320001,501.5151530229996,501.5151530229996,501.5151530229996,501.5151530229996,501.5151530229996,501.5151530229996,501.5151530229996,501.5151530229996,503.5508436649998,503.5508436649998,503.5508436649998,503.5508436649998,,,,,,,,,,,,,,,,,,,,,,,,,,,,,,,,,,,,,,,01,007,2022-09-23_14h40.38.518,test2,2022.2.4,59.946741636027795,
0,0,0,0,74,0,74,0,503.5508436649998,503.5508436649998,503.5508436649998,503.5508436649998,503.5508436649998,503.5508436649998,503.5508436649998,1,1,azul,0,['N_A'],505.5693768860001,505.5693768860001,505.5693768860001,505.5693768860001,507.60551318599937,507.60551318599937,507.60551318599937,507.60551318599937,507.60551318599937,507.60551318599937,507.60551318599937,507.60551318599937,509.6405858340004,509.6405858340004,509.6405858340004,509.6405858340004,,,,,,,,,,,,,,,,,,,,,,,,,,,,,,,,,,,,,,,01,007,2022-09-23_14h40.38.518,test2,2022.2.4,59.946741636027795,
0,0,0,0,75,0,75,0,509.6405858340004,509.6405858340004,509.6405858340004,509.6405858340004,509.6405858340004,509.6405858340004,509.6405858340004,1,-1,rojo,1,['N_A'],512.1270059969993,512.1270059969993,512.1270059969993,512.1270059969993,514.1628165829989,514.1628165829989,514.1628165829989,514.1628165829989,514.1628165829989,514.1628165829989,514.1628165829989,514.1628165829989,516.1974351619992,516.1974351619992,516.1974351619992,516.1974351619992,,,,,,,,,,,,,,,,,,,,,,,,,,,,,,,,,,,,,,,01,007,2022-09-23_14h40.38.518,test2,2022.2.4,59.946741636027795,
0,0,0,0,76,0,76,0,516.1974351619992,516.1974351619992,516.1974351619992,516.1974351619992,516.1974351619992,516.1974351619992,516.1974351619992,1,-1,rojo,0,['N_B'],517.6152703379994,517.6152703379994,517.6152703379994,517.6152703379994,519.6519683930001,519.6519683930001,519.6519683930001,519.6519683930001,519.6519683930001,519.6519683930001,519.6519683930001,519.6519683930001,521.6879231839994,521.6879231839994,521.6879231839994,521.6879231839994,,,,,,,,,,,,,,,,,,,,,,,,,,,,,,,,,,,,,,,01,007,2022-09-23_14h40.38.518,test2,2022.2.4,59.946741636027795,
0,0,0,0,77,0,77,0,521.6879231839994,521.6879231839994,521.6879231839994,521.6879231839994,521.6879231839994,521.6879231839994,521.6879231839994,1,-1,azul,1,['N_B'],523.322420855,523.322420855,523.322420855,523.322420855,525.3580825579993,525.3580825579993,525.3580825579993,525.3580825579993,525.3580825579993,525.3580825579993,525.3580825579993,525.3580825579993,527.392944665,527.392944665,527.392944665,527.392944665,,,,,,,,,,,,,,,,,,,,,,,,,,,,,,,,,,,,,,,01,007,2022-09-23_14h40.38.518,test2,2022.2.4,59.946741636027795,
0,0,0,0,78,0,78,0,527.392944665,527.392944665,527.392944665,527.392944665,527.392944665,527.392944665,527.392944665,-1,-1,rojo,1,['N_B'],529.0952699930003,529.0952699930003,529.0952699930003,529.0952699930003,531.131218311999,531.131218311999,531.131218311999,531.131218311999,531.131218311999,531.131218311999,531.131218311999,531.131218311999,533.1667186180002,533.1667186180002,533.1667186180002,533.1667186180002,,,,,,,,,,,,,,,,,,,,,,,,,,,,,,,,,,,,,,,01,007,2022-09-23_14h40.38.518,test2,2022.2.4,59.946741636027795,
0,0,0,0,79,0,79,0,533.1667186180002,533.1667186180002,533.1667186180002,533.1667186180002,533.1667186180002,533.1667186180002,533.1667186180002,1,1,azul,1,['N_B'],537.8219653359993,537.8219653359993,537.8219653359993,537.8219653359993,539.8399354519988,539.8399354519988,539.8399354519988,539.8399354519988,539.8399354519988,539.8399354519988,539.8399354519988,539.8399354519988,541.8764592389998,541.8764592389998,541.8764592389998,541.8764592389998,,,,,,,,,,,,,,,,,,,,,,,,,,,,,,,,,,,,,,,01,007,2022-09-23_14h40.38.518,test2,2022.2.4,59.946741636027795,
0,0,0,0,80,0,80,0,541.8764592389998,541.8764592389998,541.8764592389998,541.8764592389998,541.8764592389998,541.8764592389998,541.8764592389998,-1,1,rojo,0,['N_A'],545.2796560909992,545.2796560909992,545.2796560909992,545.2796560909992,547.3156735829998,547.3156735829998,547.3156735829998,547.3156735829998,547.3156735829998,547.3156735829998,547.3156735829998,547.3156735829998,549.3514969480002,549.3514969480002,549.3514969480002,549.3514969480002,,,,,,,,,,,,,,,,,,,,,,,,,,,,,,,,,,,,,,,01,007,2022-09-23_14h40.38.518,test2,2022.2.4,59.946741636027795,
0,0,0,0,81,0,81,0,549.3514969480002,549.3514969480002,549.3514969480002,549.3514969480002,549.3514969480002,549.3514969480002,549.3514969480002,1,-1,rojo,0,['N_B'],552.8384356259994,552.8384356259994,552.8384356259994,552.8384356259994,554.8742470540001,554.8742470540001,554.8742470540001,554.8742470540001,554.8742470540001,554.8742470540001,554.8742470540001,554.8742470540001,556.9093771179996,556.9093771179996,556.9093771179996,556.9093771179996,,,,,,,,,,,,,,,,,,,,,,,,,,,,,,,,,,,,,,,01,007,2022-09-23_14h40.38.518,test2,2022.2.4,59.946741636027795,
0,0,0,0,82,0,82,0,556.9093771179996,556.9093771179996,556.9093771179996,556.9093771179996,556.9093771179996,556.9093771179996,556.9093771179996,1,-1,azul,1,['N_B'],558.6612400270005,558.6612400270005,558.6612400270005,558.6612400270005,560.69677658,560.69677658,560.69677658,560.69677658,560.69677658,560.69677658,560.69677658,560.69677658,562.7326276120002,562.7326276120002,562.7326276120002,562.7326276120002,,,,,,,,,,,,,,,,,,,,,,,,,,,,,,,,,,,,,,,01,007,2022-09-23_14h40.38.518,test2,2022.2.4,59.946741636027795,
0,0,0,0,83,0,83,0,562.7326276120002,562.7326276120002,562.7326276120002,562.7326276120002,562.7326276120002,562.7326276120002,562.7326276120002,-1,1,rojo,0,['N_A'],564.6176301899995,564.6176301899995,564.6176301899995,564.6176301899995,566.6531296390003,566.6531296390003,566.6531296390003,566.6531296390003,566.6531296390003,566.6531296390003,566.6531296390003,566.6531296390003,568.6889994310004,568.6889994310004,568.6889994310004,568.6889994310004,,,,,,,,,,,,,,,,,,,,,,,,,,,,,,,,,,,,,,,01,007,2022-09-23_14h40.38.518,test2,2022.2.4,59.946741636027795,
0,0,0,0,84,0,84,0,568.6889994310004,568.6889994310004,568.6889994310004,568.6889994310004,568.6889994310004,568.6889994310004,568.6889994310004,-1,-1,azul,0,['N_B'],570.1071202700005,570.1071202700005,570.1071202700005,570.1071202700005,572.1431315760001,572.1431315760001,572.1431315760001,572.1431315760001,572.1431315760001,572.1431315760001,572.1431315760001,572.1431315760001,574.1788362299994,574.1788362299994,574.1788362299994,574.1788362299994,,,,,,,,,,,,,,,,,,,,,,,,,,,,,,,,,,,,,,,01,007,2022-09-23_14h40.38.518,test2,2022.2.4,59.946741636027795,
0,0,0,0,85,0,85,0,574.1788362299994,574.1788362299994,574.1788362299994,574.1788362299994,574.1788362299994,574.1788362299994,574.1788362299994,1,-1,azul,1,['N_B'],576.2977466680004,576.2977466680004,576.2977466680004,576.2977466680004,578.3334647439988,578.3334647439988,578.3334647439988,578.3334647439988,578.3334647439988,578.3334647439988,578.3334647439988,578.3334647439988,580.3686393709995,580.3686393709995,580.3686393709995,580.3686393709995,,,,,,,,,,,,,,,,,,,,,,,,,,,,,,,,,,,,,,,01,007,2022-09-23_14h40.38.518,test2,2022.2.4,59.946741636027795,
0,0,0,0,86,0,86,0,580.3686393709995,580.3686393709995,580.3686393709995,580.3686393709995,580.3686393709995,580.3686393709995,580.3686393709995,1,-1,azul,1,['N_B'],582.1874923590003,582.1874923590003,582.1874923590003,582.1874923590003,584.2234827760003,584.2234827760003,584.2234827760003,584.2234827760003,584.2234827760003,584.2234827760003,584.2234827760003,584.2234827760003,586.2583647369993,586.2583647369993,586.2583647369993,586.2583647369993,,,,,,,,,,,,,,,,,,,,,,,,,,,,,,,,,,,,,,,01,007,2022-09-23_14h40.38.518,test2,2022.2.4,59.946741636027795,
0,0,0,0,87,0,87,0,586.2583647369993,586.2583647369993,586.2583647369993,586.2583647369993,586.2583647369993,586.2583647369993,586.2583647369993,1,1,azul,1,['N_B'],587.2757813469998,587.2757813469998,587.2757813469998,587.2757813469998,589.3115960809992,589.3115960809992,589.3115960809992,589.3115960809992,589.3115960809992,589.3115960809992,589.3115960809992,589.3115960809992,591.347338616999,591.347338616999,591.347338616999,591.347338616999,,,,,,,,,,,,,,,,,,,,,,,,,,,,,,,,,,,,,,,01,007,2022-09-23_14h40.38.518,test2,2022.2.4,59.946741636027795,
0,0,0,0,88,0,88,0,591.347338616999,591.347338616999,591.347338616999,591.347338616999,591.347338616999,591.347338616999,591.347338616999,1,-1,azul,0,['N_A'],592.9663147350002,592.9663147350002,592.9663147350002,592.9663147350002,595.0017641899994,595.0017641899994,595.0017641899994,595.0017641899994,595.0017641899994,595.0017641899994,595.0017641899994,595.0017641899994,597.0373864190005,597.0373864190005,597.0373864190005,597.0373864190005,,,,,,,,,,,,,,,,,,,,,,,,,,,,,,,,,,,,,,,01,007,2022-09-23_14h40.38.518,test2,2022.2.4,59.946741636027795,
0,0,0,0,89,0,89,0,597.0373864190005,597.0373864190005,597.0373864190005,597.0373864190005,597.0373864190005,597.0373864190005,597.0373864190005,-1,-1,azul,1,['N_A'],598.722161325999,598.722161325999,598.722161325999,598.722161325999,600.7579929759995,600.7579929759995,600.7579929759995,600.7579929759995,600.7579929759995,600.7579929759995,600.7579929759995,600.7579929759995,602.7924339879992,602.7924339879992,602.7924339879992,602.7924339879992,,,,,,,,,,,,,,,,,,,,,,,,,,,,,,,,,,,,,,,01,007,2022-09-23_14h40.38.518,test2,2022.2.4,59.946741636027795,
0,0,0,0,90,0,90,0,602.7924339879992,602.7924339879992,602.7924339879992,602.7924339879992,602.7924339879992,602.7924339879992,602.7924339879992,1,-1,rojo,1,['N_A'],604.1777904499995,604.1777904499995,604.1777904499995,604.1777904499995,606.2140073629998,606.2140073629998,606.2140073629998,606.2140073629998,606.2140073629998,606.2140073629998,606.2140073629998,606.2140073629998,608.248859080999,608.248859080999,608.248859080999,608.248859080999,,,,,,,,,,,,,,,,,,,,,,,,,,,,,,,,,,,,,,,01,007,2022-09-23_14h40.38.518,test2,2022.2.4,59.946741636027795,
0,0,0,0,91,0,91,0,608.248859080999,608.248859080999,608.248859080999,608.248859080999,608.248859080999,608.248859080999,608.248859080999,-1,-1,azul,1,['N_A'],609.66776192,609.66776192,609.66776192,609.66776192,611.7036472519994,611.7036472519994,611.7036472519994,611.7036472519994,611.7036472519994,611.7036472519994,611.7036472519994,611.7036472519994,613.7389706279992,613.7389706279992,613.7389706279992,613.7389706279992,,,,,,,,,,,,,,,,,,,,,,,,,,,,,,,,,,,,,,,01,007,2022-09-23_14h40.38.518,test2,2022.2.4,59.946741636027795,
0,0,0,0,92,0,92,0,613.7389706279992,613.7389706279992,613.7389706279992,613.7389706279992,613.7389706279992,613.7389706279992,613.7389706279992,1,1,rojo,1,['N_A'],615.5078189359992,615.5078189359992,615.5078189359992,615.5078189359992,617.5434848379991,617.5434848379991,617.5434848379991,617.5434848379991,617.5434848379991,617.5434848379991,617.5434848379991,617.5434848379991,619.5784162990003,619.5784162990003,619.5784162990003,619.5784162990003,,,,,,,,,,,,,,,,,,,,,,,,,,,,,,,,,,,,,,,01,007,2022-09-23_14h40.38.518,test2,2022.2.4,59.946741636027795,
0,0,0,0,93,0,93,0,619.5784162990003,619.5784162990003,619.5784162990003,619.5784162990003,619.5784162990003,619.5784162990003,619.5784162990003,-1,-1,azul,1,['N_A'],620.9973575080003,620.9973575080003,620.9973575080003,620.9973575080003,623.0327756499992,623.0327756499992,623.0327756499992,623.0327756499992,623.0327756499992,623.0327756499992,623.0327756499992,623.0327756499992,625.0685655479992,625.0685655479992,625.0685655479992,625.0685655479992,,,,,,,,,,,,,,,,,,,,,,,,,,,,,,,,,,,,,,,01,007,2022-09-23_14h40.38.518,test2,2022.2.4,59.946741636027795,
0,0,0,0,94,0,94,0,625.0685655479992,625.0685655479992,625.0685655479992,625.0685655479992,625.0685655479992,625.0685655479992,625.0685655479992,1,-1,rojo,1,['N_A'],626.5033471810002,626.5033471810002,626.5033471810002,626.5033471810002,628.539330779,628.539330779,628.539330779,628.539330779,628.539330779,628.539330779,628.539330779,628.539330779,630.5740220999996,630.5740220999996,630.5740220999996,630.5740220999996,,,,,,,,,,,,,,,,,,,,,,,,,,,,,,,,,,,,,,,01,007,2022-09-23_14h40.38.518,test2,2022.2.4,59.946741636027795,
0,0,0,0,95,0,95,0,630.5740220999996,630.5740220999996,630.5740220999996,630.5740220999996,630.5740220999996,630.5740220999996,630.5740220999996,1,-1,rojo,1,['N_A'],631.9591030749998,631.9591030749998,631.9591030749998,631.9591030749998,633.9938248079998,633.9938248079998,633.9938248079998,633.9938248079998,633.9938248079998,633.9938248079998,633.9938248079998,633.9938248079998,636.0307280500001,636.0307280500001,636.0307280500001,636.0307280500001,,,,,,,,,,,,,,,,,,,,,,,,,,,,,,,,,,,,,,,01,007,2022-09-23_14h40.38.518,test2,2022.2.4,59.946741636027795,
0,0,0,0,96,0,96,0,636.0307280500001,636.0307280500001,636.0307280500001,636.0307280500001,636.0307280500001,636.0307280500001,636.0307280500001,1,-1,rojo,0,['N_B'],637.631517328,637.631517328,637.631517328,637.631517328,639.6673239119991,639.6673239119991,639.6673239119991,639.6673239119991,639.6673239119991,639.6673239119991,639.6673239119991,639.6673239119991,641.7026312929993,641.7026312929993,641.7026312929993,641.7026312929993,,,,,,,,,,,,,,,,,,,,,,,,,,,,,,,,,,,,,,,01,007,2022-09-23_14h40.38.518,test2,2022.2.4,59.946741636027795,
0,0,0,0,97,0,97,0,641.7026312929993,641.7026312929993,641.7026312929993,641.7026312929993,641.7026312929993,641.7026312929993,641.7026312929993,1,-1,azul,1,['N_B'],643.0548462139996,643.0548462139996,643.0548462139996,643.0548462139996,645.0907752330004,645.0907752330004,645.0907752330004,645.0907752330004,645.0907752330004,645.0907752330004,645.0907752330004,645.0907752330004,647.1255532790001,647.1255532790001,647.1255532790001,647.1255532790001,,,,,,,,,,,,,,,,,,,,,,,,,,,,,,,,,,,,,,,01,007,2022-09-23_14h40.38.518,test2,2022.2.4,59.946741636027795,
0,0,0,0,98,0,98,0,647.1255532790001,647.1255532790001,647.1255532790001,647.1255532790001,647.1255532790001,647.1255532790001,647.1255532790001,1,-1,azul,1,['N_B'],648.577450756,648.577450756,648.577450756,648.577450756,650.6137248229988,650.6137248229988,650.6137248229988,650.6137248229988,650.6137248229988,650.6137248229988,650.6137248229988,650.6137248229988,652.6487273130006,652.6487273130006,652.6487273130006,652.6487273130006,,,,,,,,,,,,,,,,,,,,,,,,,,,,,,,,,,,,,,,01,007,2022-09-23_14h40.38.518,test2,2022.2.4,59.946741636027795,
0,0,0,0,99,0,99,0,652.6487273130006,652.6487273130006,652.6487273130006,652.6487273130006,652.6487273130006,652.6487273130006,652.6487273130006,-1,-1,rojo,1,['N_B'],654.1162315639995,654.1162315639995,654.1162315639995,654.1162315639995,656.1527674549998,656.1527674549998,656.1527674549998,656.1527674549998,656.1527674549998,656.1527674549998,656.1527674549998,656.1527674549998,658.1873985009988,658.1873985009988,658.1873985009988,658.1873985009988,,,,,,,,,,,,,,,,,,,,,,,,,,,,,,,,,,,,,,,01,007,2022-09-23_14h40.38.518,test2,2022.2.4,59.946741636027795,
0,0,0,0,100,0,100,0,658.1873985009988,658.1873985009988,658.1873985009988,658.1873985009988,658.1873985009988,658.1873985009988,658.1873985009988,1,-1,azul,1,['N_B'],659.9730160489999,659.9730160489999,659.9730160489999,659.9730160489999,662.0086413049994,662.0086413049994,662.0086413049994,662.0086413049994,662.0086413049994,662.0086413049994,662.0086413049994,662.0086413049994,664.0446336349996,664.0446336349996,664.0446336349996,664.0446336349996,,,,,,,,,,,,,,,,,,,,,,,,,,,,,,,,,,,,,,,01,007,2022-09-23_14h40.38.518,test2,2022.2.4,59.946741636027795,
0,0,0,0,101,0,101,0,664.0446336349996,664.0446336349996,664.0446336349996,664.0446336349996,664.0446336349996,664.0446336349996,664.0446336349996,1,-1,azul,1,['N_B'],666.0298849859992,666.0298849859992,666.0298849859992,666.0298849859992,668.0653085829999,668.0653085829999,668.0653085829999,668.0653085829999,668.0653085829999,668.0653085829999,668.0653085829999,668.0653085829999,670.1011711850006,670.1011711850006,670.1011711850006,670.1011711850006,,,,,,,,,,,,,,,,,,,,,,,,,,,,,,,,,,,,,,,01,007,2022-09-23_14h40.38.518,test2,2022.2.4,59.946741636027795,
0,0,0,0,102,0,102,0,670.1011711850006,670.1011711850006,670.1011711850006,670.1011711850006,670.1011711850006,670.1011711850006,670.1011711850006,-1,-1,rojo,1,['N_B'],673.9220852679991,673.9220852679991,673.9220852679991,673.9220852679991,675.9574264929997,675.9574264929997,675.9574264929997,675.9574264929997,675.9574264929997,675.9574264929997,675.9574264929997,675.9574264929997,677.9935921479992,677.9935921479992,677.9935921479992,677.9935921479992,,,,,,,,,,,,,,,,,,,,,,,,,,,,,,,,,,,,,,,01,007,2022-09-23_14h40.38.518,test2,2022.2.4,59.946741636027795,
0,0,0,0,103,0,103,0,677.9935921479992,677.9935921479992,677.9935921479992,677.9935921479992,677.9935921479992,677.9935921479992,677.9935921479992,1,-1,azul,1,['N_B'],679.7284349359998,679.7284349359998,679.7284349359998,679.7284349359998,681.764494735,681.764494735,681.764494735,681.764494735,681.764494735,681.764494735,681.764494735,681.764494735,683.7996110549993,683.7996110549993,683.7996110549993,683.7996110549993,,,,,,,,,,,,,,,,,,,,,,,,,,,,,,,,,,,,,,,01,007,2022-09-23_14h40.38.518,test2,2022.2.4,59.946741636027795,
0,0,0,0,104,0,104,0,683.7996110549993,683.7996110549993,683.7996110549993,683.7996110549993,683.7996110549993,683.7996110549993,683.7996110549993,1,-1,azul,0,['N_A'],685.2844236500005,685.2844236500005,685.2844236500005,685.2844236500005,687.3202517129994,687.3202517129994,687.3202517129994,687.3202517129994,687.3202517129994,687.3202517129994,687.3202517129994,687.3202517129994,689.3554905599995,689.3554905599995,689.3554905599995,689.3554905599995,,,,,,,,,,,,,,,,,,,,,,,,,,,,,,,,,,,,,,,01,007,2022-09-23_14h40.38.518,test2,2022.2.4,59.946741636027795,
0,0,0,0,105,0,105,0,689.3554905599995,689.3554905599995,689.3554905599995,689.3554905599995,689.3554905599995,689.3554905599995,689.3554905599995,-1,1,azul,0,['N_B'],690.8736317969997,690.8736317969997,690.8736317969997,690.8736317969997,692.9102106769988,692.9102106769988,692.9102106769988,692.9102106769988,692.9102106769988,692.9102106769988,692.9102106769988,692.9102106769988,694.9450290289988,694.9450290289988,694.9450290289988,694.9450290289988,,,,,,,,,,,,,,,,,,,,,,,,,,,,,,,,,,,,,,,01,007,2022-09-23_14h40.38.518,test2,2022.2.4,59.946741636027795,
0,0,0,0,106,0,106,0,694.9450290289988,694.9450290289988,694.9450290289988,694.9450290289988,694.9450290289988,694.9450290289988,694.9450290289988,1,-1,azul,1,['N_B'],697.6818479590002,697.6818479590002,697.6818479590002,697.6818479590002,699.7164650039995,699.7164650039995,699.7164650039995,699.7164650039995,699.7164650039995,699.7164650039995,699.7164650039995,699.7164650039995,701.7526655620004,701.7526655620004,701.7526655620004,701.7526655620004,,,,,,,,,,,,,,,,,,,,,,,,,,,,,,,,,,,,,,,01,007,2022-09-23_14h40.38.518,test2,2022.2.4,59.946741636027795,
0,0,0,0,107,0,107,0,701.7526655620004,701.7526655620004,701.7526655620004,701.7526655620004,701.7526655620004,701.7526655620004,701.7526655620004,1,-1,azul,0,['N_A'],703.1705766180003,703.1705766180003,703.1705766180003,703.1705766180003,705.2065345310002,705.2065345310002,705.2065345310002,705.2065345310002,705.2065345310002,705.2065345310002,705.2065345310002,705.2065345310002,707.2423809529992,707.2423809529992,707.2423809529992,707.2423809529992,,,,,,,,,,,,,,,,,,,,,,,,,,,,,,,,,,,,,,,01,007,2022-09-23_14h40.38.518,test2,2022.2.4,59.946741636027795,
0,0,0,0,108,0,108,0,707.2423809529992,707.2423809529992,707.2423809529992,707.2423809529992,707.2423809529992,707.2423809529992,707.2423809529992,1,-1,rojo,1,['N_A'],708.9611283229988,708.9611283229988,708.9611283229988,708.9611283229988,710.9968334719997,710.9968334719997,710.9968334719997,710.9968334719997,710.9968334719997,710.9968334719997,710.9968334719997,710.9968334719997,713.0315665469989,713.0315665469989,713.0315665469989,713.0315665469989,,,,,,,,,,,,,,,,,,,,,,,,,,,,,,,,,,,,,,,01,007,2022-09-23_14h40.38.518,test2,2022.2.4,59.946741636027795,
0,0,0,0,109,0,109,0,713.0315665469989,713.0315665469989,713.0315665469989,713.0315665469989,713.0315665469989,713.0315665469989,713.0315665469989,-1,-1,azul,1,['N_A'],714.6833230520006,714.6833230520006,714.6833230520006,714.6833230520006,716.719012136,716.719012136,716.719012136,716.719012136,716.719012136,716.719012136,716.719012136,716.719012136,718.7550965350001,718.7550965350001,718.7550965350001,718.7550965350001,,,,,,,,,,,,,,,,,,,,,,,,,,,,,,,,,,,,,,,01,007,2022-09-23_14h40.38.518,test2,2022.2.4,59.946741636027795,
0,0,0,0,110,0,110,0,718.7550965350001,718.7550965350001,718.7550965350001,718.7550965350001,718.7550965350001,718.7550965350001,718.7550965350001,-1,-1,azul,0,['N_B'],720.1726422800002,720.1726422800002,720.1726422800002,720.1726422800002,722.2087665199997,722.2087665199997,722.2087665199997,722.2087665199997,722.2087665199997,722.2087665199997,722.2087665199997,722.2087665199997,724.2443972620003,724.2443972620003,724.2443972620003,724.2443972620003,,,,,,,,,,,,,,,,,,,,,,,,,,,,,,,,,,,,,,,01,007,2022-09-23_14h40.38.518,test2,2022.2.4,59.946741636027795,
0,0,0,0,111,0,111,0,724.2443972620003,724.2443972620003,724.2443972620003,724.2443972620003,724.2443972620003,724.2443972620003,724.2443972620003,1,-1,azul,1,['N_B'],725.829187891999,725.829187891999,725.829187891999,725.829187891999,727.8650778030005,727.8650778030005,727.8650778030005,727.8650778030005,727.8650778030005,727.8650778030005,727.8650778030005,727.8650778030005,729.9005121440005,729.9005121440005,729.9005121440005,729.9005121440005,,,,,,,,,,,,,,,,,,,,,,,,,,,,,,,,,,,,,,,01,007,2022-09-23_14h40.38.518,test2,2022.2.4,59.946741636027795,
0,0,0,0,112,0,112,0,729.9005121440005,729.9005121440005,729.9005121440005,729.9005121440005,729.9005121440005,729.9005121440005,729.9005121440005,1,-1,azul,1,['N_B'],731.3017122259989,731.3017122259989,731.3017122259989,731.3017122259989,733.3376358639998,733.3376358639998,733.3376358639998,733.3376358639998,733.3376358639998,733.3376358639998,733.3376358639998,733.3376358639998,735.3733795509997,735.3733795509997,735.3733795509997,735.3733795509997,,,,,,,,,,,,,,,,,,,,,,,,,,,,,,,,,,,,,,,01,007,2022-09-23_14h40.38.518,test2,2022.2.4,59.946741636027795,
0,0,0,0,113,0,113,0,735.3733795509997,735.3733795509997,735.3733795509997,735.3733795509997,735.3733795509997,735.3733795509997,735.3733795509997,1,-1,azul,1,['N_B'],737.0584637209995,737.0584637209995,737.0584637209995,737.0584637209995,739.0937721810005,739.0937721810005,739.0937721810005,739.0937721810005,739.0937721810005,739.0937721810005,739.0937721810005,739.0937721810005,741.1295430709997,741.1295430709997,741.1295430709997,741.1295430709997,,,,,,,,,,,,,,,,,,,,,,,,,,,,,,,,,,,,,,,01,007,2022-09-23_14h40.38.518,test2,2022.2.4,59.946741636027795,
0,0,0,0,114,0,114,0,741.1295430709997,741.1295430709997,741.1295430709997,741.1295430709997,741.1295430709997,741.1295430709997,741.1295430709997,1,-1,azul,1,['N_B'],743.916190943999,743.916190943999,743.916190943999,743.916190943999,745.9521227820005,745.9521227820005,745.9521227820005,745.9521227820005,745.9521227820005,745.9521227820005,745.9521227820005,745.9521227820005,747.9870104199999,747.9870104199999,747.9870104199999,747.9870104199999,,,,,,,,,,,,,,,,,,,,,,,,,,,,,,,,,,,,,,,01,007,2022-09-23_14h40.38.518,test2,2022.2.4,59.946741636027795,
0,0,0,0,115,0,115,0,747.9870104199999,747.9870104199999,747.9870104199999,747.9870104199999,747.9870104199999,747.9870104199999,747.9870104199999,1,-1,azul,0,['N_A'],749.6559794789991,749.6559794789991,749.6559794789991,749.6559794789991,751.6917972499996,751.6917972499996,751.6917972499996,751.6917972499996,751.6917972499996,751.6917972499996,751.6917972499996,751.6917972499996,753.7265104779999,753.7265104779999,753.7265104779999,753.7265104779999,,,,,,,,,,,,,,,,,,,,,,,,,,,,,,,,,,,,,,,01,007,2022-09-23_14h40.38.518,test2,2022.2.4,59.946741636027795,
0,0,0,0,116,0,116,0,753.7265104779999,753.7265104779999,753.7265104779999,753.7265104779999,753.7265104779999,753.7265104779999,753.7265104779999,1,1,rojo,1,['N_A'],760.7846100440001,760.7846100440001,760.7846100440001,760.7846100440001,762.8204290470003,762.8204290470003,762.8204290470003,762.8204290470003,762.8204290470003,762.8204290470003,762.8204290470003,762.8204290470003,764.8553790339993,764.8553790339993,764.8553790339993,764.8553790339993,,,,,,,,,,,,,,,,,,,,,,,,,,,,,,,,,,,,,,,01,007,2022-09-23_14h40.38.518,test2,2022.2.4,59.946741636027795,
0,0,0,0,117,0,117,0,764.8553790339993,764.8553790339993,764.8553790339993,764.8553790339993,764.8553790339993,764.8553790339993,764.8553790339993,1,-1,rojo,1,['N_A'],767.3414079909999,767.3414079909999,767.3414079909999,767.3414079909999,769.377464915,769.377464915,769.377464915,769.377464915,769.377464915,769.377464915,769.377464915,769.377464915,771.412791323999,771.412791323999,771.412791323999,771.412791323999,,,,,,,,,,,,,,,,,,,,,,,,,,,,,,,,,,,,,,,01,007,2022-09-23_14h40.38.518,test2,2022.2.4,59.946741636027795,
0,0,0,0,118,0,118,0,771.412791323999,771.412791323999,771.412791323999,771.412791323999,771.412791323999,771.412791323999,771.412791323999,1,-1,rojo,0,['N_B'],773.0148907160001,773.0148907160001,773.0148907160001,773.0148907160001,775.0507665669993,775.0507665669993,775.0507665669993,775.0507665669993,775.0507665669993,775.0507665669993,775.0507665669993,775.0507665669993,777.0859352299994,777.0859352299994,777.0859352299994,777.0859352299994,,,,,,,,,,,,,,,,,,,,,,,,,,,,,,,,,,,,,,,01,007,2022-09-23_14h40.38.518,test2,2022.2.4,59.946741636027795,
0,0,0,0,119,0,119,0,777.0859352299994,777.0859352299994,777.0859352299994,777.0859352299994,777.0859352299994,777.0859352299994,777.0859352299994,1,-1,azul,0,['N_A'],778.9210531560002,778.9210531560002,778.9210531560002,778.9210531560002,780.9571979249995,780.9571979249995,780.9571979249995,780.9571979249995,780.9571979249995,780.9571979249995,780.9571979249995,780.9571979249995,782.9916250259994,782.9916250259994,782.9916250259994,782.9916250259994,,,,,,,,,,,,,,,,,,,,,,,,,,,,,,,,,,,,,,,01,007,2022-09-23_14h40.38.518,test2,2022.2.4,59.946741636027795,
0,0,0,0,120,0,120,0,782.9916250259994,782.9916250259994,782.9916250259994,782.9916250259994,782.9916250259994,782.9916250259994,782.9916250259994,-1,-1,azul,1,['N_A'],784.7276639880001,784.7276639880001,784.7276639880001,784.7276639880001,786.7627088139998,786.7627088139998,786.7627088139998,786.7627088139998,786.7627088139998,786.7627088139998,786.7627088139998,786.7627088139998,788.7990173509988,788.7990173509988,788.7990173509988,788.7990173509988,,,,,,,,,,,,,,,,,,,,,,,,,,,,,,,,,,,,,,,01,007,2022-09-23_14h40.38.518,test2,2022.2.4,59.946741636027795,
0,0,0,0,121,0,121,0,788.7990173509988,788.7990173509988,788.7990173509988,788.7990173509988,788.7990173509988,788.7990173509988,788.7990173509988,1,-1,rojo,1,['N_A'],790.4172859800001,790.4172859800001,790.4172859800001,790.4172859800001,792.4526938529998,792.4526938529998,792.4526938529998,792.4526938529998,792.4526938529998,792.4526938529998,792.4526938529998,792.4526938529998,794.487599344,794.487599344,794.487599344,794.487599344,,,,,,,,,,,,,,,,,,,,,,,,,,,,,,,,,,,,,,,01,007,2022-09-23_14h40.38.518,test2,2022.2.4,59.946741636027795,
0,0,0,0,122,0,122,0,794.487599344,794.487599344,794.487599344,794.487599344,794.487599344,794.487599344,794.487599344,1,-1,rojo,1,['N_A'],796.5239025440005,796.5239025440005,796.5239025440005,796.5239025440005,798.5600104080004,798.5600104080004,798.5600104080004,798.5600104080004,798.5600104080004,798.5600104080004,798.5600104080004,798.5600104080004,800.5953519489995,800.5953519489995,800.5953519489995,800.5953519489995,,,,,,,,,,,,,,,,,,,,,,,,,,,,,,,,,,,,,,,01,007,2022-09-23_14h40.38.518,test2,2022.2.4,59.946741636027795,
0,0,0,0,123,0,123,0,800.5953519489995,800.5953519489995,800.5953519489995,800.5953519489995,800.5953519489995,800.5953519489995,800.5953519489995,1,-1,rojo,1,['N_A'],803.0641825379989,803.0641825379989,803.0641825379989,803.0641825379989,805.1011040960002,805.1011040960002,805.1011040960002,805.1011040960002,805.1011040960002,805.1011040960002,805.1011040960002,805.1011040960002,807.1349111130003,807.1349111130003,807.1349111130003,807.1349111130003,,,,,,,,,,,,,,,,,,,,,,,,,,,,,,,,,,,,,,,01,007,2022-09-23_14h40.38.518,test2,2022.2.4,59.946741636027795,
0,0,0,0,124,0,124,0,807.1349111130003,807.1349111130003,807.1349111130003,807.1349111130003,807.1349111130003,807.1349111130003,807.1349111130003,1,-1,rojo,0,['N_B'],809.8053014689995,809.8053014689995,809.8053014689995,809.8053014689995,811.841110456,811.841110456,811.841110456,811.841110456,811.841110456,811.841110456,811.841110456,811.841110456,813.8759118859998,813.8759118859998,813.8759118859998,813.8759118859998,,,,,,,,,,,,,,,,,,,,,,,,,,,,,,,,,,,,,,,01,007,2022-09-23_14h40.38.518,test2,2022.2.4,59.946741636027795,
0,0,0,0,125,0,125,0,813.8759118859998,813.8759118859998,813.8759118859998,813.8759118859998,813.8759118859998,813.8759118859998,813.8759118859998,1,-1,azul,1,['N_B'],815.4284275869995,815.4284275869995,815.4284275869995,815.4284275869995,817.4639833959991,817.4639833959991,817.4639833959991,817.4639833959991,817.4639833959991,817.4639833959991,817.4639833959991,817.4639833959991,819.4997460269988,819.4997460269988,819.4997460269988,819.4997460269988,,,,,,,,,,,,,,,,,,,,,,,,,,,,,,,,,,,,,,,01,007,2022-09-23_14h40.38.518,test2,2022.2.4,59.946741636027795,
0,0,0,0,126,0,126,0,819.4997460269988,819.4997460269988,819.4997460269988,819.4997460269988,819.4997460269988,819.4997460269988,819.4997460269988,1,-1,azul,1,['N_B'],821.1513123759996,821.1513123759996,821.1513123759996,821.1513123759996,823.1867075419996,823.1867075419996,823.1867075419996,823.1867075419996,823.1867075419996,823.1867075419996,823.1867075419996,823.1867075419996,825.2226442419997,825.2226442419997,825.2226442419997,825.2226442419997,,,,,,,,,,,,,,,,,,,,,,,,,,,,,,,,,,,,,,,01,007,2022-09-23_14h40.38.518,test2,2022.2.4,59.946741636027795,
0,0,0,0,127,0,127,0,825.2226442419997,825.2226442419997,825.2226442419997,825.2226442419997,825.2226442419997,825.2226442419997,825.2226442419997,1,-1,azul,1,['N_B'],827.0245840730004,827.0245840730004,827.0245840730004,827.0245840730004,829.0598057679999,829.0598057679999,829.0598057679999,829.0598057679999,829.0598057679999,829.0598057679999,829.0598057679999,829.0598057679999,831.0952398299996,831.0952398299996,831.0952398299996,831.0952398299996,,,,,,,,,,,,,,,,,,,,,,,,,,,,,,,,,,,,,,,01,007,2022-09-23_14h40.38.518,test2,2022.2.4,59.946741636027795,
0,0,0,0,128,0,128,0,831.0952398299996,831.0952398299996,831.0952398299996,831.0952398299996,831.0952398299996,831.0952398299996,831.0952398299996,1,-1,azul,1,['N_B'],833.0143973809991,833.0143973809991,833.0143973809991,833.0143973809991,835.0488378459995,835.0488378459995,835.0488378459995,835.0488378459995,835.0488378459995,835.0488378459995,835.0488378459995,835.0488378459995,837.0849148609996,837.0849148609996,837.0849148609996,837.0849148609996,,,,,,,,,,,,,,,,,,,,,,,,,,,,,,,,,,,,,,,01,007,2022-09-23_14h40.38.518,test2,2022.2.4,59.946741636027795,
0,0,0,0,129,0,129,0,837.0849148609996,837.0849148609996,837.0849148609996,837.0849148609996,837.0849148609996,837.0849148609996,837.0849148609996,1,-1,azul,0,['N_A'],838.7199731130004,838.7199731130004,838.7199731130004,838.7199731130004,840.7567393999998,840.7567393999998,840.7567393999998,840.7567393999998,840.7567393999998,840.7567393999998,840.7567393999998,840.7567393999998,842.7915985790005,842.7915985790005,842.7915985790005,842.7915985790005,,,,,,,,,,,,,,,,,,,,,,,,,,,,,,,,,,,,,,,01,007,2022-09-23_14h40.38.518,test2,2022.2.4,59.946741636027795,
0,0,0,0,130,0,130,0,842.7915985790005,842.7915985790005,842.7915985790005,842.7915985790005,842.7915985790005,842.7915985790005,842.7915985790005,1,1,rojo,0,['N_B'],844.3765104649992,844.3765104649992,844.3765104649992,844.3765104649992,846.4123558739993,846.4123558739993,846.4123558739993,846.4123558739993,846.4123558739993,846.4123558739993,846.4123558739993,846.4123558739993,848.4477750040005,848.4477750040005,848.4477750040005,848.4477750040005,,,,,,,,,,,,,,,,,,,,,,,,,,,,,,,,,,,,,,,01,007,2022-09-23_14h40.38.518,test2,2022.2.4,59.946741636027795,
0,0,0,0,131,0,131,0,848.4477750040005,848.4477750040005,848.4477750040005,848.4477750040005,848.4477750040005,848.4477750040005,848.4477750040005,1,-1,azul,1,['N_B'],850.283484182999,850.283484182999,850.283484182999,850.283484182999,852.3194974050002,852.3194974050002,852.3194974050002,852.3194974050002,852.3194974050002,852.3194974050002,852.3194974050002,852.3194974050002,854.354268395,854.354268395,854.354268395,854.354268395,,,,,,,,,,,,,,,,,,,,,,,,,,,,,,,,,,,,,,,01,007,2022-09-23_14h40.38.518,test2,2022.2.4,59.946741636027795,
0,0,0,0,132,0,132,0,854.354268395,854.354268395,854.354268395,854.354268395,854.354268395,854.354268395,854.354268395,1,-1,azul,1,['N_B'],856.5729935210002,856.5729935210002,856.5729935210002,856.5729935210002,858.6093703859988,858.6093703859988,858.6093703859988,858.6093703859988,858.6093703859988,858.6093703859988,858.6093703859988,858.6093703859988,860.6448585809994,860.6448585809994,860.6448585809994,860.6448585809994,,,,,,,,,,,,,,,,,,,,,,,,,,,,,,,,,,,,,,,01,007,2022-09-23_14h40.38.518,test2,2022.2.4,59.946741636027795,
0,0,0,0,133,0,133,0,860.6448585809994,860.6448585809994,860.6448585809994,860.6448585809994,860.6448585809994,860.6448585809994,860.6448585809994,1,1,azul,1,['N_B'],864.2144899079995,864.2144899079995,864.2144899079995,864.2144899079995,866.2506229859991,866.2506229859991,866.2506229859991,866.2506229859991,866.2506229859991,866.2506229859991,866.2506229859991,866.2506229859991,868.2861208630002,868.2861208630002,868.2861208630002,868.2861208630002,,,,,,,,,,,,,,,,,,,,,,,,,,,,,,,,,,,,,,,01,007,2022-09-23_14h40.38.518,test2,2022.2.4,59.946741636027795,
0,0,0,0,134,0,134,0,868.2861208630002,868.2861208630002,868.2861208630002,868.2861208630002,868.2861208630002,868.2861208630002,868.2861208630002,1,-1,azul,1,['N_B'],870.171649205,870.171649205,870.171649205,870.171649205,872.2077962989988,872.2077962989988,872.2077962989988,872.2077962989988,872.2077962989988,872.2077962989988,872.2077962989988,872.2077962989988,874.2429056359997,874.2429056359997,874.2429056359997,874.2429056359997,,,,,,,,,,,,,,,,,,,,,,,,,,,,,,,,,,,,,,,01,007,2022-09-23_14h40.38.518,test2,2022.2.4,59.946741636027795,
0,0,0,0,135,0,135,0,874.2429056359997,874.2429056359997,874.2429056359997,874.2429056359997,874.2429056359997,874.2429056359997,874.2429056359997,1,-1,azul,1,['N_B'],875.7276991580002,875.7276991580002,875.7276991580002,875.7276991580002,877.7641051299997,877.7641051299997,877.7641051299997,877.7641051299997,877.7641051299997,877.7641051299997,877.7641051299997,877.7641051299997,879.7985267339991,879.7985267339991,879.7985267339991,879.7985267339991,,,,,,,,,,,,,,,,,,,,,,,,,,,,,,,,,,,,,,,01,007,2022-09-23_14h40.38.518,test2,2022.2.4,59.946741636027795,
0,0,0,0,136,0,136,0,879.7985267339991,879.7985267339991,879.7985267339991,879.7985267339991,879.7985267339991,879.7985267339991,879.7985267339991,1,-1,azul,1,['N_B'],881.284266315999,881.284266315999,881.284266315999,881.284266315999,883.3194183060004,883.3194183060004,883.3194183060004,883.3194183060004,883.3194183060004,883.3194183060004,883.3194183060004,883.3194183060004,885.3553393439997,885.3553393439997,885.3553393439997,885.3553393439997,,,,,,,,,,,,,,,,,,,,,,,,,,,,,,,,,,,,,,,01,007,2022-09-23_14h40.38.518,test2,2022.2.4,59.946741636027795,
0,0,0,0,137,0,137,0,885.3553393439997,885.3553393439997,885.3553393439997,885.3553393439997,885.3553393439997,885.3553393439997,885.3553393439997,1,-1,azul,0,['N_A'],886.8405911310001,886.8405911310001,886.8405911310001,886.8405911310001,888.8755943839988,888.8755943839988,888.8755943839988,888.8755943839988,888.8755943839988,888.8755943839988,888.8755943839988,888.8755943839988,890.9113599449993,890.9113599449993,890.9113599449993,890.9113599449993,,,,,,,,,,,,,,,,,,,,,,,,,,,,,,,,,,,,,,,01,007,2022-09-23_14h40.38.518,test2,2022.2.4,59.946741636027795,
0,0,0,0,138,0,138,0,890.9113599449993,890.9113599449993,890.9113599449993,890.9113599449993,890.9113599449993,890.9113599449993,890.9113599449993,1,-1,rojo,1,['N_A'],892.6962795540003,892.6962795540003,892.6962795540003,892.6962795540003,894.7324127800002,894.7324127800002,894.7324127800002,894.7324127800002,894.7324127800002,894.7324127800002,894.7324127800002,894.7324127800002,896.7673666619994,896.7673666619994,896.7673666619994,896.7673666619994,,,,,,,,,,,,,,,,,,,,,,,,,,,,,,,,,,,,,,,01,007,2022-09-23_14h40.38.518,test2,2022.2.4,59.946741636027795,
0,0,0,0,139,0,139,0,896.7673666619994,896.7673666619994,896.7673666619994,896.7673666619994,896.7673666619994,896.7673666619994,896.7673666619994,-1,-1,azul,0,['N_B'],898.3856791189992,898.3856791189992,898.3856791189992,898.3856791189992,900.4227047450004,900.4227047450004,900.4227047450004,900.4227047450004,900.4227047450004,900.4227047450004,900.4227047450004,900.4227047450004,902.4568928429999,902.4568928429999,902.4568928429999,902.4568928429999,,,,,,,,,,,,,,,,,,,,,,,,,,,,,,,,,,,,,,,01,007,2022-09-23_14h40.38.518,test2,2022.2.4,59.946741636027795,
0,0,0,0,140,0,140,0,902.4568928429999,902.4568928429999,902.4568928429999,902.4568928429999,902.4568928429999,902.4568928429999,902.4568928429999,-1,-1,rojo,1,['N_B'],904.5597318700002,904.5597318700002,904.5597318700002,904.5597318700002,906.5959499839992,906.5959499839992,906.5959499839992,906.5959499839992,906.5959499839992,906.5959499839992,906.5959499839992,906.5959499839992,908.6303475629993,908.6303475629993,908.6303475629993,908.6303475629993,,,,,,,,,,,,,,,,,,,,,,,,,,,,,,,,,,,,,,,01,007,2022-09-23_14h40.38.518,test2,2022.2.4,59.946741636027795,
0,0,0,0,141,0,141,0,908.6303475629993,908.6303475629993,908.6303475629993,908.6303475629993,908.6303475629993,908.6303475629993,908.6303475629993,1,1,azul,0,['N_A'],909.765053612,909.765053612,909.765053612,909.765053612,911.8009867319997,911.8009867319997,911.8009867319997,911.8009867319997,911.8009867319997,911.8009867319997,911.8009867319997,911.8009867319997,913.8370870689996,913.8370870689996,913.8370870689996,913.8370870689996,,,,,,,,,,,,,,,,,,,,,,,,,,,,,,,,,,,,,,,01,007,2022-09-23_14h40.38.518,test2,2022.2.4,59.946741636027795,
0,0,0,0,142,0,142,0,913.8370870689996,913.8370870689996,913.8370870689996,913.8370870689996,913.8370870689996,913.8370870689996,913.8370870689996,1,-1,rojo,1,['N_A'],917.6576518099992,917.6576518099992,917.6576518099992,917.6576518099992,919.6931470219988,919.6931470219988,919.6931470219988,919.6931470219988,919.6931470219988,919.6931470219988,919.6931470219988,919.6931470219988,921.7281868350001,921.7281868350001,921.7281868350001,921.7281868350001,,,,,,,,,,,,,,,,,,,,,,,,,,,,,,,,,,,,,,,01,007,2022-09-23_14h40.38.518,test2,2022.2.4,59.946741636027795,
0,0,0,0,143,0,143,0,921.7281868350001,921.7281868350001,921.7281868350001,921.7281868350001,921.7281868350001,921.7281868350001,921.7281868350001,-1,-1,azul,1,['N_A'],923.4974403039996,923.4974403039996,923.4974403039996,923.4974403039996,925.5329999370006,925.5329999370006,925.5329999370006,925.5329999370006,925.5329999370006,925.5329999370006,925.5329999370006,925.5329999370006,927.5684306160001,927.5684306160001,927.5684306160001,927.5684306160001,,,,,,,,,,,,,,,,,,,,,,,,,,,,,,,,,,,,,,,01,007,2022-09-23_14h40.38.518,test2,2022.2.4,59.946741636027795,
0,0,0,0,144,0,144,0,927.5684306160001,927.5684306160001,927.5684306160001,927.5684306160001,927.5684306160001,927.5684306160001,927.5684306160001,-1,-1,azul,1,['N_A'],929.354010428,929.354010428,929.354010428,929.354010428,931.3900098089998,931.3900098089998,931.3900098089998,931.3900098089998,931.3900098089998,931.3900098089998,931.3900098089998,931.3900098089998,933.4249079759993,933.4249079759993,933.4249079759993,933.4249079759993,,,,,,,,,,,,,,,,,,,,,,,,,,,,,,,,,,,,,,,01,007,2022-09-23_14h40.38.518,test2,2022.2.4,59.946741636027795,
0,0,0,0,145,0,145,0,933.4249079759993,933.4249079759993,933.4249079759993,933.4249079759993,933.4249079759993,933.4249079759993,933.4249079759993,1,-1,rojo,1,['N_A'],934.4421605899988,934.4421605899988,934.4421605899988,934.4421605899988,936.4789641659991,936.4789641659991,936.4789641659991,936.4789641659991,936.4789641659991,936.4789641659991,936.4789641659991,936.4789641659991,938.5133538859991,938.5133538859991,938.5133538859991,938.5133538859991,,,,,,,,,,,,,,,,,,,,,,,,,,,,,,,,,,,,,,,01,007,2022-09-23_14h40.38.518,test2,2022.2.4,59.946741636027795,
0,0,0,0,146,0,146,0,938.5133538859991,938.5133538859991,938.5133538859991,938.5133538859991,938.5133538859991,938.5133538859991,938.5133538859991,1,1,rojo,1,['N_A'],941.0002264390005,941.0002264390005,941.0002264390005,941.0002264390005,943.0359573669994,943.0359573669994,943.0359573669994,943.0359573669994,943.0359573669994,943.0359573669994,943.0359573669994,943.0359573669994,945.0717778569997,945.0717778569997,945.0717778569997,945.0717778569997,,,,,,,,,,,,,,,,,,,,,,,,,,,,,,,,,,,,,,,01,007,2022-09-23_14h40.38.518,test2,2022.2.4,59.946741636027795,
0,0,0,0,147,0,147,0,945.0717778569997,945.0717778569997,945.0717778569997,945.0717778569997,945.0717778569997,945.0717778569997,945.0717778569997,1,-1,rojo,1,['N_A'],946.9563600439997,946.9563600439997,946.9563600439997,946.9563600439997,948.9920143439995,948.9920143439995,948.9920143439995,948.9920143439995,948.9920143439995,948.9920143439995,948.9920143439995,948.9920143439995,951.0283634139996,951.0283634139996,951.0283634139996,951.0283634139996,,,,,,,,,,,,,,,,,,,,,,,,,,,,,,,,,,,,,,,01,007,2022-09-23_14h40.38.518,test2,2022.2.4,59.946741636027795,
0,0,0,0,148,0,148,0,951.0283634139996,951.0283634139996,951.0283634139996,951.0283634139996,951.0283634139996,951.0283634139996,951.0283634139996,-1,-1,azul,0,['N_B'],953.0623405179995,953.0623405179995,953.0623405179995,953.0623405179995,955.0990457570006,955.0990457570006,955.0990457570006,955.0990457570006,955.0990457570006,955.0990457570006,955.0990457570006,955.0990457570006,957.1345859209996,957.1345859209996,957.1345859209996,957.1345859209996,,,,,,,,,,,,,,,,,,,,,,,,,,,,,,,,,,,,,,,01,007,2022-09-23_14h40.38.518,test2,2022.2.4,59.946741636027795,
0,0,0,0,149,0,149,0,957.1345859209996,957.1345859209996,957.1345859209996,957.1345859209996,957.1345859209996,957.1345859209996,957.1345859209996,-1,-1,rojo,0,['N_A'],959.2201225419994,959.2201225419994,959.2201225419994,959.2201225419994,961.2557906389993,961.2557906389993,961.2557906389993,961.2557906389993,961.2557906389993,961.2557906389993,961.2557906389993,961.2557906389993,963.2921238910003,963.2921238910003,963.2921238910003,963.2921238910003,,,,,,,,,,,,,,,,,,,,,,,,,,,,,,,,,,,,,,,01,007,2022-09-23_14h40.38.518,test2,2022.2.4,59.946741636027795,
0,0,0,0,150,0,150,0,963.2921238910003,963.2921238910003,963.2921238910003,963.2921238910003,963.2921238910003,963.2921238910003,963.2921238910003,1,-1,rojo,0,['N_B'],965.5936428259993,965.5936428259993,965.5936428259993,965.5936428259993,967.6302631889994,967.6302631889994,967.6302631889994,967.6302631889994,967.6302631889994,967.6302631889994,967.6302631889994,967.6302631889994,969.6645926820001,969.6645926820001,969.6645926820001,969.6645926820001,,,,,,,,,,,,,,,,,,,,,,,,,,,,,,,,,,,,,,,01,007,2022-09-23_14h40.38.518,test2,2022.2.4,59.946741636027795,
0,0,0,0,151,0,151,0,969.6645926820001,969.6645926820001,969.6645926820001,969.6645926820001,969.6645926820001,969.6645926820001,969.6645926820001,1,-1,azul,1,['N_B'],971.3835541609988,971.3835541609988,971.3835541609988,971.3835541609988,973.4179026769998,973.4179026769998,973.4179026769998,973.4179026769998,973.4179026769998,973.4179026769998,973.4179026769998,973.4179026769998,975.4542596819992,975.4542596819992,975.4542596819992,975.4542596819992,,,,,,,,,,,,,,,,,,,,,,,,,,,,,,,,,,,,,,,01,007,2022-09-23_14h40.38.518,test2,2022.2.4,59.946741636027795,
0,0,0,0,152,0,152,0,975.4542596819992,975.4542596819992,975.4542596819992,975.4542596819992,975.4542596819992,975.4542596819992,975.4542596819992,1,-1,azul,1,['N_B'],977.2564986639991,977.2564986639991,977.2564986639991,977.2564986639991,979.292715313999,979.292715313999,979.292715313999,979.292715313999,979.292715313999,979.292715313999,979.292715313999,979.292715313999,981.3274256349996,981.3274256349996,981.3274256349996,981.3274256349996,,,,,,,,,,,,,,,,,,,,,,,,,,,,,,,,,,,,,,,01,007,2022-09-23_14h40.38.518,test2,2022.2.4,59.946741636027795,
0,0,0,0,153,0,153,0,981.3274256349996,981.3274256349996,981.3274256349996,981.3274256349996,981.3274256349996,981.3274256349996,981.3274256349996,1,-1,azul,1,['N_B'],983.7467875439997,983.7467875439997,983.7467875439997,983.7467875439997,985.7829943109991,985.7829943109991,985.7829943109991,985.7829943109991,985.7829943109991,985.7829943109991,985.7829943109991,985.7829943109991,987.8181583139994,987.8181583139994,987.8181583139994,987.8181583139994,,,,,,,,,,,,,,,,,,,,,,,,,,,,,,,,,,,,,,,01,007,2022-09-23_14h40.38.518,test2,2022.2.4,59.946741636027795,
0,0,0,0,154,0,154,0,987.8181583139994,987.8181583139994,987.8181583139994,987.8181583139994,987.8181583139994,987.8181583139994,987.8181583139994,1,-1,azul,0,['N_A'],990.5710370519992,990.5710370519992,990.5710370519992,990.5710370519992,992.6064314060004,992.6064314060004,992.6064314060004,992.6064314060004,992.6064314060004,992.6064314060004,992.6064314060004,992.6064314060004,994.6422327799992,994.6422327799992,994.6422327799992,994.6422327799992,,,,,,,,,,,,,,,,,,,,,,,,,,,,,,,,,,,,,,,01,007,2022-09-23_14h40.38.518,test2,2022.2.4,59.946741636027795,
0,0,0,0,155,0,155,0,994.6422327799992,994.6422327799992,994.6422327799992,994.6422327799992,994.6422327799992,994.6422327799992,994.6422327799992,1,1,rojo,0,['N_B'],1002.4504710599995,1002.4504710599995,1002.4504710599995,1002.4504710599995,1004.4870259380004,1004.4870259380004,1004.4870259380004,1004.4870259380004,1004.4870259380004,1004.4870259380004,1004.4870259380004,1004.4870259380004,1006.5219599669999,1006.5219599669999,1006.5219599669999,1006.5219599669999,,,,,,,,,,,,,,,,,,,,,,,,,,,,,,,,,,,,,,,01,007,2022-09-23_14h40.38.518,test2,2022.2.4,59.946741636027795,
0,0,0,0,156,0,156,0,1006.5219599669999,1006.5219599669999,1006.5219599669999,1006.5219599669999,1006.5219599669999,1006.5219599669999,1006.5219599669999,-1,-1,rojo,0,['N_A'],1009.6254446139992,1009.6254446139992,1009.6254446139992,1009.6254446139992,1011.6619281059993,1011.6619281059993,1011.6619281059993,1011.6619281059993,1011.6619281059993,1011.6619281059993,1011.6619281059993,1011.6619281059993,1013.696188246,1013.696188246,1013.696188246,1013.696188246,,,,,,,,,,,,,,,,,,,,,,,,,,,,,,,,,,,,,,,01,007,2022-09-23_14h40.38.518,test2,2022.2.4,59.946741636027795,
0,0,0,0,157,0,157,0,1013.696188246,1013.696188246,1013.696188246,1013.696188246,1013.696188246,1013.696188246,1013.696188246,1,-1,rojo,1,['N_A'],1015.164890131,1015.164890131,1015.164890131,1015.164890131,1017.2014547999988,1017.2014547999988,1017.2014547999988,1017.2014547999988,1017.2014547999988,1017.2014547999988,1017.2014547999988,1017.2014547999988,1019.23584553,1019.23584553,1019.23584553,1019.23584553,,,,,,,,,,,,,,,,,,,,,,,,,,,,,,,,,,,,,,,01,007,2022-09-23_14h40.38.518,test2,2022.2.4,59.946741636027795,
0,0,0,0,158,0,158,0,1019.23584553,1019.23584553,1019.23584553,1019.23584553,1019.23584553,1019.23584553,1019.23584553,1,1,rojo,0,['N_B'],1020.8881822269996,1020.8881822269996,1020.8881822269996,1020.8881822269996,1022.9244743460004,1022.9244743460004,1022.9244743460004,1022.9244743460004,1022.9244743460004,1022.9244743460004,1022.9244743460004,1022.9244743460004,1024.9595875750001,1024.9595875750001,1024.9595875750001,1024.9595875750001,,,,,,,,,,,,,,,,,,,,,,,,,,,,,,,,,,,,,,,01,007,2022-09-23_14h40.38.518,test2,2022.2.4,59.946741636027795,
0,0,0,0,159,0,159,0,1024.9595875750001,1024.9595875750001,1024.9595875750001,1024.9595875750001,1024.9595875750001,1024.9595875750001,1024.9595875750001,1,-1,azul,0,['N_A'],1027.595359515999,1027.595359515999,1027.595359515999,1027.595359515999,1029.6317418130002,1029.6317418130002,1029.6317418130002,1029.6317418130002,1029.6317418130002,1029.6317418130002,1029.6317418130002,1029.6317418130002,1031.665475672,1031.665475672,1031.665475672,1031.665475672,,,,,,,,,,,,,,,,,,,,,,,,,,,,,,,,,,,,,,,01,007,2022-09-23_14h40.38.518,test2,2022.2.4,59.946741636027795,
0,0,0,0,160,0,160,0,1031.665475672,1031.665475672,1031.665475672,1031.665475672,1031.665475672,1031.665475672,1031.665475672,1,1,rojo,0,['N_B'],1032.6841120049994,1032.6841120049994,1032.6841120049994,1032.6841120049994,1034.703318734999,1034.703318734999,1034.703318734999,1034.703318734999,1034.703318734999,1034.703318734999,1034.703318734999,1034.703318734999,1036.738923158,1036.738923158,1036.738923158,1036.738923158,,,,,,,,,,,,,,,,,,,,,,,,,,,,,,,,,,,,,,,01,007,2022-09-23_14h40.38.518,test2,2022.2.4,59.946741636027795,
0,0,0,0,161,0,161,0,1036.738923158,1036.738923158,1036.738923158,1036.738923158,1036.738923158,1036.738923158,1036.738923158,1,1,azul,0,['N_A'],1038.524258895999,1038.524258895999,1038.524258895999,1038.524258895999,1040.5595688100002,1040.5595688100002,1040.5595688100002,1040.5595688100002,1040.5595688100002,1040.5595688100002,1040.5595688100002,1040.5595688100002,1042.5959651699995,1042.5959651699995,1042.5959651699995,1042.5959651699995,,,,,,,,,,,,,,,,,,,,,,,,,,,,,,,,,,,,,,,01,007,2022-09-23_14h40.38.518,test2,2022.2.4,59.946741636027795,
0,0,0,0,162,0,162,0,1042.5959651699995,1042.5959651699995,1042.5959651699995,1042.5959651699995,1042.5959651699995,1042.5959651699995,1042.5959651699995,1,-1,rojo,1,['N_A'],1044.882655112,1044.882655112,1044.882655112,1044.882655112,1046.9178815169998,1046.9178815169998,1046.9178815169998,1046.9178815169998,1046.9178815169998,1046.9178815169998,1046.9178815169998,1046.9178815169998,1048.952573052,1048.952573052,1048.952573052,1048.952573052,,,,,,,,,,,,,,,,,,,,,,,,,,,,,,,,,,,,,,,01,007,2022-09-23_14h40.38.518,test2,2022.2.4,59.946741636027795,
0,0,0,0,163,0,163,0,1048.952573052,1048.952573052,1048.952573052,1048.952573052,1048.952573052,1048.952573052,1048.952573052,1,-1,rojo,0,['N_B'],1051.5721260629998,1051.5721260629998,1051.5721260629998,1051.5721260629998,1053.6081198979991,1053.6081198979991,1053.6081198979991,1053.6081198979991,1053.6081198979991,1053.6081198979991,1053.6081198979991,1053.6081198979991,1055.6423494259998,1055.6423494259998,1055.6423494259998,1055.6423494259998,,,,,,,,,,,,,,,,,,,,,,,,,,,,,,,,,,,,,,,01,007,2022-09-23_14h40.38.518,test2,2022.2.4,59.946741636027795,
0,0,0,0,164,0,164,0,1055.6423494259998,1055.6423494259998,1055.6423494259998,1055.6423494259998,1055.6423494259998,1055.6423494259998,1055.6423494259998,-1,-1,rojo,0,['N_A'],1057.0445551680004,1057.0445551680004,1057.0445551680004,1057.0445551680004,1059.0799591859995,1059.0799591859995,1059.0799591859995,1059.0799591859995,1059.0799591859995,1059.0799591859995,1059.0799591859995,1059.0799591859995,1061.1155623529994,1061.1155623529994,1061.1155623529994,1061.1155623529994,,,,,,,,,,,,,,,,,,,,,,,,,,,,,,,,,,,,,,,01,007,2022-09-23_14h40.38.518,test2,2022.2.4,59.946741636027795,
0,0,0,0,165,0,165,0,1061.1155623529994,1061.1155623529994,1061.1155623529994,1061.1155623529994,1061.1155623529994,1061.1155623529994,1061.1155623529994,-1,-1,azul,0,['N_B'],1062.5499374669998,1062.5499374669998,1062.5499374669998,1062.5499374669998,1064.5861969019988,1064.5861969019988,1064.5861969019988,1064.5861969019988,1064.5861969019988,1064.5861969019988,1064.5861969019988,1064.5861969019988,1066.6222409500006,1066.6222409500006,1066.6222409500006,1066.6222409500006,,,,,,,,,,,,,,,,,,,,,,,,,,,,,,,,,,,,,,,01,007,2022-09-23_14h40.38.518,test2,2022.2.4,59.946741636027795,
0,0,0,0,166,0,166,0,1066.6222409500006,1066.6222409500006,1066.6222409500006,1066.6222409500006,1066.6222409500006,1066.6222409500006,1066.6222409500006,1,-1,azul,1,['N_B'],1068.1898540389993,1068.1898540389993,1068.1898540389993,1068.1898540389993,1070.2262608330002,1070.2262608330002,1070.2262608330002,1070.2262608330002,1070.2262608330002,1070.2262608330002,1070.2262608330002,1070.2262608330002,1072.261527871,1072.261527871,1072.261527871,1072.261527871,,,,,,,,,,,,,,,,,,,,,,,,,,,,,,,,,,,,,,,01,007,2022-09-23_14h40.38.518,test2,2022.2.4,59.946741636027795,
0,0,0,0,167,0,167,0,1072.261527871,1072.261527871,1072.261527871,1072.261527871,1072.261527871,1072.261527871,1072.261527871,1,-1,azul,1,['N_B'],1074.0631500250001,1074.0631500250001,1074.0631500250001,1074.0631500250001,1076.0992132829997,1076.0992132829997,1076.0992132829997,1076.0992132829997,1076.0992132829997,1076.0992132829997,1076.0992132829997,1076.0992132829997,1078.1347883559993,1078.1347883559993,1078.1347883559993,1078.1347883559993,,,,,,,,,,,,,,,,,,,,,,,,,,,,,,,,,,,,,,,01,007,2022-09-23_14h40.38.518,test2,2022.2.4,59.946741636027795,
0,0,0,0,168,0,168,0,1078.1347883559993,1078.1347883559993,1078.1347883559993,1078.1347883559993,1078.1347883559993,1078.1347883559993,1078.1347883559993,1,-1,azul,0,['N_A'],1079.6859019109997,1079.6859019109997,1079.6859019109997,1079.6859019109997,1081.7222597569998,1081.7222597569998,1081.7222597569998,1081.7222597569998,1081.7222597569998,1081.7222597569998,1081.7222597569998,1081.7222597569998,1083.7575869489992,1083.7575869489992,1083.7575869489992,1083.7575869489992,,,,,,,,,,,,,,,,,,,,,,,,,,,,,,,,,,,,,,,01,007,2022-09-23_14h40.38.518,test2,2022.2.4,59.946741636027795,
0,0,0,0,169,0,169,0,1083.7575869489992,1083.7575869489992,1083.7575869489992,1083.7575869489992,1083.7575869489992,1083.7575869489992,1083.7575869489992,-1,-1,azul,1,['N_A'],1085.9265390719993,1085.9265390719993,1085.9265390719993,1085.9265390719993,1087.9624959199991,1087.9624959199991,1087.9624959199991,1087.9624959199991,1087.9624959199991,1087.9624959199991,1087.9624959199991,1087.9624959199991,1089.9980889460003,1089.9980889460003,1089.9980889460003,1089.9980889460003,,,,,,,,,,,,,,,,,,,,,,,,,,,,,,,,,,,,,,,01,007,2022-09-23_14h40.38.518,test2,2022.2.4,59.946741636027795,
0,0,0,0,170,0,170,0,1089.9980889460003,1089.9980889460003,1089.9980889460003,1089.9980889460003,1089.9980889460003,1089.9980889460003,1089.9980889460003,1,1,rojo,0,['N_B'],1094.519371679,1094.519371679,1094.519371679,1094.519371679,1096.555399895,1096.555399895,1096.555399895,1096.555399895,1096.555399895,1096.555399895,1096.555399895,1096.555399895,1098.5898831310005,1098.5898831310005,1098.5898831310005,1098.5898831310005,,,,,,,,,,,,,,,,,,,,,,,,,,,,,,,,,,,,,,,01,007,2022-09-23_14h40.38.518,test2,2022.2.4,59.946741636027795,
0,0,0,0,171,0,171,0,1098.5898831310005,1098.5898831310005,1098.5898831310005,1098.5898831310005,1098.5898831310005,1098.5898831310005,1098.5898831310005,1,-1,azul,1,['N_B'],1100.1583685080004,1100.1583685080004,1100.1583685080004,1100.1583685080004,1102.1948392039994,1102.1948392039994,1102.1948392039994,1102.1948392039994,1102.1948392039994,1102.1948392039994,1102.1948392039994,1102.1948392039994,1104.2291410059988,1104.2291410059988,1104.2291410059988,1104.2291410059988,,,,,,,,,,,,,,,,,,,,,,,,,,,,,,,,,,,,,,,01,007,2022-09-23_14h40.38.518,test2,2022.2.4,59.946741636027795,
0,0,0,0,172,0,172,0,1104.2291410059988,1104.2291410059988,1104.2291410059988,1104.2291410059988,1104.2291410059988,1104.2291410059988,1104.2291410059988,1,-1,azul,0,['N_A'],1105.9489914339993,1105.9489914339993,1105.9489914339993,1105.9489914339993,1107.984415265999,1107.984415265999,1107.984415265999,1107.984415265999,1107.984415265999,1107.984415265999,1107.984415265999,1107.984415265999,1110.019914745999,1110.019914745999,1110.019914745999,1110.019914745999,,,,,,,,,,,,,,,,,,,,,,,,,,,,,,,,,,,,,,,01,007,2022-09-23_14h40.38.518,test2,2022.2.4,59.946741636027795,
0,0,0,0,173,0,173,0,1110.019914745999,1110.019914745999,1110.019914745999,1110.019914745999,1110.019914745999,1110.019914745999,1110.019914745999,-1,-1,azul,1,['N_A'],1111.755381768,1111.755381768,1111.755381768,1111.755381768,1113.7909382899998,1113.7909382899998,1113.7909382899998,1113.7909382899998,1113.7909382899998,1113.7909382899998,1113.7909382899998,1113.7909382899998,1115.8266401290002,1115.8266401290002,1115.8266401290002,1115.8266401290002,,,,,,,,,,,,,,,,,,,,,,,,,,,,,,,,,,,,,,,01,007,2022-09-23_14h40.38.518,test2,2022.2.4,59.946741636027795,
0,0,0,0,174,0,174,0,1115.8266401290002,1115.8266401290002,1115.8266401290002,1115.8266401290002,1115.8266401290002,1115.8266401290002,1115.8266401290002,1,-1,rojo,0,['N_B'],1117.8795873229992,1117.8795873229992,1117.8795873229992,1117.8795873229992,1119.914909355999,1119.914909355999,1119.914909355999,1119.914909355999,1119.914909355999,1119.914909355999,1119.914909355999,1119.914909355999,1121.9497464739998,1121.9497464739998,1121.9497464739998,1121.9497464739998,,,,,,,,,,,,,,,,,,,,,,,,,,,,,,,,,,,,,,,01,007,2022-09-23_14h40.38.518,test2,2022.2.4,59.946741636027795,
0,0,0,0,175,0,175,0,1121.9497464739998,1121.9497464739998,1121.9497464739998,1121.9497464739998,1121.9497464739998,1121.9497464739998,1121.9497464739998,1,-1,azul,0,['N_A'],1123.8356900130002,1123.8356900130002,1123.8356900130002,1123.8356900130002,1125.8707916059993,1125.8707916059993,1125.8707916059993,1125.8707916059993,1125.8707916059993,1125.8707916059993,1125.8707916059993,1125.8707916059993,1127.9060519350005,1127.9060519350005,1127.9060519350005,1127.9060519350005,,,,,,,,,,,,,,,,,,,,,,,,,,,,,,,,,,,,,,,01,007,2022-09-23_14h40.38.518,test2,2022.2.4,59.946741636027795,
