trials_2.thisRepN,trials_2.thisTrialN,trials_2.thisN,trials_2.thisIndex,trials.thisRepN,trials.thisTrialN,trials.thisN,trials.thisIndex,Instrucción2.started,N_A_4.started,N_B_4.started,Exitos_3.started,Dias_3.started,Stimuli_1.started,Stimuli_2.started,Transitions,Rewards,Mode,Stay,Neighbour,Stimuli_3.started,Modo.started,Dias2.started,Exitos2.started,Stimuli_3.stopped,Modo.stopped,Dias2.stopped,Exitos2.stopped,Reward.started,Stimuli_reward.started,Exitos3.started,Dias3.started,Reward.stopped,Stimuli_reward.stopped,Exitos3.stopped,Dias3.stopped,Cue_text.started,Stimuli_4.started,Exitos4.started,Dias4.started,Stimuli_3_3.started,Stimuli_2_3.started,Instrucción.started,N_A.started,N_B.started,N_C.started,Exitos_2.started,Dias_2.started,Stimuli_1_3.started,Stimuli_3_2.started,Stimuli_2_2.started,Pregunta.started,N_A_2.started,N_B_2.started,N_C_2.started,Exitos5.started,Dias5.started,Stimuli_1_2.started,Resp_final_1,Modo2.started,Modo1.started,Pregunta_4.started,Modo3.started,Exitos7.started,Dias6.started,Resp_final_2,Modo1_2.started,Pregunta_3.started,Modo2_2.started,Exitos8.started,Dias7.started,Resp_final_3,Mensaje_Final2.started,Exitos6.started,participant,session,date,expName,psychopyVersion,frameRate,
0,0,0,0,0,0,0,0,397.48478734699984,397.48478734699984,397.48478734699984,397.48478734699984,397.48478734699984,397.48478734699984,397.48478734699984,0,0,0,0,['N_B'],409.6138973699999,409.6138973699999,409.6138973699999,409.6138973699999,411.64913727100065,411.64913727100065,411.64913727100065,411.64913727100065,411.64913727100065,411.64913727100065,411.64913727100065,411.64913727100065,413.68492131899984,413.68492131899984,413.68492131899984,413.68492131899984,,,,,,,,,,,,,,,,,,,,,,,,,,,,,,,,,,,,,,,01,006,2022-09-23_11h44.52.649,test2,2022.2.4,59.98379669701972,
0,0,0,0,1,0,1,0,413.68492131899984,413.68492131899984,413.68492131899984,413.68492131899984,413.68492131899984,413.68492131899984,413.68492131899984,1,1,azul,1,['N_B'],435.1254105120006,435.1254105120006,435.1254105120006,435.1254105120006,437.1444862799999,437.1444862799999,437.1444862799999,437.1444862799999,437.1444862799999,437.1444862799999,437.1444862799999,437.1444862799999,439.179897082,439.179897082,439.179897082,439.179897082,,,,,,,,,,,,,,,,,,,,,,,,,,,,,,,,,,,,,,,01,006,2022-09-23_11h44.52.649,test2,2022.2.4,59.98379669701972,
0,0,0,0,2,0,2,0,439.179897082,439.179897082,439.179897082,439.179897082,439.179897082,439.179897082,439.179897082,-1,1,rojo,1,['N_B'],462.539779191,462.539779191,462.539779191,462.539779191,464.5755633810004,464.5755633810004,464.5755633810004,464.5755633810004,464.5755633810004,464.5755633810004,464.5755633810004,464.5755633810004,466.61083216299994,466.61083216299994,466.61083216299994,466.61083216299994,,,,,,,,,,,,,,,,,,,,,,,,,,,,,,,,,,,,,,,01,006,2022-09-23_11h44.52.649,test2,2022.2.4,59.98379669701972,
0,0,0,0,3,0,3,0,466.61083216299994,466.61083216299994,466.61083216299994,466.61083216299994,466.61083216299994,466.61083216299994,466.61083216299994,1,-1,azul,0,['N_A'],477.4728801680003,477.4728801680003,477.4728801680003,477.4728801680003,479.5078655520001,479.5078655520001,479.5078655520001,479.5078655520001,479.5078655520001,479.5078655520001,479.5078655520001,479.5078655520001,481.5437778260002,481.5437778260002,481.5437778260002,481.5437778260002,,,,,,,,,,,,,,,,,,,,,,,,,,,,,,,,,,,,,,,01,006,2022-09-23_11h44.52.649,test2,2022.2.4,59.98379669701972,
0,0,0,0,4,0,4,0,481.5437778260002,481.5437778260002,481.5437778260002,481.5437778260002,481.5437778260002,481.5437778260002,481.5437778260002,1,-1,rojo,0,['N_B'],505.252708082,505.252708082,505.252708082,505.252708082,507.2887998410006,507.2887998410006,507.2887998410006,507.2887998410006,507.2887998410006,507.2887998410006,507.2887998410006,507.2887998410006,509.3247299650002,509.3247299650002,509.3247299650002,509.3247299650002,,,,,,,,,,,,,,,,,,,,,,,,,,,,,,,,,,,,,,,01,006,2022-09-23_11h44.52.649,test2,2022.2.4,59.98379669701972,
0,0,0,0,5,0,5,0,509.3247299650002,509.3247299650002,509.3247299650002,509.3247299650002,509.3247299650002,509.3247299650002,509.3247299650002,1,-1,azul,1,['N_B'],541.67530953,541.67530953,541.67530953,541.67530953,543.7116865730004,543.7116865730004,543.7116865730004,543.7116865730004,543.7116865730004,543.7116865730004,543.7116865730004,543.7116865730004,545.7479348390007,545.7479348390007,545.7479348390007,545.7479348390007,,,,,,,,,,,,,,,,,,,,,,,,,,,,,,,,,,,,,,,01,006,2022-09-23_11h44.52.649,test2,2022.2.4,59.98379669701972,
0,0,0,0,6,0,6,0,545.7479348390007,545.7479348390007,545.7479348390007,545.7479348390007,545.7479348390007,545.7479348390007,545.7479348390007,-1,1,rojo,0,['N_A'],574.0457046900001,574.0457046900001,574.0457046900001,574.0457046900001,576.08109504,576.08109504,576.08109504,576.08109504,576.08109504,576.08109504,576.08109504,576.08109504,578.1164169510002,578.1164169510002,578.1164169510002,578.1164169510002,,,,,,,,,,,,,,,,,,,,,,,,,,,,,,,,,,,,,,,01,006,2022-09-23_11h44.52.649,test2,2022.2.4,59.98379669701972,
0,0,0,0,7,0,7,0,578.1164169510002,578.1164169510002,578.1164169510002,578.1164169510002,578.1164169510002,578.1164169510002,578.1164169510002,1,-1,rojo,1,['N_A'],598.889751185,598.889751185,598.889751185,598.889751185,600.9257042160007,600.9257042160007,600.9257042160007,600.9257042160007,600.9257042160007,600.9257042160007,600.9257042160007,600.9257042160007,602.9611304290001,602.9611304290001,602.9611304290001,602.9611304290001,,,,,,,,,,,,,,,,,,,,,,,,,,,,,,,,,,,,,,,01,006,2022-09-23_11h44.52.649,test2,2022.2.4,59.98379669701972,
0,0,0,0,8,0,8,0,602.9611304290001,602.9611304290001,602.9611304290001,602.9611304290001,602.9611304290001,602.9611304290001,602.9611304290001,1,-1,rojo,0,['N_B'],628.339012427,628.339012427,628.339012427,628.339012427,630.3748571040005,630.3748571040005,630.3748571040005,630.3748571040005,630.3748571040005,630.3748571040005,630.3748571040005,630.3748571040005,632.409670469,632.409670469,632.409670469,632.409670469,,,,,,,,,,,,,,,,,,,,,,,,,,,,,,,,,,,,,,,01,006,2022-09-23_11h44.52.649,test2,2022.2.4,59.98379669701972,
0,0,0,0,9,0,9,0,632.409670469,632.409670469,632.409670469,632.409670469,632.409670469,632.409670469,632.409670469,-1,-1,rojo,0,['N_A'],639.2336594120006,639.2336594120006,639.2336594120006,639.2336594120006,641.2698115170006,641.2698115170006,641.2698115170006,641.2698115170006,641.2698115170006,641.2698115170006,641.2698115170006,641.2698115170006,643.3054505990003,643.3054505990003,643.3054505990003,643.3054505990003,,,,,,,,,,,,,,,,,,,,,,,,,,,,,,,,,,,,,,,01,006,2022-09-23_11h44.52.649,test2,2022.2.4,59.98379669701972,
0,0,0,0,10,0,10,0,643.3054505990003,643.3054505990003,643.3054505990003,643.3054505990003,643.3054505990003,643.3054505990003,643.3054505990003,1,-1,rojo,0,['N_B'],660.6406742650006,660.6406742650006,660.6406742650006,660.6406742650006,662.6765069849998,662.6765069849998,662.6765069849998,662.6765069849998,662.6765069849998,662.6765069849998,662.6765069849998,662.6765069849998,664.712559093,664.712559093,664.712559093,664.712559093,,,,,,,,,,,,,,,,,,,,,,,,,,,,,,,,,,,,,,,01,006,2022-09-23_11h44.52.649,test2,2022.2.4,59.98379669701972,
0,0,0,0,11,0,11,0,664.712559093,664.712559093,664.712559093,664.712559093,664.712559093,664.712559093,664.712559093,1,-1,azul,1,['N_B'],677.92663404,677.92663404,677.92663404,677.92663404,679.9628745400005,679.9628745400005,679.9628745400005,679.9628745400005,679.9628745400005,679.9628745400005,679.9628745400005,679.9628745400005,681.9980025780005,681.9980025780005,681.9980025780005,681.9980025780005,,,,,,,,,,,,,,,,,,,,,,,,,,,,,,,,,,,,,,,01,006,2022-09-23_11h44.52.649,test2,2022.2.4,59.98379669701972,
0,0,0,0,12,0,12,0,681.9980025780005,681.9980025780005,681.9980025780005,681.9980025780005,681.9980025780005,681.9980025780005,681.9980025780005,1,-1,azul,0,['N_A'],694.0112464060003,694.0112464060003,694.0112464060003,694.0112464060003,696.0465688130007,696.0465688130007,696.0465688130007,696.0465688130007,696.0465688130007,696.0465688130007,696.0465688130007,696.0465688130007,698.0828534100001,698.0828534100001,698.0828534100001,698.0828534100001,,,,,,,,,,,,,,,,,,,,,,,,,,,,,,,,,,,,,,,01,006,2022-09-23_11h44.52.649,test2,2022.2.4,59.98379669701972,
0,0,0,0,13,0,13,0,698.0828534100001,698.0828534100001,698.0828534100001,698.0828534100001,698.0828534100001,698.0828534100001,698.0828534100001,1,-1,rojo,1,['N_A'],705.357347313,705.357347313,705.357347313,705.357347313,707.3929920190003,707.3929920190003,707.3929920190003,707.3929920190003,707.3929920190003,707.3929920190003,707.3929920190003,707.3929920190003,709.4282135980002,709.4282135980002,709.4282135980002,709.4282135980002,,,,,,,,,,,,,,,,,,,,,,,,,,,,,,,,,,,,,,,01,006,2022-09-23_11h44.52.649,test2,2022.2.4,59.98379669701972,
0,0,0,0,14,0,14,0,709.4282135980002,709.4282135980002,709.4282135980002,709.4282135980002,709.4282135980002,709.4282135980002,709.4282135980002,1,1,rojo,0,['N_B'],726.2637570610004,726.2637570610004,726.2637570610004,726.2637570610004,728.2815807240004,728.2815807240004,728.2815807240004,728.2815807240004,728.2815807240004,728.2815807240004,728.2815807240004,728.2815807240004,730.3178263959999,730.3178263959999,730.3178263959999,730.3178263959999,,,,,,,,,,,,,,,,,,,,,,,,,,,,,,,,,,,,,,,01,006,2022-09-23_11h44.52.649,test2,2022.2.4,59.98379669701972,
0,0,0,0,15,0,15,0,730.3178263959999,730.3178263959999,730.3178263959999,730.3178263959999,730.3178263959999,730.3178263959999,730.3178263959999,1,1,azul,1,['N_B'],744.1167361560001,744.1167361560001,744.1167361560001,744.1167361560001,746.1349349040001,746.1349349040001,746.1349349040001,746.1349349040001,746.1349349040001,746.1349349040001,746.1349349040001,746.1349349040001,748.1715205290002,748.1715205290002,748.1715205290002,748.1715205290002,,,,,,,,,,,,,,,,,,,,,,,,,,,,,,,,,,,,,,,01,006,2022-09-23_11h44.52.649,test2,2022.2.4,59.98379669701972,
0,0,0,0,16,0,16,0,748.1715205290002,748.1715205290002,748.1715205290002,748.1715205290002,748.1715205290002,748.1715205290002,748.1715205290002,-1,1,rojo,0,['N_A'],757.2311318760003,757.2311318760003,757.2311318760003,757.2311318760003,759.2494809110003,759.2494809110003,759.2494809110003,759.2494809110003,759.2494809110003,759.2494809110003,759.2494809110003,759.2494809110003,761.2855903210002,761.2855903210002,761.2855903210002,761.2855903210002,,,,,,,,,,,,,,,,,,,,,,,,,,,,,,,,,,,,,,,01,006,2022-09-23_11h44.52.649,test2,2022.2.4,59.98379669701972,
0,0,0,0,17,0,17,0,761.2855903210002,761.2855903210002,761.2855903210002,761.2855903210002,761.2855903210002,761.2855903210002,761.2855903210002,1,1,rojo,0,['N_B'],768.2430134390006,768.2430134390006,768.2430134390006,768.2430134390006,770.2784339610007,770.2784339610007,770.2784339610007,770.2784339610007,770.2784339610007,770.2784339610007,770.2784339610007,770.2784339610007,772.3144278440004,772.3144278440004,772.3144278440004,772.3144278440004,,,,,,,,,,,,,,,,,,,,,,,,,,,,,,,,,,,,,,,01,006,2022-09-23_11h44.52.649,test2,2022.2.4,59.98379669701972,
0,0,0,0,18,0,18,0,772.3144278440004,772.3144278440004,772.3144278440004,772.3144278440004,772.3144278440004,772.3144278440004,772.3144278440004,1,-1,azul,0,['N_A'],776.4690949690003,776.4690949690003,776.4690949690003,776.4690949690003,778.5044471000001,778.5044471000001,778.5044471000001,778.5044471000001,778.5044471000001,778.5044471000001,778.5044471000001,778.5044471000001,780.5398741600002,780.5398741600002,780.5398741600002,780.5398741600002,,,,,,,,,,,,,,,,,,,,,,,,,,,,,,,,,,,,,,,01,006,2022-09-23_11h44.52.649,test2,2022.2.4,59.98379669701972,
0,0,0,0,19,0,19,0,780.5398741600002,780.5398741600002,780.5398741600002,780.5398741600002,780.5398741600002,780.5398741600002,780.5398741600002,1,-1,rojo,0,['N_B'],786.2462422160006,786.2462422160006,786.2462422160006,786.2462422160006,788.2820862930002,788.2820862930002,788.2820862930002,788.2820862930002,788.2820862930002,788.2820862930002,788.2820862930002,788.2820862930002,790.3178524300001,790.3178524300001,790.3178524300001,790.3178524300001,,,,,,,,,,,,,,,,,,,,,,,,,,,,,,,,,,,,,,,01,006,2022-09-23_11h44.52.649,test2,2022.2.4,59.98379669701972,
0,0,0,0,20,0,20,0,790.3178524300001,790.3178524300001,790.3178524300001,790.3178524300001,790.3178524300001,790.3178524300001,790.3178524300001,-1,-1,rojo,1,['N_B'],796.3747179580005,796.3747179580005,796.3747179580005,796.3747179580005,798.4099303270004,798.4099303270004,798.4099303270004,798.4099303270004,798.4099303270004,798.4099303270004,798.4099303270004,798.4099303270004,800.4458963710003,800.4458963710003,800.4458963710003,800.4458963710003,,,,,,,,,,,,,,,,,,,,,,,,,,,,,,,,,,,,,,,01,006,2022-09-23_11h44.52.649,test2,2022.2.4,59.98379669701972,
0,0,0,0,21,0,21,0,800.4458963710003,800.4458963710003,800.4458963710003,800.4458963710003,800.4458963710003,800.4458963710003,800.4458963710003,1,-1,azul,0,['N_A'],803.2649697140005,803.2649697140005,803.2649697140005,803.2649697140005,805.3009896760004,805.3009896760004,805.3009896760004,805.3009896760004,805.3009896760004,805.3009896760004,805.3009896760004,805.3009896760004,807.3358709760005,807.3358709760005,807.3358709760005,807.3358709760005,,,,,,,,,,,,,,,,,,,,,,,,,,,,,,,,,,,,,,,01,006,2022-09-23_11h44.52.649,test2,2022.2.4,59.98379669701972,
0,0,0,0,22,0,22,0,807.3358709760005,807.3358709760005,807.3358709760005,807.3358709760005,807.3358709760005,807.3358709760005,807.3358709760005,1,-1,rojo,1,['N_A'],827.642457852,827.642457852,827.642457852,827.642457852,829.6781805580003,829.6781805580003,829.6781805580003,829.6781805580003,829.6781805580003,829.6781805580003,829.6781805580003,829.6781805580003,831.713161787,831.713161787,831.713161787,831.713161787,,,,,,,,,,,,,,,,,,,,,,,,,,,,,,,,,,,,,,,01,006,2022-09-23_11h44.52.649,test2,2022.2.4,59.98379669701972,
0,0,0,0,23,0,23,0,831.713161787,831.713161787,831.713161787,831.713161787,831.713161787,831.713161787,831.713161787,1,-1,rojo,0,['N_B'],834.2657450240004,834.2657450240004,834.2657450240004,834.2657450240004,836.3015774989999,836.3015774989999,836.3015774989999,836.3015774989999,836.3015774989999,836.3015774989999,836.3015774989999,836.3015774989999,838.3374060420001,838.3374060420001,838.3374060420001,838.3374060420001,,,,,,,,,,,,,,,,,,,,,,,,,,,,,,,,,,,,,,,01,006,2022-09-23_11h44.52.649,test2,2022.2.4,59.98379669701972,
0,0,0,0,24,0,24,0,838.3374060420001,838.3374060420001,838.3374060420001,838.3374060420001,838.3374060420001,838.3374060420001,838.3374060420001,1,-1,azul,1,['N_B'],847.4637790160004,847.4637790160004,847.4637790160004,847.4637790160004,849.4988337740006,849.4988337740006,849.4988337740006,849.4988337740006,849.4988337740006,849.4988337740006,849.4988337740006,849.4988337740006,851.5346437150001,851.5346437150001,851.5346437150001,851.5346437150001,,,,,,,,,,,,,,,,,,,,,,,,,,,,,,,,,,,,,,,01,006,2022-09-23_11h44.52.649,test2,2022.2.4,59.98379669701972,
0,0,0,0,25,0,25,0,851.5346437150001,851.5346437150001,851.5346437150001,851.5346437150001,851.5346437150001,851.5346437150001,851.5346437150001,1,1,azul,1,['N_B'],854.488423455,854.488423455,854.488423455,854.488423455,856.5243770040006,856.5243770040006,856.5243770040006,856.5243770040006,856.5243770040006,856.5243770040006,856.5243770040006,856.5243770040006,858.5590806690007,858.5590806690007,858.5590806690007,858.5590806690007,,,,,,,,,,,,,,,,,,,,,,,,,,,,,,,,,,,,,,,01,006,2022-09-23_11h44.52.649,test2,2022.2.4,59.98379669701972,
0,0,0,0,26,0,26,0,858.5590806690007,858.5590806690007,858.5590806690007,858.5590806690007,858.5590806690007,858.5590806690007,858.5590806690007,1,-1,azul,0,['N_A'],870.9232647440003,870.9232647440003,870.9232647440003,870.9232647440003,872.9586216329999,872.9586216329999,872.9586216329999,872.9586216329999,872.9586216329999,872.9586216329999,872.9586216329999,872.9586216329999,874.9948738200001,874.9948738200001,874.9948738200001,874.9948738200001,,,,,,,,,,,,,,,,,,,,,,,,,,,,,,,,,,,,,,,01,006,2022-09-23_11h44.52.649,test2,2022.2.4,59.98379669701972,
0,0,0,0,27,0,27,0,874.9948738200001,874.9948738200001,874.9948738200001,874.9948738200001,874.9948738200001,874.9948738200001,874.9948738200001,-1,-1,azul,0,['N_B'],876.9965748539998,876.9965748539998,876.9965748539998,876.9965748539998,879.032643478,879.032643478,879.032643478,879.032643478,879.032643478,879.032643478,879.032643478,879.032643478,881.0680117920001,881.0680117920001,881.0680117920001,881.0680117920001,,,,,,,,,,,,,,,,,,,,,,,,,,,,,,,,,,,,,,,01,006,2022-09-23_11h44.52.649,test2,2022.2.4,59.98379669701972,
0,0,0,0,28,0,28,0,881.0680117920001,881.0680117920001,881.0680117920001,881.0680117920001,881.0680117920001,881.0680117920001,881.0680117920001,-1,-1,rojo,0,['N_A'],891.962488573,891.962488573,891.962488573,891.962488573,893.9990887690001,893.9990887690001,893.9990887690001,893.9990887690001,893.9990887690001,893.9990887690001,893.9990887690001,893.9990887690001,896.0336923620007,896.0336923620007,896.0336923620007,896.0336923620007,,,,,,,,,,,,,,,,,,,,,,,,,,,,,,,,,,,,,,,01,006,2022-09-23_11h44.52.649,test2,2022.2.4,59.98379669701972,
0,0,0,0,29,0,29,0,896.0336923620007,896.0336923620007,896.0336923620007,896.0336923620007,896.0336923620007,896.0336923620007,896.0336923620007,-1,-1,azul,0,['N_B'],902.4248530290006,902.4248530290006,902.4248530290006,902.4248530290006,904.4600789330007,904.4600789330007,904.4600789330007,904.4600789330007,904.4600789330007,904.4600789330007,904.4600789330007,904.4600789330007,906.4962088709999,906.4962088709999,906.4962088709999,906.4962088709999,,,,,,,,,,,,,,,,,,,,,,,,,,,,,,,,,,,,,,,01,006,2022-09-23_11h44.52.649,test2,2022.2.4,59.98379669701972,
0,0,0,0,30,0,30,0,906.4962088709999,906.4962088709999,906.4962088709999,906.4962088709999,906.4962088709999,906.4962088709999,906.4962088709999,1,1,azul,0,['N_A'],911.5345123520001,911.5345123520001,911.5345123520001,911.5345123520001,913.5703276849999,913.5703276849999,913.5703276849999,913.5703276849999,913.5703276849999,913.5703276849999,913.5703276849999,913.5703276849999,915.6062097120002,915.6062097120002,915.6062097120002,915.6062097120002,,,,,,,,,,,,,,,,,,,,,,,,,,,,,,,,,,,,,,,01,006,2022-09-23_11h44.52.649,test2,2022.2.4,59.98379669701972,
0,0,0,0,31,0,31,0,915.6062097120002,915.6062097120002,915.6062097120002,915.6062097120002,915.6062097120002,915.6062097120002,915.6062097120002,-1,-1,azul,0,['N_B'],923.5977207530004,923.5977207530004,923.5977207530004,923.5977207530004,925.6338553610003,925.6338553610003,925.6338553610003,925.6338553610003,925.6338553610003,925.6338553610003,925.6338553610003,925.6338553610003,927.6691915990004,927.6691915990004,927.6691915990004,927.6691915990004,,,,,,,,,,,,,,,,,,,,,,,,,,,,,,,,,,,,,,,01,006,2022-09-23_11h44.52.649,test2,2022.2.4,59.98379669701972,
0,0,0,0,32,0,32,0,927.6691915990004,927.6691915990004,927.6691915990004,927.6691915990004,927.6691915990004,927.6691915990004,927.6691915990004,1,-1,azul,1,['N_B'],946.2731752310001,946.2731752310001,946.2731752310001,946.2731752310001,948.3089821330004,948.3089821330004,948.3089821330004,948.3089821330004,948.3089821330004,948.3089821330004,948.3089821330004,948.3089821330004,950.3440240990003,950.3440240990003,950.3440240990003,950.3440240990003,,,,,,,,,,,,,,,,,,,,,,,,,,,,,,,,,,,,,,,01,006,2022-09-23_11h44.52.649,test2,2022.2.4,59.98379669701972,
0,0,0,0,33,0,33,0,950.3440240990003,950.3440240990003,950.3440240990003,950.3440240990003,950.3440240990003,950.3440240990003,950.3440240990003,-1,-1,rojo,0,['N_A'],954.34819668,954.34819668,954.34819668,954.34819668,956.3839179719998,956.3839179719998,956.3839179719998,956.3839179719998,956.3839179719998,956.3839179719998,956.3839179719998,956.3839179719998,958.4197627060003,958.4197627060003,958.4197627060003,958.4197627060003,,,,,,,,,,,,,,,,,,,,,,,,,,,,,,,,,,,,,,,01,006,2022-09-23_11h44.52.649,test2,2022.2.4,59.98379669701972,
0,0,0,0,34,0,34,0,958.4197627060003,958.4197627060003,958.4197627060003,958.4197627060003,958.4197627060003,958.4197627060003,958.4197627060003,-1,-1,azul,1,['N_A'],972.1848860119999,972.1848860119999,972.1848860119999,972.1848860119999,974.2208750489999,974.2208750489999,974.2208750489999,974.2208750489999,974.2208750489999,974.2208750489999,974.2208750489999,974.2208750489999,976.2555116670001,976.2555116670001,976.2555116670001,976.2555116670001,,,,,,,,,,,,,,,,,,,,,,,,,,,,,,,,,,,,,,,01,006,2022-09-23_11h44.52.649,test2,2022.2.4,59.98379669701972,
0,0,0,0,35,0,35,0,976.2555116670001,976.2555116670001,976.2555116670001,976.2555116670001,976.2555116670001,976.2555116670001,976.2555116670001,1,1,rojo,0,['N_B'],983.113902993,983.113902993,983.113902993,983.113902993,985.1488776040005,985.1488776040005,985.1488776040005,985.1488776040005,985.1488776040005,985.1488776040005,985.1488776040005,985.1488776040005,987.184938335,987.184938335,987.184938335,987.184938335,,,,,,,,,,,,,,,,,,,,,,,,,,,,,,,,,,,,,,,01,006,2022-09-23_11h44.52.649,test2,2022.2.4,59.98379669701972,
0,0,0,0,36,0,36,0,987.184938335,987.184938335,987.184938335,987.184938335,987.184938335,987.184938335,987.184938335,1,-1,azul,1,['N_B'],989.5707577040002,989.5707577040002,989.5707577040002,989.5707577040002,991.6065091620003,991.6065091620003,991.6065091620003,991.6065091620003,991.6065091620003,991.6065091620003,991.6065091620003,991.6065091620003,993.6416620660002,993.6416620660002,993.6416620660002,993.6416620660002,,,,,,,,,,,,,,,,,,,,,,,,,,,,,,,,,,,,,,,01,006,2022-09-23_11h44.52.649,test2,2022.2.4,59.98379669701972,
0,0,0,0,37,0,37,0,993.6416620660002,993.6416620660002,993.6416620660002,993.6416620660002,993.6416620660002,993.6416620660002,993.6416620660002,1,-1,azul,0,['N_A'],1000.1663554790002,1000.1663554790002,1000.1663554790002,1000.1663554790002,1002.201017462,1002.201017462,1002.201017462,1002.201017462,1002.201017462,1002.201017462,1002.201017462,1002.201017462,1004.2372594440003,1004.2372594440003,1004.2372594440003,1004.2372594440003,,,,,,,,,,,,,,,,,,,,,,,,,,,,,,,,,,,,,,,01,006,2022-09-23_11h44.52.649,test2,2022.2.4,59.98379669701972,
0,0,0,0,38,0,38,0,1004.2372594440003,1004.2372594440003,1004.2372594440003,1004.2372594440003,1004.2372594440003,1004.2372594440003,1004.2372594440003,-1,1,azul,1,['N_A'],1009.5599608550001,1009.5599608550001,1009.5599608550001,1009.5599608550001,1011.5790780670004,1011.5790780670004,1011.5790780670004,1011.5790780670004,1011.5790780670004,1011.5790780670004,1011.5790780670004,1011.5790780670004,1013.6141002109998,1013.6141002109998,1013.6141002109998,1013.6141002109998,,,,,,,,,,,,,,,,,,,,,,,,,,,,,,,,,,,,,,,01,006,2022-09-23_11h44.52.649,test2,2022.2.4,59.98379669701972,
0,0,0,0,39,0,39,0,1013.6141002109998,1013.6141002109998,1013.6141002109998,1013.6141002109998,1013.6141002109998,1013.6141002109998,1013.6141002109998,-1,1,azul,1,['N_A'],1029.848208718,1029.848208718,1029.848208718,1029.848208718,1031.88440076,1031.88440076,1031.88440076,1031.88440076,1031.88440076,1031.88440076,1031.88440076,1031.88440076,1033.920128785,1033.920128785,1033.920128785,1033.920128785,,,,,,,,,,,,,,,,,,,,,,,,,,,,,,,,,,,,,,,01,006,2022-09-23_11h44.52.649,test2,2022.2.4,59.98379669701972,
0,0,0,0,40,0,40,0,1033.920128785,1033.920128785,1033.920128785,1033.920128785,1033.920128785,1033.920128785,1033.920128785,1,-1,rojo,0,['N_B'],1038.1077718300003,1038.1077718300003,1038.1077718300003,1038.1077718300003,1040.1428418350006,1040.1428418350006,1040.1428418350006,1040.1428418350006,1040.1428418350006,1040.1428418350006,1040.1428418350006,1040.1428418350006,1042.1783840730004,1042.1783840730004,1042.1783840730004,1042.1783840730004,,,,,,,,,,,,,,,,,,,,,,,,,,,,,,,,,,,,,,,01,006,2022-09-23_11h44.52.649,test2,2022.2.4,59.98379669701972,
0,0,0,0,41,0,41,0,1042.1783840730004,1042.1783840730004,1042.1783840730004,1042.1783840730004,1042.1783840730004,1042.1783840730004,1042.1783840730004,-1,1,rojo,1,['N_B'],1046.6335609950002,1046.6335609950002,1046.6335609950002,1046.6335609950002,1048.6691538960004,1048.6691538960004,1048.6691538960004,1048.6691538960004,1048.6691538960004,1048.6691538960004,1048.6691538960004,1048.6691538960004,1050.7044108159998,1050.7044108159998,1050.7044108159998,1050.7044108159998,,,,,,,,,,,,,,,,,,,,,,,,,,,,,,,,,,,,,,,01,006,2022-09-23_11h44.52.649,test2,2022.2.4,59.98379669701972,
0,0,0,0,42,0,42,0,1050.7044108159998,1050.7044108159998,1050.7044108159998,1050.7044108159998,1050.7044108159998,1050.7044108159998,1050.7044108159998,1,-1,azul,0,['N_A'],1055.192813013,1055.192813013,1055.192813013,1055.192813013,1057.228558455,1057.228558455,1057.228558455,1057.228558455,1057.228558455,1057.228558455,1057.228558455,1057.228558455,1059.2648083069998,1059.2648083069998,1059.2648083069998,1059.2648083069998,,,,,,,,,,,,,,,,,,,,,,,,,,,,,,,,,,,,,,,01,006,2022-09-23_11h44.52.649,test2,2022.2.4,59.98379669701972,
0,0,0,0,43,0,43,0,1059.2648083069998,1059.2648083069998,1059.2648083069998,1059.2648083069998,1059.2648083069998,1059.2648083069998,1059.2648083069998,1,-1,rojo,1,['N_A'],1063.8522996410002,1063.8522996410002,1063.8522996410002,1063.8522996410002,1065.8884680680003,1065.8884680680003,1065.8884680680003,1065.8884680680003,1065.8884680680003,1065.8884680680003,1065.8884680680003,1065.8884680680003,1067.9235002370006,1067.9235002370006,1067.9235002370006,1067.9235002370006,,,,,,,,,,,,,,,,,,,,,,,,,,,,,,,,,,,,,,,01,006,2022-09-23_11h44.52.649,test2,2022.2.4,59.98379669701972,
0,0,0,0,44,0,44,0,1067.9235002370006,1067.9235002370006,1067.9235002370006,1067.9235002370006,1067.9235002370006,1067.9235002370006,1067.9235002370006,1,-1,rojo,0,['N_B'],1070.1091672060002,1070.1091672060002,1070.1091672060002,1070.1091672060002,1072.1451972900004,1072.1451972900004,1072.1451972900004,1072.1451972900004,1072.1451972900004,1072.1451972900004,1072.1451972900004,1072.1451972900004,1074.1803637700004,1074.1803637700004,1074.1803637700004,1074.1803637700004,,,,,,,,,,,,,,,,,,,,,,,,,,,,,,,,,,,,,,,01,006,2022-09-23_11h44.52.649,test2,2022.2.4,59.98379669701972,
0,0,0,0,45,0,45,0,1074.1803637700004,1074.1803637700004,1074.1803637700004,1074.1803637700004,1074.1803637700004,1074.1803637700004,1074.1803637700004,1,1,azul,1,['N_B'],1085.1099091470005,1085.1099091470005,1085.1099091470005,1085.1099091470005,1087.1287938900005,1087.1287938900005,1087.1287938900005,1087.1287938900005,1087.1287938900005,1087.1287938900005,1087.1287938900005,1087.1287938900005,1089.1637960580001,1089.1637960580001,1089.1637960580001,1089.1637960580001,,,,,,,,,,,,,,,,,,,,,,,,,,,,,,,,,,,,,,,01,006,2022-09-23_11h44.52.649,test2,2022.2.4,59.98379669701972,
0,0,0,0,46,0,46,0,1089.1637960580001,1089.1637960580001,1089.1637960580001,1089.1637960580001,1089.1637960580001,1089.1637960580001,1089.1637960580001,-1,1,rojo,1,['N_B'],1093.017660079,1093.017660079,1093.017660079,1093.017660079,1095.0541855740003,1095.0541855740003,1095.0541855740003,1095.0541855740003,1095.0541855740003,1095.0541855740003,1095.0541855740003,1095.0541855740003,1097.089055345,1097.089055345,1097.089055345,1097.089055345,,,,,,,,,,,,,,,,,,,,,,,,,,,,,,,,,,,,,,,01,006,2022-09-23_11h44.52.649,test2,2022.2.4,59.98379669701972,
0,0,0,0,47,0,47,0,1097.089055345,1097.089055345,1097.089055345,1097.089055345,1097.089055345,1097.089055345,1097.089055345,1,-1,azul,0,['N_A'],1101.3440271529998,1101.3440271529998,1101.3440271529998,1101.3440271529998,1103.3802406949999,1103.3802406949999,1103.3802406949999,1103.3802406949999,1103.3802406949999,1103.3802406949999,1103.3802406949999,1103.3802406949999,1105.4152230560003,1105.4152230560003,1105.4152230560003,1105.4152230560003,,,,,,,,,,,,,,,,,,,,,,,,,,,,,,,,,,,,,,,01,006,2022-09-23_11h44.52.649,test2,2022.2.4,59.98379669701972,
0,0,0,0,48,0,48,0,1105.4152230560003,1105.4152230560003,1105.4152230560003,1105.4152230560003,1105.4152230560003,1105.4152230560003,1105.4152230560003,1,1,rojo,1,['N_A'],1113.174311621,1113.174311621,1113.174311621,1113.174311621,1115.1933098540003,1115.1933098540003,1115.1933098540003,1115.1933098540003,1115.1933098540003,1115.1933098540003,1115.1933098540003,1115.1933098540003,1117.227773689,1117.227773689,1117.227773689,1117.227773689,,,,,,,,,,,,,,,,,,,,,,,,,,,,,,,,,,,,,,,01,006,2022-09-23_11h44.52.649,test2,2022.2.4,59.98379669701972,
0,0,0,0,49,0,49,0,1117.227773689,1117.227773689,1117.227773689,1117.227773689,1117.227773689,1117.227773689,1117.227773689,1,1,rojo,1,['N_A'],1119.781379307,1119.781379307,1119.781379307,1119.781379307,1121.8000978420005,1121.8000978420005,1121.8000978420005,1121.8000978420005,1121.8000978420005,1121.8000978420005,1121.8000978420005,1121.8000978420005,1123.8351202840004,1123.8351202840004,1123.8351202840004,1123.8351202840004,,,,,,,,,,,,,,,,,,,,,,,,,,,,,,,,,,,,,,,01,006,2022-09-23_11h44.52.649,test2,2022.2.4,59.98379669701972,
0,0,0,0,50,0,50,0,1123.8351202840004,1123.8351202840004,1123.8351202840004,1123.8351202840004,1123.8351202840004,1123.8351202840004,1123.8351202840004,1,1,rojo,1,['N_A'],1127.3228047080001,1127.3228047080001,1127.3228047080001,1127.3228047080001,1129.3421949040003,1129.3421949040003,1129.3421949040003,1129.3421949040003,1129.3421949040003,1129.3421949040003,1129.3421949040003,1129.3421949040003,1131.3766692489999,1131.3766692489999,1131.3766692489999,1131.3766692489999,,,,,,,,,,,,,,,,,,,,,,,,,,,,,,,,,,,,,,,01,006,2022-09-23_11h44.52.649,test2,2022.2.4,59.98379669701972,
0,0,0,0,51,0,51,0,1131.3766692489999,1131.3766692489999,1131.3766692489999,1131.3766692489999,1131.3766692489999,1131.3766692489999,1131.3766692489999,1,1,rojo,1,['N_A'],1137.0670322630003,1137.0670322630003,1137.0670322630003,1137.0670322630003,1139.0854019019998,1139.0854019019998,1139.0854019019998,1139.0854019019998,1139.0854019019998,1139.0854019019998,1139.0854019019998,1139.0854019019998,1141.1207664140002,1141.1207664140002,1141.1207664140002,1141.1207664140002,,,,,,,,,,,,,,,,,,,,,,,,,,,,,,,,,,,,,,,01,006,2022-09-23_11h44.52.649,test2,2022.2.4,59.98379669701972,
0,0,0,0,52,0,52,0,1141.1207664140002,1141.1207664140002,1141.1207664140002,1141.1207664140002,1141.1207664140002,1141.1207664140002,1141.1207664140002,1,1,rojo,1,['N_A'],1144.0743488570006,1144.0743488570006,1144.0743488570006,1144.0743488570006,1146.093414203,1146.093414203,1146.093414203,1146.093414203,1146.093414203,1146.093414203,1146.093414203,1146.093414203,1148.1286536260004,1148.1286536260004,1148.1286536260004,1148.1286536260004,,,,,,,,,,,,,,,,,,,,,,,,,,,,,,,,,,,,,,,01,006,2022-09-23_11h44.52.649,test2,2022.2.4,59.98379669701972,
0,0,0,0,53,0,53,0,1148.1286536260004,1148.1286536260004,1148.1286536260004,1148.1286536260004,1148.1286536260004,1148.1286536260004,1148.1286536260004,-1,1,azul,1,['N_A'],1151.649249262,1151.649249262,1151.649249262,1151.649249262,1153.6851244640002,1153.6851244640002,1153.6851244640002,1153.6851244640002,1153.6851244640002,1153.6851244640002,1153.6851244640002,1153.6851244640002,1155.7209457879999,1155.7209457879999,1155.7209457879999,1155.7209457879999,,,,,,,,,,,,,,,,,,,,,,,,,,,,,,,,,,,,,,,01,006,2022-09-23_11h44.52.649,test2,2022.2.4,59.98379669701972,
0,0,0,0,54,0,54,0,1155.7209457879999,1155.7209457879999,1155.7209457879999,1155.7209457879999,1155.7209457879999,1155.7209457879999,1155.7209457879999,-1,-1,azul,0,['N_B'],1160.8600614830002,1160.8600614830002,1160.8600614830002,1160.8600614830002,1162.895848352,1162.895848352,1162.895848352,1162.895848352,1162.895848352,1162.895848352,1162.895848352,1162.895848352,1164.9312290770004,1164.9312290770004,1164.9312290770004,1164.9312290770004,,,,,,,,,,,,,,,,,,,,,,,,,,,,,,,,,,,,,,,01,006,2022-09-23_11h44.52.649,test2,2022.2.4,59.98379669701972,
0,0,0,0,55,0,55,0,1164.9312290770004,1164.9312290770004,1164.9312290770004,1164.9312290770004,1164.9312290770004,1164.9312290770004,1164.9312290770004,1,-1,azul,1,['N_B'],1166.9830625840004,1166.9830625840004,1166.9830625840004,1166.9830625840004,1169.0183322820003,1169.0183322820003,1169.0183322820003,1169.0183322820003,1169.0183322820003,1169.0183322820003,1169.0183322820003,1169.0183322820003,1171.054448637,1171.054448637,1171.054448637,1171.054448637,,,,,,,,,,,,,,,,,,,,,,,,,,,,,,,,,,,,,,,01,006,2022-09-23_11h44.52.649,test2,2022.2.4,59.98379669701972,
0,0,0,0,56,0,56,0,1171.054448637,1171.054448637,1171.054448637,1171.054448637,1171.054448637,1171.054448637,1171.054448637,1,-1,azul,0,['N_A'],1173.506894952,1173.506894952,1173.506894952,1173.506894952,1175.5420920490005,1175.5420920490005,1175.5420920490005,1175.5420920490005,1175.5420920490005,1175.5420920490005,1175.5420920490005,1175.5420920490005,1177.5779155770006,1177.5779155770006,1177.5779155770006,1177.5779155770006,,,,,,,,,,,,,,,,,,,,,,,,,,,,,,,,,,,,,,,01,006,2022-09-23_11h44.52.649,test2,2022.2.4,59.98379669701972,
0,0,0,0,57,0,57,0,1177.5779155770006,1177.5779155770006,1177.5779155770006,1177.5779155770006,1177.5779155770006,1177.5779155770006,1177.5779155770006,1,1,rojo,1,['N_A'],1179.7637224750006,1179.7637224750006,1179.7637224750006,1179.7637224750006,1181.7999340420001,1181.7999340420001,1181.7999340420001,1181.7999340420001,1181.7999340420001,1181.7999340420001,1181.7999340420001,1181.7999340420001,1183.8349777390004,1183.8349777390004,1183.8349777390004,1183.8349777390004,,,,,,,,,,,,,,,,,,,,,,,,,,,,,,,,,,,,,,,01,006,2022-09-23_11h44.52.649,test2,2022.2.4,59.98379669701972,
0,0,0,0,58,0,58,0,1183.8349777390004,1183.8349777390004,1183.8349777390004,1183.8349777390004,1183.8349777390004,1183.8349777390004,1183.8349777390004,-1,-1,azul,1,['N_A'],1185.9537611960004,1185.9537611960004,1185.9537611960004,1185.9537611960004,1187.9893683950004,1187.9893683950004,1187.9893683950004,1187.9893683950004,1187.9893683950004,1187.9893683950004,1187.9893683950004,1187.9893683950004,1190.0251653599998,1190.0251653599998,1190.0251653599998,1190.0251653599998,,,,,,,,,,,,,,,,,,,,,,,,,,,,,,,,,,,,,,,01,006,2022-09-23_11h44.52.649,test2,2022.2.4,59.98379669701972,
0,0,0,0,59,0,59,0,1190.0251653599998,1190.0251653599998,1190.0251653599998,1190.0251653599998,1190.0251653599998,1190.0251653599998,1190.0251653599998,1,-1,rojo,0,['N_B'],1193.345629335,1193.345629335,1193.345629335,1193.345629335,1195.3809162010002,1195.3809162010002,1195.3809162010002,1195.3809162010002,1195.3809162010002,1195.3809162010002,1195.3809162010002,1195.3809162010002,1197.416292584,1197.416292584,1197.416292584,1197.416292584,,,,,,,,,,,,,,,,,,,,,,,,,,,,,,,,,,,,,,,01,006,2022-09-23_11h44.52.649,test2,2022.2.4,59.98379669701972,
0,0,0,0,60,0,60,0,1197.416292584,1197.416292584,1197.416292584,1197.416292584,1197.416292584,1197.416292584,1197.416292584,1,1,azul,1,['N_B'],1201.705089854,1201.705089854,1201.705089854,1201.705089854,1203.7395014120002,1203.7395014120002,1203.7395014120002,1203.7395014120002,1203.7395014120002,1203.7395014120002,1203.7395014120002,1203.7395014120002,1205.776221913,1205.776221913,1205.776221913,1205.776221913,,,,,,,,,,,,,,,,,,,,,,,,,,,,,,,,,,,,,,,01,006,2022-09-23_11h44.52.649,test2,2022.2.4,59.98379669701972,
0,0,0,0,61,0,61,0,1205.776221913,1205.776221913,1205.776221913,1205.776221913,1205.776221913,1205.776221913,1205.776221913,1,-1,azul,0,['N_A'],1209.7635149450007,1209.7635149450007,1209.7635149450007,1209.7635149450007,1211.7992868709998,1211.7992868709998,1211.7992868709998,1211.7992868709998,1211.7992868709998,1211.7992868709998,1211.7992868709998,1211.7992868709998,1213.8348519290003,1213.8348519290003,1213.8348519290003,1213.8348519290003,,,,,,,,,,,,,,,,,,,,,,,,,,,,,,,,,,,,,,,01,006,2022-09-23_11h44.52.649,test2,2022.2.4,59.98379669701972,
0,0,0,0,62,0,62,0,1213.8348519290003,1213.8348519290003,1213.8348519290003,1213.8348519290003,1213.8348519290003,1213.8348519290003,1213.8348519290003,-1,1,azul,1,['N_A'],1216.4881951100006,1216.4881951100006,1216.4881951100006,1216.4881951100006,1218.5060982240002,1218.5060982240002,1218.5060982240002,1218.5060982240002,1218.5060982240002,1218.5060982240002,1218.5060982240002,1218.5060982240002,1220.5416364130006,1220.5416364130006,1220.5416364130006,1220.5416364130006,,,,,,,,,,,,,,,,,,,,,,,,,,,,,,,,,,,,,,,01,006,2022-09-23_11h44.52.649,test2,2022.2.4,59.98379669701972,
0,0,0,0,63,0,63,0,1220.5416364130006,1220.5416364130006,1220.5416364130006,1220.5416364130006,1220.5416364130006,1220.5416364130006,1220.5416364130006,1,1,rojo,1,['N_A'],1223.3456399200004,1223.3456399200004,1223.3456399200004,1223.3456399200004,1225.3638776590005,1225.3638776590005,1225.3638776590005,1225.3638776590005,1225.3638776590005,1225.3638776590005,1225.3638776590005,1225.3638776590005,1227.399295743,1227.399295743,1227.399295743,1227.399295743,,,,,,,,,,,,,,,,,,,,,,,,,,,,,,,,,,,,,,,01,006,2022-09-23_11h44.52.649,test2,2022.2.4,59.98379669701972,
0,0,0,0,64,0,64,0,1227.399295743,1227.399295743,1227.399295743,1227.399295743,1227.399295743,1227.399295743,1227.399295743,1,1,rojo,1,['N_A'],1230.4536350340004,1230.4536350340004,1230.4536350340004,1230.4536350340004,1232.4885075970005,1232.4885075970005,1232.4885075970005,1232.4885075970005,1232.4885075970005,1232.4885075970005,1232.4885075970005,1232.4885075970005,1234.5244889570004,1234.5244889570004,1234.5244889570004,1234.5244889570004,,,,,,,,,,,,,,,,,,,,,,,,,,,,,,,,,,,,,,,01,006,2022-09-23_11h44.52.649,test2,2022.2.4,59.98379669701972,
0,0,0,0,65,0,65,0,1234.5244889570004,1234.5244889570004,1234.5244889570004,1234.5244889570004,1234.5244889570004,1234.5244889570004,1234.5244889570004,1,-1,rojo,0,['N_B'],1236.609719295,1236.609719295,1236.609719295,1236.609719295,1238.6455416360004,1238.6455416360004,1238.6455416360004,1238.6455416360004,1238.6455416360004,1238.6455416360004,1238.6455416360004,1238.6455416360004,1240.681441113,1240.681441113,1240.681441113,1240.681441113,,,,,,,,,,,,,,,,,,,,,,,,,,,,,,,,,,,,,,,01,006,2022-09-23_11h44.52.649,test2,2022.2.4,59.98379669701972,
0,0,0,0,66,0,66,0,1240.681441113,1240.681441113,1240.681441113,1240.681441113,1240.681441113,1240.681441113,1240.681441113,1,1,azul,1,['N_B'],1243.0665912499999,1243.0665912499999,1243.0665912499999,1243.0665912499999,1245.0852440810004,1245.0852440810004,1245.0852440810004,1245.0852440810004,1245.0852440810004,1245.0852440810004,1245.0852440810004,1245.0852440810004,1247.1213022900001,1247.1213022900001,1247.1213022900001,1247.1213022900001,,,,,,,,,,,,,,,,,,,,,,,,,,,,,,,,,,,,,,,01,006,2022-09-23_11h44.52.649,test2,2022.2.4,59.98379669701972,
0,0,0,0,67,0,67,0,1247.1213022900001,1247.1213022900001,1247.1213022900001,1247.1213022900001,1247.1213022900001,1247.1213022900001,1247.1213022900001,1,1,azul,1,['N_B'],1249.9748456300003,1249.9748456300003,1249.9748456300003,1249.9748456300003,1251.992391322,1251.992391322,1251.992391322,1251.992391322,1251.992391322,1251.992391322,1251.992391322,1251.992391322,1254.0294150660002,1254.0294150660002,1254.0294150660002,1254.0294150660002,,,,,,,,,,,,,,,,,,,,,,,,,,,,,,,,,,,,,,,01,006,2022-09-23_11h44.52.649,test2,2022.2.4,59.98379669701972,
0,0,0,0,68,0,68,0,1254.0294150660002,1254.0294150660002,1254.0294150660002,1254.0294150660002,1254.0294150660002,1254.0294150660002,1254.0294150660002,1,1,azul,1,['N_B'],1256.0479391039999,1256.0479391039999,1256.0479391039999,1256.0479391039999,1258.0840806850001,1258.0840806850001,1258.0840806850001,1258.0840806850001,1258.0840806850001,1258.0840806850001,1258.0840806850001,1258.0840806850001,1260.1187972220005,1260.1187972220005,1260.1187972220005,1260.1187972220005,,,,,,,,,,,,,,,,,,,,,,,,,,,,,,,,,,,,,,,01,006,2022-09-23_11h44.52.649,test2,2022.2.4,59.98379669701972,
0,0,0,0,69,0,69,0,1260.1187972220005,1260.1187972220005,1260.1187972220005,1260.1187972220005,1260.1187972220005,1260.1187972220005,1260.1187972220005,-1,-1,rojo,0,['N_A'],1263.706509916,1263.706509916,1263.706509916,1263.706509916,1265.7425542910005,1265.7425542910005,1265.7425542910005,1265.7425542910005,1265.7425542910005,1265.7425542910005,1265.7425542910005,1265.7425542910005,1267.7776844620003,1267.7776844620003,1267.7776844620003,1267.7776844620003,,,,,,,,,,,,,,,,,,,,,,,,,,,,,,,,,,,,,,,01,006,2022-09-23_11h44.52.649,test2,2022.2.4,59.98379669701972,
0,0,0,0,70,0,70,0,1267.7776844620003,1267.7776844620003,1267.7776844620003,1267.7776844620003,1267.7776844620003,1267.7776844620003,1267.7776844620003,-1,1,azul,1,['N_A'],1271.3814817080001,1271.3814817080001,1271.3814817080001,1271.3814817080001,1273.3999606160005,1273.3999606160005,1273.3999606160005,1273.3999606160005,1273.3999606160005,1273.3999606160005,1273.3999606160005,1273.3999606160005,1275.4363366980006,1275.4363366980006,1275.4363366980006,1275.4363366980006,,,,,,,,,,,,,,,,,,,,,,,,,,,,,,,,,,,,,,,01,006,2022-09-23_11h44.52.649,test2,2022.2.4,59.98379669701972,
0,0,0,0,71,0,71,0,1275.4363366980006,1275.4363366980006,1275.4363366980006,1275.4363366980006,1275.4363366980006,1275.4363366980006,1275.4363366980006,1,1,rojo,1,['N_A'],1281.0928345270004,1281.0928345270004,1281.0928345270004,1281.0928345270004,1283.1102060900002,1283.1102060900002,1283.1102060900002,1283.1102060900002,1283.1102060900002,1283.1102060900002,1283.1102060900002,1283.1102060900002,1285.1470806550005,1285.1470806550005,1285.1470806550005,1285.1470806550005,,,,,,,,,,,,,,,,,,,,,,,,,,,,,,,,,,,,,,,01,006,2022-09-23_11h44.52.649,test2,2022.2.4,59.98379669701972,
0,0,0,0,72,0,72,0,1285.1470806550005,1285.1470806550005,1285.1470806550005,1285.1470806550005,1285.1470806550005,1285.1470806550005,1285.1470806550005,-1,1,azul,1,['N_A'],1293.9894922560006,1293.9894922560006,1293.9894922560006,1293.9894922560006,1296.0251799670004,1296.0251799670004,1296.0251799670004,1296.0251799670004,1296.0251799670004,1296.0251799670004,1296.0251799670004,1296.0251799670004,1298.0612701609998,1298.0612701609998,1298.0612701609998,1298.0612701609998,,,,,,,,,,,,,,,,,,,,,,,,,,,,,,,,,,,,,,,01,006,2022-09-23_11h44.52.649,test2,2022.2.4,59.98379669701972,
0,0,0,0,73,0,73,0,1298.0612701609998,1298.0612701609998,1298.0612701609998,1298.0612701609998,1298.0612701609998,1298.0612701609998,1298.0612701609998,-1,-1,azul,0,['N_B'],1301.5150880290003,1301.5150880290003,1301.5150880290003,1301.5150880290003,1303.550067917,1303.550067917,1303.550067917,1303.550067917,1303.550067917,1303.550067917,1303.550067917,1303.550067917,1305.5851290830005,1305.5851290830005,1305.5851290830005,1305.5851290830005,,,,,,,,,,,,,,,,,,,,,,,,,,,,,,,,,,,,,,,01,006,2022-09-23_11h44.52.649,test2,2022.2.4,59.98379669701972,
0,0,0,0,74,0,74,0,1305.5851290830005,1305.5851290830005,1305.5851290830005,1305.5851290830005,1305.5851290830005,1305.5851290830005,1305.5851290830005,-1,1,rojo,1,['N_B'],1309.039897961,1309.039897961,1309.039897961,1309.039897961,1311.0579944460005,1311.0579944460005,1311.0579944460005,1311.0579944460005,1311.0579944460005,1311.0579944460005,1311.0579944460005,1311.0579944460005,1313.0943322970006,1313.0943322970006,1313.0943322970006,1313.0943322970006,,,,,,,,,,,,,,,,,,,,,,,,,,,,,,,,,,,,,,,01,006,2022-09-23_11h44.52.649,test2,2022.2.4,59.98379669701972,
0,0,0,0,75,0,75,0,1313.0943322970006,1313.0943322970006,1313.0943322970006,1313.0943322970006,1313.0943322970006,1313.0943322970006,1313.0943322970006,1,1,azul,1,['N_B'],1315.7803607240003,1315.7803607240003,1315.7803607240003,1315.7803607240003,1317.8154209929999,1317.8154209929999,1317.8154209929999,1317.8154209929999,1317.8154209929999,1317.8154209929999,1317.8154209929999,1317.8154209929999,1319.8514436080004,1319.8514436080004,1319.8514436080004,1319.8514436080004,,,,,,,,,,,,,,,,,,,,,,,,,,,,,,,,,,,,,,,01,006,2022-09-23_11h44.52.649,test2,2022.2.4,59.98379669701972,
0,0,0,0,76,0,76,0,1319.8514436080004,1319.8514436080004,1319.8514436080004,1319.8514436080004,1319.8514436080004,1319.8514436080004,1319.8514436080004,-1,-1,rojo,0,['N_A'],1329.879770865,1329.879770865,1329.879770865,1329.879770865,1331.9156179790007,1331.9156179790007,1331.9156179790007,1331.9156179790007,1331.9156179790007,1331.9156179790007,1331.9156179790007,1331.9156179790007,1333.9511735380001,1333.9511735380001,1333.9511735380001,1333.9511735380001,,,,,,,,,,,,,,,,,,,,,,,,,,,,,,,,,,,,,,,01,006,2022-09-23_11h44.52.649,test2,2022.2.4,59.98379669701972,
0,0,0,0,77,0,77,0,1333.9511735380001,1333.9511735380001,1333.9511735380001,1333.9511735380001,1333.9511735380001,1333.9511735380001,1333.9511735380001,-1,-1,azul,1,['N_A'],1342.5098417850004,1342.5098417850004,1342.5098417850004,1342.5098417850004,1344.5460253669999,1344.5460253669999,1344.5460253669999,1344.5460253669999,1344.5460253669999,1344.5460253669999,1344.5460253669999,1344.5460253669999,1346.5811834679998,1346.5811834679998,1346.5811834679998,1346.5811834679998,,,,,,,,,,,,,,,,,,,,,,,,,,,,,,,,,,,,,,,01,006,2022-09-23_11h44.52.649,test2,2022.2.4,59.98379669701972,
0,0,0,0,78,0,78,0,1346.5811834679998,1346.5811834679998,1346.5811834679998,1346.5811834679998,1346.5811834679998,1346.5811834679998,1346.5811834679998,-1,-1,azul,0,['N_B'],1348.3663709820003,1348.3663709820003,1348.3663709820003,1348.3663709820003,1350.4019512300001,1350.4019512300001,1350.4019512300001,1350.4019512300001,1350.4019512300001,1350.4019512300001,1350.4019512300001,1350.4019512300001,1352.4383791360005,1352.4383791360005,1352.4383791360005,1352.4383791360005,,,,,,,,,,,,,,,,,,,,,,,,,,,,,,,,,,,,,,,01,006,2022-09-23_11h44.52.649,test2,2022.2.4,59.98379669701972,
0,0,0,0,79,0,79,0,1352.4383791360005,1352.4383791360005,1352.4383791360005,1352.4383791360005,1352.4383791360005,1352.4383791360005,1352.4383791360005,1,1,azul,1,['N_B'],1356.0583233570005,1356.0583233570005,1356.0583233570005,1356.0583233570005,1358.0771079920005,1358.0771079920005,1358.0771079920005,1358.0771079920005,1358.0771079920005,1358.0771079920005,1358.0771079920005,1358.0771079920005,1360.1126909559998,1360.1126909559998,1360.1126909559998,1360.1126909559998,,,,,,,,,,,,,,,,,,,,,,,,,,,,,,,,,,,,,,,01,006,2022-09-23_11h44.52.649,test2,2022.2.4,59.98379669701972,
0,0,0,0,80,0,80,0,1360.1126909559998,1360.1126909559998,1360.1126909559998,1360.1126909559998,1360.1126909559998,1360.1126909559998,1360.1126909559998,1,1,azul,1,['N_B'],1365.6691128540006,1365.6691128540006,1365.6691128540006,1365.6691128540006,1367.7049778030005,1367.7049778030005,1367.7049778030005,1367.7049778030005,1367.7049778030005,1367.7049778030005,1367.7049778030005,1367.7049778030005,1369.7401328080005,1369.7401328080005,1369.7401328080005,1369.7401328080005,,,,,,,,,,,,,,,,,,,,,,,,,,,,,,,,,,,,,,,01,006,2022-09-23_11h44.52.649,test2,2022.2.4,59.98379669701972,
0,0,0,0,81,0,81,0,1369.7401328080005,1369.7401328080005,1369.7401328080005,1369.7401328080005,1369.7401328080005,1369.7401328080005,1369.7401328080005,1,-1,azul,0,['N_A'],1374.6621148020004,1374.6621148020004,1374.6621148020004,1374.6621148020004,1376.6976413170005,1376.6976413170005,1376.6976413170005,1376.6976413170005,1376.6976413170005,1376.6976413170005,1376.6976413170005,1376.6976413170005,1378.7331209310005,1378.7331209310005,1378.7331209310005,1378.7331209310005,,,,,,,,,,,,,,,,,,,,,,,,,,,,,,,,,,,,,,,01,006,2022-09-23_11h44.52.649,test2,2022.2.4,59.98379669701972,
0,0,0,0,82,0,82,0,1378.7331209310005,1378.7331209310005,1378.7331209310005,1378.7331209310005,1378.7331209310005,1378.7331209310005,1378.7331209310005,1,1,rojo,1,['N_A'],1395.3350514950007,1395.3350514950007,1395.3350514950007,1395.3350514950007,1397.3529197850003,1397.3529197850003,1397.3529197850003,1397.3529197850003,1397.3529197850003,1397.3529197850003,1397.3529197850003,1397.3529197850003,1399.3896325639998,1399.3896325639998,1399.3896325639998,1399.3896325639998,,,,,,,,,,,,,,,,,,,,,,,,,,,,,,,,,,,,,,,01,006,2022-09-23_11h44.52.649,test2,2022.2.4,59.98379669701972,
0,0,0,0,83,0,83,0,1399.3896325639998,1399.3896325639998,1399.3896325639998,1399.3896325639998,1399.3896325639998,1399.3896325639998,1399.3896325639998,-1,1,azul,1,['N_A'],1402.526750602,1402.526750602,1402.526750602,1402.526750602,1404.5617158290006,1404.5617158290006,1404.5617158290006,1404.5617158290006,1404.5617158290006,1404.5617158290006,1404.5617158290006,1404.5617158290006,1406.597822746,1406.597822746,1406.597822746,1406.597822746,,,,,,,,,,,,,,,,,,,,,,,,,,,,,,,,,,,,,,,01,006,2022-09-23_11h44.52.649,test2,2022.2.4,59.98379669701972,
0,0,0,0,84,0,84,0,1406.597822746,1406.597822746,1406.597822746,1406.597822746,1406.597822746,1406.597822746,1406.597822746,1,-1,rojo,0,['N_B'],1411.0354661350002,1411.0354661350002,1411.0354661350002,1411.0354661350002,1413.0707996400006,1413.0707996400006,1413.0707996400006,1413.0707996400006,1413.0707996400006,1413.0707996400006,1413.0707996400006,1413.0707996400006,1415.106480378,1415.106480378,1415.106480378,1415.106480378,,,,,,,,,,,,,,,,,,,,,,,,,,,,,,,,,,,,,,,01,006,2022-09-23_11h44.52.649,test2,2022.2.4,59.98379669701972,
0,0,0,0,85,0,85,0,1415.106480378,1415.106480378,1415.106480378,1415.106480378,1415.106480378,1415.106480378,1415.106480378,1,1,azul,1,['N_B'],1419.9621628310006,1419.9621628310006,1419.9621628310006,1419.9621628310006,1421.99835549,1421.99835549,1421.99835549,1421.99835549,1421.99835549,1421.99835549,1421.99835549,1421.99835549,1424.0329236900006,1424.0329236900006,1424.0329236900006,1424.0329236900006,,,,,,,,,,,,,,,,,,,,,,,,,,,,,,,,,,,,,,,01,006,2022-09-23_11h44.52.649,test2,2022.2.4,59.98379669701972,
0,0,0,0,86,0,86,0,1424.0329236900006,1424.0329236900006,1424.0329236900006,1424.0329236900006,1424.0329236900006,1424.0329236900006,1424.0329236900006,1,-1,azul,0,['N_A'],1427.9544287440003,1427.9544287440003,1427.9544287440003,1427.9544287440003,1429.9898043330004,1429.9898043330004,1429.9898043330004,1429.9898043330004,1429.9898043330004,1429.9898043330004,1429.9898043330004,1429.9898043330004,1432.0249027710006,1432.0249027710006,1432.0249027710006,1432.0249027710006,,,,,,,,,,,,,,,,,,,,,,,,,,,,,,,,,,,,,,,01,006,2022-09-23_11h44.52.649,test2,2022.2.4,59.98379669701972,
0,0,0,0,87,0,87,0,1432.0249027710006,1432.0249027710006,1432.0249027710006,1432.0249027710006,1432.0249027710006,1432.0249027710006,1432.0249027710006,1,-1,rojo,0,['N_B'],1434.844900344,1434.844900344,1434.844900344,1434.844900344,1436.8809506080006,1436.8809506080006,1436.8809506080006,1436.8809506080006,1436.8809506080006,1436.8809506080006,1436.8809506080006,1436.8809506080006,1438.915966001,1438.915966001,1438.915966001,1438.915966001,,,,,,,,,,,,,,,,,,,,,,,,,,,,,,,,,,,,,,,01,006,2022-09-23_11h44.52.649,test2,2022.2.4,59.98379669701972,
0,0,0,0,88,0,88,0,1438.915966001,1438.915966001,1438.915966001,1438.915966001,1438.915966001,1438.915966001,1438.915966001,1,1,azul,1,['N_B'],1441.4027854750002,1441.4027854750002,1441.4027854750002,1441.4027854750002,1443.4385811830007,1443.4385811830007,1443.4385811830007,1443.4385811830007,1443.4385811830007,1443.4385811830007,1443.4385811830007,1443.4385811830007,1445.473529772,1445.473529772,1445.473529772,1445.473529772,,,,,,,,,,,,,,,,,,,,,,,,,,,,,,,,,,,,,,,01,006,2022-09-23_11h44.52.649,test2,2022.2.4,59.98379669701972,
0,0,0,0,89,0,89,0,1445.473529772,1445.473529772,1445.473529772,1445.473529772,1445.473529772,1445.473529772,1445.473529772,1,-1,azul,0,['N_A'],1451.8641527420004,1451.8641527420004,1451.8641527420004,1451.8641527420004,1453.9000611290003,1453.9000611290003,1453.9000611290003,1453.9000611290003,1453.9000611290003,1453.9000611290003,1453.9000611290003,1453.9000611290003,1455.9347453190003,1455.9347453190003,1455.9347453190003,1455.9347453190003,,,,,,,,,,,,,,,,,,,,,,,,,,,,,,,,,,,,,,,01,006,2022-09-23_11h44.52.649,test2,2022.2.4,59.98379669701972,
0,0,0,0,90,0,90,0,1455.9347453190003,1455.9347453190003,1455.9347453190003,1455.9347453190003,1455.9347453190003,1455.9347453190003,1455.9347453190003,1,1,rojo,1,['N_A'],1459.2893571640006,1459.2893571640006,1459.2893571640006,1459.2893571640006,1461.3075917000006,1461.3075917000006,1461.3075917000006,1461.3075917000006,1461.3075917000006,1461.3075917000006,1461.3075917000006,1461.3075917000006,1463.3437505319998,1463.3437505319998,1463.3437505319998,1463.3437505319998,,,,,,,,,,,,,,,,,,,,,,,,,,,,,,,,,,,,,,,01,006,2022-09-23_11h44.52.649,test2,2022.2.4,59.98379669701972,
0,0,0,0,91,0,91,0,1463.3437505319998,1463.3437505319998,1463.3437505319998,1463.3437505319998,1463.3437505319998,1463.3437505319998,1463.3437505319998,1,1,rojo,1,['N_A'],1466.9638999460003,1466.9638999460003,1466.9638999460003,1466.9638999460003,1468.9835917680002,1468.9835917680002,1468.9835917680002,1468.9835917680002,1468.9835917680002,1468.9835917680002,1468.9835917680002,1468.9835917680002,1471.0184658200005,1471.0184658200005,1471.0184658200005,1471.0184658200005,,,,,,,,,,,,,,,,,,,,,,,,,,,,,,,,,,,,,,,01,006,2022-09-23_11h44.52.649,test2,2022.2.4,59.98379669701972,
0,0,0,0,92,0,92,0,1471.0184658200005,1471.0184658200005,1471.0184658200005,1471.0184658200005,1471.0184658200005,1471.0184658200005,1471.0184658200005,-1,1,azul,1,['N_A'],1474.622169837,1474.622169837,1474.622169837,1474.622169837,1476.6578527090005,1476.6578527090005,1476.6578527090005,1476.6578527090005,1476.6578527090005,1476.6578527090005,1476.6578527090005,1476.6578527090005,1478.693417517,1478.693417517,1478.693417517,1478.693417517,,,,,,,,,,,,,,,,,,,,,,,,,,,,,,,,,,,,,,,01,006,2022-09-23_11h44.52.649,test2,2022.2.4,59.98379669701972,
0,0,0,0,93,0,93,0,1478.693417517,1478.693417517,1478.693417517,1478.693417517,1478.693417517,1478.693417517,1478.693417517,-1,-1,azul,0,['N_B'],1482.615170186,1482.615170186,1482.615170186,1482.615170186,1484.6500904969998,1484.6500904969998,1484.6500904969998,1484.6500904969998,1484.6500904969998,1484.6500904969998,1484.6500904969998,1484.6500904969998,1486.6857174060005,1486.6857174060005,1486.6857174060005,1486.6857174060005,,,,,,,,,,,,,,,,,,,,,,,,,,,,,,,,,,,,,,,01,006,2022-09-23_11h44.52.649,test2,2022.2.4,59.98379669701972,
0,0,0,0,94,0,94,0,1486.6857174060005,1486.6857174060005,1486.6857174060005,1486.6857174060005,1486.6857174060005,1486.6857174060005,1486.6857174060005,-1,1,rojo,1,['N_B'],1491.6250685579998,1491.6250685579998,1491.6250685579998,1491.6250685579998,1493.6435087930004,1493.6435087930004,1493.6435087930004,1493.6435087930004,1493.6435087930004,1493.6435087930004,1493.6435087930004,1493.6435087930004,1495.6788612260007,1495.6788612260007,1495.6788612260007,1495.6788612260007,,,,,,,,,,,,,,,,,,,,,,,,,,,,,,,,,,,,,,,01,006,2022-09-23_11h44.52.649,test2,2022.2.4,59.98379669701972,
0,0,0,0,95,0,95,0,1495.6788612260007,1495.6788612260007,1495.6788612260007,1495.6788612260007,1495.6788612260007,1495.6788612260007,1495.6788612260007,1,1,azul,1,['N_B'],1499.6503752400004,1499.6503752400004,1499.6503752400004,1499.6503752400004,1501.669590816,1501.669590816,1501.669590816,1501.669590816,1501.669590816,1501.669590816,1501.669590816,1501.669590816,1503.7050931170006,1503.7050931170006,1503.7050931170006,1503.7050931170006,,,,,,,,,,,,,,,,,,,,,,,,,,,,,,,,,,,,,,,01,006,2022-09-23_11h44.52.649,test2,2022.2.4,59.98379669701972,
0,0,0,0,96,0,96,0,1503.7050931170006,1503.7050931170006,1503.7050931170006,1503.7050931170006,1503.7050931170006,1503.7050931170006,1503.7050931170006,1,1,azul,1,['N_B'],1508.6435279420002,1508.6435279420002,1508.6435279420002,1508.6435279420002,1510.6791266070004,1510.6791266070004,1510.6791266070004,1510.6791266070004,1510.6791266070004,1510.6791266070004,1510.6791266070004,1510.6791266070004,1512.714916254,1512.714916254,1512.714916254,1512.714916254,,,,,,,,,,,,,,,,,,,,,,,,,,,,,,,,,,,,,,,01,006,2022-09-23_11h44.52.649,test2,2022.2.4,59.98379669701972,
0,0,0,0,97,0,97,0,1512.714916254,1512.714916254,1512.714916254,1512.714916254,1512.714916254,1512.714916254,1512.714916254,1,-1,azul,0,['N_A'],1516.1680213010004,1516.1680213010004,1516.1680213010004,1516.1680213010004,1518.203722071,1518.203722071,1518.203722071,1518.203722071,1518.203722071,1518.203722071,1518.203722071,1518.203722071,1520.2400760250002,1520.2400760250002,1520.2400760250002,1520.2400760250002,,,,,,,,,,,,,,,,,,,,,,,,,,,,,,,,,,,,,,,01,006,2022-09-23_11h44.52.649,test2,2022.2.4,59.98379669701972,
0,0,0,0,98,0,98,0,1520.2400760250002,1520.2400760250002,1520.2400760250002,1520.2400760250002,1520.2400760250002,1520.2400760250002,1520.2400760250002,1,1,rojo,1,['N_A'],1531.769335764,1531.769335764,1531.769335764,1531.769335764,1533.8046394550001,1533.8046394550001,1533.8046394550001,1533.8046394550001,1533.8046394550001,1533.8046394550001,1533.8046394550001,1533.8046394550001,1535.839582226,1535.839582226,1535.839582226,1535.839582226,,,,,,,,,,,,,,,,,,,,,,,,,,,,,,,,,,,,,,,01,006,2022-09-23_11h44.52.649,test2,2022.2.4,59.98379669701972,
0,0,0,0,99,0,99,0,1535.839582226,1535.839582226,1535.839582226,1535.839582226,1535.839582226,1535.839582226,1535.839582226,1,-1,rojo,0,['N_B'],1538.7769386240006,1538.7769386240006,1538.7769386240006,1538.7769386240006,1540.812033495,1540.812033495,1540.812033495,1540.812033495,1540.812033495,1540.812033495,1540.812033495,1540.812033495,1542.848164475,1542.848164475,1542.848164475,1542.848164475,,,,,,,,,,,,,,,,,,,,,,,,,,,,,,,,,,,,,,,01,006,2022-09-23_11h44.52.649,test2,2022.2.4,59.98379669701972,
0,0,0,0,100,0,100,0,1542.848164475,1542.848164475,1542.848164475,1542.848164475,1542.848164475,1542.848164475,1542.848164475,1,-1,azul,0,['N_A'],1547.1690826600006,1547.1690826600006,1547.1690826600006,1547.1690826600006,1549.2049084540004,1549.2049084540004,1549.2049084540004,1549.2049084540004,1549.2049084540004,1549.2049084540004,1549.2049084540004,1549.2049084540004,1551.2398858699999,1551.2398858699999,1551.2398858699999,1551.2398858699999,,,,,,,,,,,,,,,,,,,,,,,,,,,,,,,,,,,,,,,01,006,2022-09-23_11h44.52.649,test2,2022.2.4,59.98379669701972,
0,0,0,0,101,0,101,0,1551.2398858699999,1551.2398858699999,1551.2398858699999,1551.2398858699999,1551.2398858699999,1551.2398858699999,1551.2398858699999,-1,-1,azul,1,['N_A'],1552.8250369490006,1552.8250369490006,1552.8250369490006,1552.8250369490006,1554.8618008439998,1554.8618008439998,1554.8618008439998,1554.8618008439998,1554.8618008439998,1554.8618008439998,1554.8618008439998,1554.8618008439998,1556.896101589,1556.896101589,1556.896101589,1556.896101589,,,,,,,,,,,,,,,,,,,,,,,,,,,,,,,,,,,,,,,01,006,2022-09-23_11h44.52.649,test2,2022.2.4,59.98379669701972,
0,0,0,0,102,0,102,0,1556.896101589,1556.896101589,1556.896101589,1556.896101589,1556.896101589,1556.896101589,1556.896101589,-1,-1,azul,0,['N_B'],1558.966152727,1558.966152727,1558.966152727,1558.966152727,1561.0015403570005,1561.0015403570005,1561.0015403570005,1561.0015403570005,1561.0015403570005,1561.0015403570005,1561.0015403570005,1561.0015403570005,1563.036546618,1563.036546618,1563.036546618,1563.036546618,,,,,,,,,,,,,,,,,,,,,,,,,,,,,,,,,,,,,,,01,006,2022-09-23_11h44.52.649,test2,2022.2.4,59.98379669701972,
0,0,0,0,103,0,103,0,1563.036546618,1563.036546618,1563.036546618,1563.036546618,1563.036546618,1563.036546618,1563.036546618,1,-1,azul,1,['N_B'],1566.4907248400004,1566.4907248400004,1566.4907248400004,1566.4907248400004,1568.526431589,1568.526431589,1568.526431589,1568.526431589,1568.526431589,1568.526431589,1568.526431589,1568.526431589,1570.5614960130006,1570.5614960130006,1570.5614960130006,1570.5614960130006,,,,,,,,,,,,,,,,,,,,,,,,,,,,,,,,,,,,,,,01,006,2022-09-23_11h44.52.649,test2,2022.2.4,59.98379669701972,
0,0,0,0,104,0,104,0,1570.5614960130006,1570.5614960130006,1570.5614960130006,1570.5614960130006,1570.5614960130006,1570.5614960130006,1570.5614960130006,1,-1,azul,0,['N_A'],1573.4482490730006,1573.4482490730006,1573.4482490730006,1573.4482490730006,1575.4836169230002,1575.4836169230002,1575.4836169230002,1575.4836169230002,1575.4836169230002,1575.4836169230002,1575.4836169230002,1575.4836169230002,1577.5188477840002,1577.5188477840002,1577.5188477840002,1577.5188477840002,,,,,,,,,,,,,,,,,,,,,,,,,,,,,,,,,,,,,,,01,006,2022-09-23_11h44.52.649,test2,2022.2.4,59.98379669701972,
0,0,0,0,105,0,105,0,1577.5188477840002,1577.5188477840002,1577.5188477840002,1577.5188477840002,1577.5188477840002,1577.5188477840002,1577.5188477840002,1,-1,rojo,0,['N_B'],1579.3050073330005,1579.3050073330005,1579.3050073330005,1579.3050073330005,1581.3403426630002,1581.3403426630002,1581.3403426630002,1581.3403426630002,1581.3403426630002,1581.3403426630002,1581.3403426630002,1581.3403426630002,1583.376236782,1583.376236782,1583.376236782,1583.376236782,,,,,,,,,,,,,,,,,,,,,,,,,,,,,,,,,,,,,,,01,006,2022-09-23_11h44.52.649,test2,2022.2.4,59.98379669701972,
0,0,0,0,106,0,106,0,1583.376236782,1583.376236782,1583.376236782,1583.376236782,1583.376236782,1583.376236782,1583.376236782,1,1,azul,0,['N_A'],1585.895707877,1585.895707877,1585.895707877,1585.895707877,1587.930561823,1587.930561823,1587.930561823,1587.930561823,1587.930561823,1587.930561823,1587.930561823,1587.930561823,1589.9663974780005,1589.9663974780005,1589.9663974780005,1589.9663974780005,,,,,,,,,,,,,,,,,,,,,,,,,,,,,,,,,,,,,,,01,006,2022-09-23_11h44.52.649,test2,2022.2.4,59.98379669701972,
0,0,0,0,107,0,107,0,1589.9663974780005,1589.9663974780005,1589.9663974780005,1589.9663974780005,1589.9663974780005,1589.9663974780005,1589.9663974780005,-1,-1,azul,1,['N_A'],1595.9394057910004,1595.9394057910004,1595.9394057910004,1595.9394057910004,1597.974888963,1597.974888963,1597.974888963,1597.974888963,1597.974888963,1597.974888963,1597.974888963,1597.974888963,1600.0108790570002,1600.0108790570002,1600.0108790570002,1600.0108790570002,,,,,,,,,,,,,,,,,,,,,,,,,,,,,,,,,,,,,,,01,006,2022-09-23_11h44.52.649,test2,2022.2.4,59.98379669701972,
0,0,0,0,108,0,108,0,1600.0108790570002,1600.0108790570002,1600.0108790570002,1600.0108790570002,1600.0108790570002,1600.0108790570002,1600.0108790570002,1,1,rojo,1,['N_A'],1604.432594338,1604.432594338,1604.432594338,1604.432594338,1606.4512211050005,1606.4512211050005,1606.4512211050005,1606.4512211050005,1606.4512211050005,1606.4512211050005,1606.4512211050005,1606.4512211050005,1608.4871412769999,1608.4871412769999,1608.4871412769999,1608.4871412769999,,,,,,,,,,,,,,,,,,,,,,,,,,,,,,,,,,,,,,,01,006,2022-09-23_11h44.52.649,test2,2022.2.4,59.98379669701972,
0,0,0,0,109,0,109,0,1608.4871412769999,1608.4871412769999,1608.4871412769999,1608.4871412769999,1608.4871412769999,1608.4871412769999,1608.4871412769999,1,1,rojo,1,['N_A'],1610.7056797140003,1610.7056797140003,1610.7056797140003,1610.7056797140003,1612.7250107979999,1612.7250107979999,1612.7250107979999,1612.7250107979999,1612.7250107979999,1612.7250107979999,1612.7250107979999,1612.7250107979999,1614.7604172150004,1614.7604172150004,1614.7604172150004,1614.7604172150004,,,,,,,,,,,,,,,,,,,,,,,,,,,,,,,,,,,,,,,01,006,2022-09-23_11h44.52.649,test2,2022.2.4,59.98379669701972,
0,0,0,0,110,0,110,0,1614.7604172150004,1614.7604172150004,1614.7604172150004,1614.7604172150004,1614.7604172150004,1614.7604172150004,1614.7604172150004,1,1,rojo,0,['N_B'],1617.3465371310003,1617.3465371310003,1617.3465371310003,1617.3465371310003,1619.3661313370003,1619.3661313370003,1619.3661313370003,1619.3661313370003,1619.3661313370003,1619.3661313370003,1619.3661313370003,1619.3661313370003,1621.4017404100005,1621.4017404100005,1621.4017404100005,1621.4017404100005,,,,,,,,,,,,,,,,,,,,,,,,,,,,,,,,,,,,,,,01,006,2022-09-23_11h44.52.649,test2,2022.2.4,59.98379669701972,
0,0,0,0,111,0,111,0,1621.4017404100005,1621.4017404100005,1621.4017404100005,1621.4017404100005,1621.4017404100005,1621.4017404100005,1621.4017404100005,1,1,azul,1,['N_B'],1623.3536151240005,1623.3536151240005,1623.3536151240005,1623.3536151240005,1625.3892573660005,1625.3892573660005,1625.3892573660005,1625.3892573660005,1625.3892573660005,1625.3892573660005,1625.3892573660005,1625.3892573660005,1627.4243014780004,1627.4243014780004,1627.4243014780004,1627.4243014780004,,,,,,,,,,,,,,,,,,,,,,,,,,,,,,,,,,,,,,,01,006,2022-09-23_11h44.52.649,test2,2022.2.4,59.98379669701972,
0,0,0,0,112,0,112,0,1627.4243014780004,1627.4243014780004,1627.4243014780004,1627.4243014780004,1627.4243014780004,1627.4243014780004,1627.4243014780004,1,-1,azul,1,['N_B'],1636.9351809890004,1636.9351809890004,1636.9351809890004,1636.9351809890004,1638.970699818,1638.970699818,1638.970699818,1638.970699818,1638.970699818,1638.970699818,1638.970699818,1638.970699818,1641.0055977090005,1641.0055977090005,1641.0055977090005,1641.0055977090005,,,,,,,,,,,,,,,,,,,,,,,,,,,,,,,,,,,,,,,01,006,2022-09-23_11h44.52.649,test2,2022.2.4,59.98379669701972,
0,0,0,0,113,0,113,0,1641.0055977090005,1641.0055977090005,1641.0055977090005,1641.0055977090005,1641.0055977090005,1641.0055977090005,1641.0055977090005,1,1,azul,1,['N_B'],1643.1583562900005,1643.1583562900005,1643.1583562900005,1643.1583562900005,1645.1774548160001,1645.1774548160001,1645.1774548160001,1645.1774548160001,1645.1774548160001,1645.1774548160001,1645.1774548160001,1645.1774548160001,1647.2125855650002,1647.2125855650002,1647.2125855650002,1647.2125855650002,,,,,,,,,,,,,,,,,,,,,,,,,,,,,,,,,,,,,,,01,006,2022-09-23_11h44.52.649,test2,2022.2.4,59.98379669701972,
0,0,0,0,114,0,114,0,1647.2125855650002,1647.2125855650002,1647.2125855650002,1647.2125855650002,1647.2125855650002,1647.2125855650002,1647.2125855650002,1,1,azul,1,['N_B'],1649.3491238240003,1649.3491238240003,1649.3491238240003,1649.3491238240003,1651.3673090130005,1651.3673090130005,1651.3673090130005,1651.3673090130005,1651.3673090130005,1651.3673090130005,1651.3673090130005,1651.3673090130005,1653.4034841809998,1653.4034841809998,1653.4034841809998,1653.4034841809998,,,,,,,,,,,,,,,,,,,,,,,,,,,,,,,,,,,,,,,01,006,2022-09-23_11h44.52.649,test2,2022.2.4,59.98379669701972,
0,0,0,0,115,0,115,0,1653.4034841809998,1653.4034841809998,1653.4034841809998,1653.4034841809998,1653.4034841809998,1653.4034841809998,1653.4034841809998,1,1,azul,0,['N_A'],1655.088549561,1655.088549561,1655.088549561,1655.088549561,1657.12370991,1657.12370991,1657.12370991,1657.12370991,1657.12370991,1657.12370991,1657.12370991,1657.12370991,1659.1599312340004,1659.1599312340004,1659.1599312340004,1659.1599312340004,,,,,,,,,,,,,,,,,,,,,,,,,,,,,,,,,,,,,,,01,006,2022-09-23_11h44.52.649,test2,2022.2.4,59.98379669701972,
0,0,0,0,116,0,116,0,1659.1599312340004,1659.1599312340004,1659.1599312340004,1659.1599312340004,1659.1599312340004,1659.1599312340004,1659.1599312340004,1,-1,rojo,1,['N_A'],1661.7116651699998,1661.7116651699998,1661.7116651699998,1661.7116651699998,1663.7479328140007,1663.7479328140007,1663.7479328140007,1663.7479328140007,1663.7479328140007,1663.7479328140007,1663.7479328140007,1663.7479328140007,1665.7835382130006,1665.7835382130006,1665.7835382130006,1665.7835382130006,,,,,,,,,,,,,,,,,,,,,,,,,,,,,,,,,,,,,,,01,006,2022-09-23_11h44.52.649,test2,2022.2.4,59.98379669701972,
0,0,0,0,117,0,117,0,1665.7835382130006,1665.7835382130006,1665.7835382130006,1665.7835382130006,1665.7835382130006,1665.7835382130006,1665.7835382130006,1,-1,rojo,0,['N_B'],1668.3358332779999,1668.3358332779999,1668.3358332779999,1668.3358332779999,1670.3714967000005,1670.3714967000005,1670.3714967000005,1670.3714967000005,1670.3714967000005,1670.3714967000005,1670.3714967000005,1670.3714967000005,1672.4078016860003,1672.4078016860003,1672.4078016860003,1672.4078016860003,,,,,,,,,,,,,,,,,,,,,,,,,,,,,,,,,,,,,,,01,006,2022-09-23_11h44.52.649,test2,2022.2.4,59.98379669701972,
0,0,0,0,118,0,118,0,1672.4078016860003,1672.4078016860003,1672.4078016860003,1672.4078016860003,1672.4078016860003,1672.4078016860003,1672.4078016860003,-1,1,rojo,1,['N_B'],1675.160478674,1675.160478674,1675.160478674,1675.160478674,1677.1798248210007,1677.1798248210007,1677.1798248210007,1677.1798248210007,1677.1798248210007,1677.1798248210007,1677.1798248210007,1677.1798248210007,1679.214745368,1679.214745368,1679.214745368,1679.214745368,,,,,,,,,,,,,,,,,,,,,,,,,,,,,,,,,,,,,,,01,006,2022-09-23_11h44.52.649,test2,2022.2.4,59.98379669701972,
0,0,0,0,119,0,119,0,1679.214745368,1679.214745368,1679.214745368,1679.214745368,1679.214745368,1679.214745368,1679.214745368,-1,1,rojo,1,['N_B'],1681.7679684880004,1681.7679684880004,1681.7679684880004,1681.7679684880004,1683.7855632930005,1683.7855632930005,1683.7855632930005,1683.7855632930005,1683.7855632930005,1683.7855632930005,1683.7855632930005,1683.7855632930005,1685.8227308300002,1685.8227308300002,1685.8227308300002,1685.8227308300002,,,,,,,,,,,,,,,,,,,,,,,,,,,,,,,,,,,,,,,01,006,2022-09-23_11h44.52.649,test2,2022.2.4,59.98379669701972,
0,0,0,0,120,0,120,0,1685.8227308300002,1685.8227308300002,1685.8227308300002,1685.8227308300002,1685.8227308300002,1685.8227308300002,1685.8227308300002,1,1,azul,1,['N_B'],1688.2744491410003,1688.2744491410003,1688.2744491410003,1688.2744491410003,1690.2945575499998,1690.2945575499998,1690.2945575499998,1690.2945575499998,1690.2945575499998,1690.2945575499998,1690.2945575499998,1690.2945575499998,1692.3292933070006,1692.3292933070006,1692.3292933070006,1692.3292933070006,,,,,,,,,,,,,,,,,,,,,,,,,,,,,,,,,,,,,,,01,006,2022-09-23_11h44.52.649,test2,2022.2.4,59.98379669701972,
0,0,0,0,121,0,121,0,1692.3292933070006,1692.3292933070006,1692.3292933070006,1692.3292933070006,1692.3292933070006,1692.3292933070006,1692.3292933070006,1,1,azul,1,['N_B'],1695.332628749,1695.332628749,1695.332628749,1695.332628749,1697.368039262,1697.368039262,1697.368039262,1697.368039262,1697.368039262,1697.368039262,1697.368039262,1697.368039262,1699.4036293059999,1699.4036293059999,1699.4036293059999,1699.4036293059999,,,,,,,,,,,,,,,,,,,,,,,,,,,,,,,,,,,,,,,01,006,2022-09-23_11h44.52.649,test2,2022.2.4,59.98379669701972,
0,0,0,0,122,0,122,0,1699.4036293059999,1699.4036293059999,1699.4036293059999,1699.4036293059999,1699.4036293059999,1699.4036293059999,1699.4036293059999,-1,-1,rojo,0,['N_A'],1701.5728513760005,1701.5728513760005,1701.5728513760005,1701.5728513760005,1703.6086407880002,1703.6086407880002,1703.6086407880002,1703.6086407880002,1703.6086407880002,1703.6086407880002,1703.6086407880002,1703.6086407880002,1705.6440182730003,1705.6440182730003,1705.6440182730003,1705.6440182730003,,,,,,,,,,,,,,,,,,,,,,,,,,,,,,,,,,,,,,,01,006,2022-09-23_11h44.52.649,test2,2022.2.4,59.98379669701972,
0,0,0,0,123,0,123,0,1705.6440182730003,1705.6440182730003,1705.6440182730003,1705.6440182730003,1705.6440182730003,1705.6440182730003,1705.6440182730003,1,-1,rojo,1,['N_A'],1707.2623778759998,1707.2623778759998,1707.2623778759998,1707.2623778759998,1709.2979890770002,1709.2979890770002,1709.2979890770002,1709.2979890770002,1709.2979890770002,1709.2979890770002,1709.2979890770002,1709.2979890770002,1711.334136857,1711.334136857,1711.334136857,1711.334136857,,,,,,,,,,,,,,,,,,,,,,,,,,,,,,,,,,,,,,,01,006,2022-09-23_11h44.52.649,test2,2022.2.4,59.98379669701972,
0,0,0,0,124,0,124,0,1711.334136857,1711.334136857,1711.334136857,1711.334136857,1711.334136857,1711.334136857,1711.334136857,-1,1,azul,1,['N_A'],1713.202600017,1713.202600017,1713.202600017,1713.202600017,1715.22068735,1715.22068735,1715.22068735,1715.22068735,1715.22068735,1715.22068735,1715.22068735,1715.22068735,1717.256898318,1717.256898318,1717.256898318,1717.256898318,,,,,,,,,,,,,,,,,,,,,,,,,,,,,,,,,,,,,,,01,006,2022-09-23_11h44.52.649,test2,2022.2.4,59.98379669701972,
0,0,0,0,125,0,125,0,1717.256898318,1717.256898318,1717.256898318,1717.256898318,1717.256898318,1717.256898318,1717.256898318,1,1,rojo,1,['N_A'],1719.4090326140004,1719.4090326140004,1719.4090326140004,1719.4090326140004,1721.4453344800004,1721.4453344800004,1721.4453344800004,1721.4453344800004,1721.4453344800004,1721.4453344800004,1721.4453344800004,1721.4453344800004,1723.4808145360003,1723.4808145360003,1723.4808145360003,1723.4808145360003,,,,,,,,,,,,,,,,,,,,,,,,,,,,,,,,,,,,,,,01,006,2022-09-23_11h44.52.649,test2,2022.2.4,59.98379669701972,
0,0,0,0,126,0,126,0,1723.4808145360003,1723.4808145360003,1723.4808145360003,1723.4808145360003,1723.4808145360003,1723.4808145360003,1723.4808145360003,1,-1,rojo,0,['N_B'],1728.018919649,1728.018919649,1728.018919649,1728.018919649,1730.0540735450004,1730.0540735450004,1730.0540735450004,1730.0540735450004,1730.0540735450004,1730.0540735450004,1730.0540735450004,1730.0540735450004,1732.0898034420006,1732.0898034420006,1732.0898034420006,1732.0898034420006,,,,,,,,,,,,,,,,,,,,,,,,,,,,,,,,,,,,,,,01,006,2022-09-23_11h44.52.649,test2,2022.2.4,59.98379669701972,
0,0,0,0,127,0,127,0,1732.0898034420006,1732.0898034420006,1732.0898034420006,1732.0898034420006,1732.0898034420006,1732.0898034420006,1732.0898034420006,-1,-1,rojo,1,['N_B'],1734.1418946970007,1734.1418946970007,1734.1418946970007,1734.1418946970007,1736.1778891470003,1736.1778891470003,1736.1778891470003,1736.1778891470003,1736.1778891470003,1736.1778891470003,1736.1778891470003,1736.1778891470003,1738.2131684679998,1738.2131684679998,1738.2131684679998,1738.2131684679998,,,,,,,,,,,,,,,,,,,,,,,,,,,,,,,,,,,,,,,01,006,2022-09-23_11h44.52.649,test2,2022.2.4,59.98379669701972,
0,0,0,0,128,0,128,0,1738.2131684679998,1738.2131684679998,1738.2131684679998,1738.2131684679998,1738.2131684679998,1738.2131684679998,1738.2131684679998,1,-1,azul,0,['N_A'],1740.4488503130005,1740.4488503130005,1740.4488503130005,1740.4488503130005,1742.484207333,1742.484207333,1742.484207333,1742.484207333,1742.484207333,1742.484207333,1742.484207333,1742.484207333,1744.5206053760003,1744.5206053760003,1744.5206053760003,1744.5206053760003,,,,,,,,,,,,,,,,,,,,,,,,,,,,,,,,,,,,,,,01,006,2022-09-23_11h44.52.649,test2,2022.2.4,59.98379669701972,
0,0,0,0,129,0,129,0,1744.5206053760003,1744.5206053760003,1744.5206053760003,1744.5206053760003,1744.5206053760003,1744.5206053760003,1744.5206053760003,1,-1,rojo,1,['N_A'],1746.6392616250005,1746.6392616250005,1746.6392616250005,1746.6392616250005,1748.6743920830004,1748.6743920830004,1748.6743920830004,1748.6743920830004,1748.6743920830004,1748.6743920830004,1748.6743920830004,1748.6743920830004,1750.7104082240003,1750.7104082240003,1750.7104082240003,1750.7104082240003,,,,,,,,,,,,,,,,,,,,,,,,,,,,,,,,,,,,,,,01,006,2022-09-23_11h44.52.649,test2,2022.2.4,59.98379669701972,
0,0,0,0,130,0,130,0,1750.7104082240003,1750.7104082240003,1750.7104082240003,1750.7104082240003,1750.7104082240003,1750.7104082240003,1750.7104082240003,-1,-1,azul,0,['N_B'],1752.4286921010007,1752.4286921010007,1752.4286921010007,1752.4286921010007,1754.4643048990001,1754.4643048990001,1754.4643048990001,1754.4643048990001,1754.4643048990001,1754.4643048990001,1754.4643048990001,1754.4643048990001,1756.500014266,1756.500014266,1756.500014266,1756.500014266,,,,,,,,,,,,,,,,,,,,,,,,,,,,,,,,,,,,,,,01,006,2022-09-23_11h44.52.649,test2,2022.2.4,59.98379669701972,
0,0,0,0,131,0,131,0,1756.500014266,1756.500014266,1756.500014266,1756.500014266,1756.500014266,1756.500014266,1756.500014266,1,1,azul,1,['N_B'],1758.9533134860003,1758.9533134860003,1758.9533134860003,1758.9533134860003,1760.988472424,1760.988472424,1760.988472424,1760.988472424,1760.988472424,1760.988472424,1760.988472424,1760.988472424,1763.0237087340001,1763.0237087340001,1763.0237087340001,1763.0237087340001,,,,,,,,,,,,,,,,,,,,,,,,,,,,,,,,,,,,,,,01,006,2022-09-23_11h44.52.649,test2,2022.2.4,59.98379669701972,
0,0,0,0,132,0,132,0,1763.0237087340001,1763.0237087340001,1763.0237087340001,1763.0237087340001,1763.0237087340001,1763.0237087340001,1763.0237087340001,1,-1,azul,0,['N_A'],1764.575670317,1764.575670317,1764.575670317,1764.575670317,1766.6108392080005,1766.6108392080005,1766.6108392080005,1766.6108392080005,1766.6108392080005,1766.6108392080005,1766.6108392080005,1766.6108392080005,1768.6468108790004,1768.6468108790004,1768.6468108790004,1768.6468108790004,,,,,,,,,,,,,,,,,,,,,,,,,,,,,,,,,,,,,,,01,006,2022-09-23_11h44.52.649,test2,2022.2.4,59.98379669701972,
0,0,0,0,133,0,133,0,1768.6468108790004,1768.6468108790004,1768.6468108790004,1768.6468108790004,1768.6468108790004,1768.6468108790004,1768.6468108790004,1,-1,rojo,1,['N_A'],1770.866353292,1770.866353292,1770.866353292,1770.866353292,1772.9016465519999,1772.9016465519999,1772.9016465519999,1772.9016465519999,1772.9016465519999,1772.9016465519999,1772.9016465519999,1772.9016465519999,1774.93718515,1774.93718515,1774.93718515,1774.93718515,,,,,,,,,,,,,,,,,,,,,,,,,,,,,,,,,,,,,,,01,006,2022-09-23_11h44.52.649,test2,2022.2.4,59.98379669701972,
0,0,0,0,134,0,134,0,1774.93718515,1774.93718515,1774.93718515,1774.93718515,1774.93718515,1774.93718515,1774.93718515,1,1,rojo,1,['N_A'],1777.6738354130002,1777.6738354130002,1777.6738354130002,1777.6738354130002,1779.7096944570003,1779.7096944570003,1779.7096944570003,1779.7096944570003,1779.7096944570003,1779.7096944570003,1779.7096944570003,1779.7096944570003,1781.7441601270002,1781.7441601270002,1781.7441601270002,1781.7441601270002,,,,,,,,,,,,,,,,,,,,,,,,,,,,,,,,,,,,,,,01,006,2022-09-23_11h44.52.649,test2,2022.2.4,59.98379669701972,
0,0,0,0,135,0,135,0,1781.7441601270002,1781.7441601270002,1781.7441601270002,1781.7441601270002,1781.7441601270002,1781.7441601270002,1781.7441601270002,1,-1,rojo,0,['N_B'],1785.3819613160003,1785.3819613160003,1785.3819613160003,1785.3819613160003,1787.4180513110005,1787.4180513110005,1787.4180513110005,1787.4180513110005,1787.4180513110005,1787.4180513110005,1787.4180513110005,1787.4180513110005,1789.4532426590004,1789.4532426590004,1789.4532426590004,1789.4532426590004,,,,,,,,,,,,,,,,,,,,,,,,,,,,,,,,,,,,,,,01,006,2022-09-23_11h44.52.649,test2,2022.2.4,59.98379669701972,
0,0,0,0,136,0,136,0,1789.4532426590004,1789.4532426590004,1789.4532426590004,1789.4532426590004,1789.4532426590004,1789.4532426590004,1789.4532426590004,-1,1,rojo,1,['N_B'],1792.5733385029998,1792.5733385029998,1792.5733385029998,1792.5733385029998,1794.5923883680007,1794.5923883680007,1794.5923883680007,1794.5923883680007,1794.5923883680007,1794.5923883680007,1794.5923883680007,1794.5923883680007,1796.6273557940003,1796.6273557940003,1796.6273557940003,1796.6273557940003,,,,,,,,,,,,,,,,,,,,,,,,,,,,,,,,,,,,,,,01,006,2022-09-23_11h44.52.649,test2,2022.2.4,59.98379669701972,
0,0,0,0,137,0,137,0,1796.6273557940003,1796.6273557940003,1796.6273557940003,1796.6273557940003,1796.6273557940003,1796.6273557940003,1796.6273557940003,-1,1,rojo,1,['N_B'],1806.5224770550003,1806.5224770550003,1806.5224770550003,1806.5224770550003,1808.5578404000007,1808.5578404000007,1808.5578404000007,1808.5578404000007,1808.5578404000007,1808.5578404000007,1808.5578404000007,1808.5578404000007,1810.5933296940002,1810.5933296940002,1810.5933296940002,1810.5933296940002,,,,,,,,,,,,,,,,,,,,,,,,,,,,,,,,,,,,,,,01,006,2022-09-23_11h44.52.649,test2,2022.2.4,59.98379669701972,
0,0,0,0,138,0,138,0,1810.5933296940002,1810.5933296940002,1810.5933296940002,1810.5933296940002,1810.5933296940002,1810.5933296940002,1810.5933296940002,1,-1,azul,0,['N_A'],1812.9788526920001,1812.9788526920001,1812.9788526920001,1812.9788526920001,1815.014744211,1815.014744211,1815.014744211,1815.014744211,1815.014744211,1815.014744211,1815.014744211,1815.014744211,1817.0507643370001,1817.0507643370001,1817.0507643370001,1817.0507643370001,,,,,,,,,,,,,,,,,,,,,,,,,,,,,,,,,,,,,,,01,006,2022-09-23_11h44.52.649,test2,2022.2.4,59.98379669701972,
0,0,0,0,139,0,139,0,1817.0507643370001,1817.0507643370001,1817.0507643370001,1817.0507643370001,1817.0507643370001,1817.0507643370001,1817.0507643370001,1,-1,rojo,1,['N_A'],1819.969771487,1819.969771487,1819.969771487,1819.969771487,1822.0052117680007,1822.0052117680007,1822.0052117680007,1822.0052117680007,1822.0052117680007,1822.0052117680007,1822.0052117680007,1822.0052117680007,1824.0410729960004,1824.0410729960004,1824.0410729960004,1824.0410729960004,,,,,,,,,,,,,,,,,,,,,,,,,,,,,,,,,,,,,,,01,006,2022-09-23_11h44.52.649,test2,2022.2.4,59.98379669701972,
0,0,0,0,140,0,140,0,1824.0410729960004,1824.0410729960004,1824.0410729960004,1824.0410729960004,1824.0410729960004,1824.0410729960004,1824.0410729960004,1,1,rojo,1,['N_A'],1826.5269419780007,1826.5269419780007,1826.5269419780007,1826.5269419780007,1828.5632574130004,1828.5632574130004,1828.5632574130004,1828.5632574130004,1828.5632574130004,1828.5632574130004,1828.5632574130004,1828.5632574130004,1830.5979775750002,1830.5979775750002,1830.5979775750002,1830.5979775750002,,,,,,,,,,,,,,,,,,,,,,,,,,,,,,,,,,,,,,,01,006,2022-09-23_11h44.52.649,test2,2022.2.4,59.98379669701972,
0,0,0,0,141,0,141,0,1830.5979775750002,1830.5979775750002,1830.5979775750002,1830.5979775750002,1830.5979775750002,1830.5979775750002,1830.5979775750002,-1,-1,azul,0,['N_B'],1833.8856694679998,1833.8856694679998,1833.8856694679998,1833.8856694679998,1835.921911599,1835.921911599,1835.921911599,1835.921911599,1835.921911599,1835.921911599,1835.921911599,1835.921911599,1837.9563215930002,1837.9563215930002,1837.9563215930002,1837.9563215930002,,,,,,,,,,,,,,,,,,,,,,,,,,,,,,,,,,,,,,,01,006,2022-09-23_11h44.52.649,test2,2022.2.4,59.98379669701972,
0,0,0,0,142,0,142,0,1837.9563215930002,1837.9563215930002,1837.9563215930002,1837.9563215930002,1837.9563215930002,1837.9563215930002,1837.9563215930002,1,-1,azul,1,['N_B'],1840.2761500300003,1840.2761500300003,1840.2761500300003,1840.2761500300003,1842.3112051770004,1842.3112051770004,1842.3112051770004,1842.3112051770004,1842.3112051770004,1842.3112051770004,1842.3112051770004,1842.3112051770004,1844.346841513,1844.346841513,1844.346841513,1844.346841513,,,,,,,,,,,,,,,,,,,,,,,,,,,,,,,,,,,,,,,01,006,2022-09-23_11h44.52.649,test2,2022.2.4,59.98379669701972,
0,0,0,0,143,0,143,0,1844.346841513,1844.346841513,1844.346841513,1844.346841513,1844.346841513,1844.346841513,1844.346841513,1,-1,azul,0,['N_A'],1846.4659217449998,1846.4659217449998,1846.4659217449998,1846.4659217449998,1848.5020736140004,1848.5020736140004,1848.5020736140004,1848.5020736140004,1848.5020736140004,1848.5020736140004,1848.5020736140004,1848.5020736140004,1850.53699107,1850.53699107,1850.53699107,1850.53699107,,,,,,,,,,,,,,,,,,,,,,,,,,,,,,,,,,,,,,,01,006,2022-09-23_11h44.52.649,test2,2022.2.4,59.98379669701972,
0,0,0,0,144,0,144,0,1850.53699107,1850.53699107,1850.53699107,1850.53699107,1850.53699107,1850.53699107,1850.53699107,1,-1,rojo,0,['N_B'],1852.655960174,1852.655960174,1852.655960174,1852.655960174,1854.6916856980006,1854.6916856980006,1854.6916856980006,1854.6916856980006,1854.6916856980006,1854.6916856980006,1854.6916856980006,1854.6916856980006,1856.7276410880004,1856.7276410880004,1856.7276410880004,1856.7276410880004,,,,,,,,,,,,,,,,,,,,,,,,,,,,,,,,,,,,,,,01,006,2022-09-23_11h44.52.649,test2,2022.2.4,59.98379669701972,
0,0,0,0,145,0,145,0,1856.7276410880004,1856.7276410880004,1856.7276410880004,1856.7276410880004,1856.7276410880004,1856.7276410880004,1856.7276410880004,1,1,azul,1,['N_B'],1859.1963091850002,1859.1963091850002,1859.1963091850002,1859.1963091850002,1861.2326606650004,1861.2326606650004,1861.2326606650004,1861.2326606650004,1861.2326606650004,1861.2326606650004,1861.2326606650004,1861.2326606650004,1863.2675477890007,1863.2675477890007,1863.2675477890007,1863.2675477890007,,,,,,,,,,,,,,,,,,,,,,,,,,,,,,,,,,,,,,,01,006,2022-09-23_11h44.52.649,test2,2022.2.4,59.98379669701972,
0,0,0,0,146,0,146,0,1863.2675477890007,1863.2675477890007,1863.2675477890007,1863.2675477890007,1863.2675477890007,1863.2675477890007,1863.2675477890007,-1,-1,rojo,0,['N_A'],1864.9869284650003,1864.9869284650003,1864.9869284650003,1864.9869284650003,1867.0219170629998,1867.0219170629998,1867.0219170629998,1867.0219170629998,1867.0219170629998,1867.0219170629998,1867.0219170629998,1867.0219170629998,1869.0582433170002,1869.0582433170002,1869.0582433170002,1869.0582433170002,,,,,,,,,,,,,,,,,,,,,,,,,,,,,,,,,,,,,,,01,006,2022-09-23_11h44.52.649,test2,2022.2.4,59.98379669701972,
0,0,0,0,147,0,147,0,1869.0582433170002,1869.0582433170002,1869.0582433170002,1869.0582433170002,1869.0582433170002,1869.0582433170002,1869.0582433170002,-1,1,azul,1,['N_A'],1871.0764650730007,1871.0764650730007,1871.0764650730007,1871.0764650730007,1873.0951831510001,1873.0951831510001,1873.0951831510001,1873.0951831510001,1873.0951831510001,1873.0951831510001,1873.0951831510001,1873.0951831510001,1875.1309608430001,1875.1309608430001,1875.1309608430001,1875.1309608430001,,,,,,,,,,,,,,,,,,,,,,,,,,,,,,,,,,,,,,,01,006,2022-09-23_11h44.52.649,test2,2022.2.4,59.98379669701972,
0,0,0,0,148,0,148,0,1875.1309608430001,1875.1309608430001,1875.1309608430001,1875.1309608430001,1875.1309608430001,1875.1309608430001,1875.1309608430001,1,1,rojo,1,['N_A'],1876.782336446,1876.782336446,1876.782336446,1876.782336446,1878.8016809090004,1878.8016809090004,1878.8016809090004,1878.8016809090004,1878.8016809090004,1878.8016809090004,1878.8016809090004,1878.8016809090004,1880.837225442,1880.837225442,1880.837225442,1880.837225442,,,,,,,,,,,,,,,,,,,,,,,,,,,,,,,,,,,,,,,01,006,2022-09-23_11h44.52.649,test2,2022.2.4,59.98379669701972,
0,0,0,0,149,0,149,0,1880.837225442,1880.837225442,1880.837225442,1880.837225442,1880.837225442,1880.837225442,1880.837225442,1,1,rojo,1,['N_A'],1882.7897984320007,1882.7897984320007,1882.7897984320007,1882.7897984320007,1884.8253048800007,1884.8253048800007,1884.8253048800007,1884.8253048800007,1884.8253048800007,1884.8253048800007,1884.8253048800007,1884.8253048800007,1886.8604702890007,1886.8604702890007,1886.8604702890007,1886.8604702890007,,,,,,,,,,,,,,,,,,,,,,,,,,,,,,,,,,,,,,,01,006,2022-09-23_11h44.52.649,test2,2022.2.4,59.98379669701972,
0,0,0,0,150,0,150,0,1886.8604702890007,1886.8604702890007,1886.8604702890007,1886.8604702890007,1886.8604702890007,1886.8604702890007,1886.8604702890007,1,-1,rojo,0,['N_B'],1888.6792832350002,1888.6792832350002,1888.6792832350002,1888.6792832350002,1890.7148860690004,1890.7148860690004,1890.7148860690004,1890.7148860690004,1890.7148860690004,1890.7148860690004,1890.7148860690004,1890.7148860690004,1892.7504583549999,1892.7504583549999,1892.7504583549999,1892.7504583549999,,,,,,,,,,,,,,,,,,,,,,,,,,,,,,,,,,,,,,,01,006,2022-09-23_11h44.52.649,test2,2022.2.4,59.98379669701972,
0,0,0,0,151,0,151,0,1892.7504583549999,1892.7504583549999,1892.7504583549999,1892.7504583549999,1892.7504583549999,1892.7504583549999,1892.7504583549999,-1,-1,rojo,0,['N_A'],1895.8706264250004,1895.8706264250004,1895.8706264250004,1895.8706264250004,1897.9059986470002,1897.9059986470002,1897.9059986470002,1897.9059986470002,1897.9059986470002,1897.9059986470002,1897.9059986470002,1897.9059986470002,1899.9417943630006,1899.9417943630006,1899.9417943630006,1899.9417943630006,,,,,,,,,,,,,,,,,,,,,,,,,,,,,,,,,,,,,,,01,006,2022-09-23_11h44.52.649,test2,2022.2.4,59.98379669701972,
0,0,0,0,152,0,152,0,1899.9417943630006,1899.9417943630006,1899.9417943630006,1899.9417943630006,1899.9417943630006,1899.9417943630006,1899.9417943630006,1,1,rojo,1,['N_A'],1901.794090767,1901.794090767,1901.794090767,1901.794090767,1903.829782588,1903.829782588,1903.829782588,1903.829782588,1903.829782588,1903.829782588,1903.829782588,1903.829782588,1905.8653470570007,1905.8653470570007,1905.8653470570007,1905.8653470570007,,,,,,,,,,,,,,,,,,,,,,,,,,,,,,,,,,,,,,,01,006,2022-09-23_11h44.52.649,test2,2022.2.4,59.98379669701972,
0,0,0,0,153,0,153,0,1905.8653470570007,1905.8653470570007,1905.8653470570007,1905.8653470570007,1905.8653470570007,1905.8653470570007,1905.8653470570007,1,-1,rojo,0,['N_B'],1907.449953145,1907.449953145,1907.449953145,1907.449953145,1909.4849850260007,1909.4849850260007,1909.4849850260007,1909.4849850260007,1909.4849850260007,1909.4849850260007,1909.4849850260007,1909.4849850260007,1911.5211927220007,1911.5211927220007,1911.5211927220007,1911.5211927220007,,,,,,,,,,,,,,,,,,,,,,,,,,,,,,,,,,,,,,,01,006,2022-09-23_11h44.52.649,test2,2022.2.4,59.98379669701972,
0,0,0,0,154,0,154,0,1911.5211927220007,1911.5211927220007,1911.5211927220007,1911.5211927220007,1911.5211927220007,1911.5211927220007,1911.5211927220007,1,-1,azul,1,['N_B'],1913.3568407990006,1913.3568407990006,1913.3568407990006,1913.3568407990006,1915.3916895860002,1915.3916895860002,1915.3916895860002,1915.3916895860002,1915.3916895860002,1915.3916895860002,1915.3916895860002,1915.3916895860002,1917.427511801,1917.427511801,1917.427511801,1917.427511801,,,,,,,,,,,,,,,,,,,,,,,,,,,,,,,,,,,,,,,01,006,2022-09-23_11h44.52.649,test2,2022.2.4,59.98379669701972,
0,0,0,0,155,0,155,0,1917.427511801,1917.427511801,1917.427511801,1917.427511801,1917.427511801,1917.427511801,1917.427511801,-1,-1,rojo,0,['N_A'],1919.1966158149999,1919.1966158149999,1919.1966158149999,1919.1966158149999,1921.2316366570003,1921.2316366570003,1921.2316366570003,1921.2316366570003,1921.2316366570003,1921.2316366570003,1921.2316366570003,1921.2316366570003,1923.2669476460005,1923.2669476460005,1923.2669476460005,1923.2669476460005,,,,,,,,,,,,,,,,,,,,,,,,,,,,,,,,,,,,,,,01,006,2022-09-23_11h44.52.649,test2,2022.2.4,59.98379669701972,
0,0,0,0,156,0,156,0,1923.2669476460005,1923.2669476460005,1923.2669476460005,1923.2669476460005,1923.2669476460005,1923.2669476460005,1923.2669476460005,1,1,rojo,1,['N_A'],1925.2695903069998,1925.2695903069998,1925.2695903069998,1925.2695903069998,1927.2881494210005,1927.2881494210005,1927.2881494210005,1927.2881494210005,1927.2881494210005,1927.2881494210005,1927.2881494210005,1927.2881494210005,1929.3243513090001,1929.3243513090001,1929.3243513090001,1929.3243513090001,,,,,,,,,,,,,,,,,,,,,,,,,,,,,,,,,,,,,,,01,006,2022-09-23_11h44.52.649,test2,2022.2.4,59.98379669701972,
0,0,0,0,157,0,157,0,1929.3243513090001,1929.3243513090001,1929.3243513090001,1929.3243513090001,1929.3243513090001,1929.3243513090001,1929.3243513090001,-1,1,azul,1,['N_A'],1932.777736481,1932.777736481,1932.777736481,1932.777736481,1934.8140117890007,1934.8140117890007,1934.8140117890007,1934.8140117890007,1934.8140117890007,1934.8140117890007,1934.8140117890007,1934.8140117890007,1936.8492677570002,1936.8492677570002,1936.8492677570002,1936.8492677570002,,,,,,,,,,,,,,,,,,,,,,,,,,,,,,,,,,,,,,,01,006,2022-09-23_11h44.52.649,test2,2022.2.4,59.98379669701972,
0,0,0,0,158,0,158,0,1936.8492677570002,1936.8492677570002,1936.8492677570002,1936.8492677570002,1936.8492677570002,1936.8492677570002,1936.8492677570002,1,-1,rojo,0,['N_B'],1939.3518162130003,1939.3518162130003,1939.3518162130003,1939.3518162130003,1941.388101726,1941.388101726,1941.388101726,1941.388101726,1941.388101726,1941.388101726,1941.388101726,1941.388101726,1943.4228830000002,1943.4228830000002,1943.4228830000002,1943.4228830000002,,,,,,,,,,,,,,,,,,,,,,,,,,,,,,,,,,,,,,,01,006,2022-09-23_11h44.52.649,test2,2022.2.4,59.98379669701972,
0,0,0,0,159,0,159,0,1943.4228830000002,1943.4228830000002,1943.4228830000002,1943.4228830000002,1943.4228830000002,1943.4228830000002,1943.4228830000002,1,-1,azul,0,['N_A'],1951.8657035140004,1951.8657035140004,1951.8657035140004,1951.8657035140004,1953.901749097,1953.901749097,1953.901749097,1953.901749097,1953.901749097,1953.901749097,1953.901749097,1953.901749097,1955.9374677740007,1955.9374677740007,1955.9374677740007,1955.9374677740007,,,,,,,,,,,,,,,,,,,,,,,,,,,,,,,,,,,,,,,01,006,2022-09-23_11h44.52.649,test2,2022.2.4,59.98379669701972,
0,0,0,0,160,0,160,0,1955.9374677740007,1955.9374677740007,1955.9374677740007,1955.9374677740007,1955.9374677740007,1955.9374677740007,1955.9374677740007,1,1,rojo,1,['N_A'],1957.7885340620005,1957.7885340620005,1957.7885340620005,1957.7885340620005,1959.807900629,1959.807900629,1959.807900629,1959.807900629,1959.807900629,1959.807900629,1959.807900629,1959.807900629,1961.8431761330003,1961.8431761330003,1961.8431761330003,1961.8431761330003,,,,,,,,,,,,,,,,,,,,,,,,,,,,,,,,,,,,,,,01,006,2022-09-23_11h44.52.649,test2,2022.2.4,59.98379669701972,
0,0,0,0,161,0,161,0,1961.8431761330003,1961.8431761330003,1961.8431761330003,1961.8431761330003,1961.8431761330003,1961.8431761330003,1961.8431761330003,-1,1,azul,1,['N_A'],1963.7956374250007,1963.7956374250007,1963.7956374250007,1963.7956374250007,1965.8142892100004,1965.8142892100004,1965.8142892100004,1965.8142892100004,1965.8142892100004,1965.8142892100004,1965.8142892100004,1965.8142892100004,1967.8497763599999,1967.8497763599999,1967.8497763599999,1967.8497763599999,,,,,,,,,,,,,,,,,,,,,,,,,,,,,,,,,,,,,,,01,006,2022-09-23_11h44.52.649,test2,2022.2.4,59.98379669701972,
0,0,0,0,162,0,162,0,1967.8497763599999,1967.8497763599999,1967.8497763599999,1967.8497763599999,1967.8497763599999,1967.8497763599999,1967.8497763599999,1,1,rojo,1,['N_A'],1970.2361205080006,1970.2361205080006,1970.2361205080006,1970.2361205080006,1972.2719682410006,1972.2719682410006,1972.2719682410006,1972.2719682410006,1972.2719682410006,1972.2719682410006,1972.2719682410006,1972.2719682410006,1974.3070022720003,1974.3070022720003,1974.3070022720003,1974.3070022720003,,,,,,,,,,,,,,,,,,,,,,,,,,,,,,,,,,,,,,,01,006,2022-09-23_11h44.52.649,test2,2022.2.4,59.98379669701972,
0,0,0,0,163,0,163,0,1974.3070022720003,1974.3070022720003,1974.3070022720003,1974.3070022720003,1974.3070022720003,1974.3070022720003,1974.3070022720003,1,-1,rojo,0,['N_B'],1976.7593080900006,1976.7593080900006,1976.7593080900006,1976.7593080900006,1978.795613143,1978.795613143,1978.795613143,1978.795613143,1978.795613143,1978.795613143,1978.795613143,1978.795613143,1980.8307890690003,1980.8307890690003,1980.8307890690003,1980.8307890690003,,,,,,,,,,,,,,,,,,,,,,,,,,,,,,,,,,,,,,,01,006,2022-09-23_11h44.52.649,test2,2022.2.4,59.98379669701972,
0,0,0,0,164,0,164,0,1980.8307890690003,1980.8307890690003,1980.8307890690003,1980.8307890690003,1980.8307890690003,1980.8307890690003,1980.8307890690003,1,-1,azul,1,['N_B'],1983.6001952510005,1983.6001952510005,1983.6001952510005,1983.6001952510005,1985.6364874540004,1985.6364874540004,1985.6364874540004,1985.6364874540004,1985.6364874540004,1985.6364874540004,1985.6364874540004,1985.6364874540004,1987.6722035840003,1987.6722035840003,1987.6722035840003,1987.6722035840003,,,,,,,,,,,,,,,,,,,,,,,,,,,,,,,,,,,,,,,01,006,2022-09-23_11h44.52.649,test2,2022.2.4,59.98379669701972,
0,0,0,0,165,0,165,0,1987.6722035840003,1987.6722035840003,1987.6722035840003,1987.6722035840003,1987.6722035840003,1987.6722035840003,1987.6722035840003,-1,1,rojo,1,['N_B'],1989.6573940690005,1989.6573940690005,1989.6573940690005,1989.6573940690005,1991.676067884,1991.676067884,1991.676067884,1991.676067884,1991.676067884,1991.676067884,1991.676067884,1991.676067884,1993.7119869570006,1993.7119869570006,1993.7119869570006,1993.7119869570006,,,,,,,,,,,,,,,,,,,,,,,,,,,,,,,,,,,,,,,01,006,2022-09-23_11h44.52.649,test2,2022.2.4,59.98379669701972,
0,0,0,0,166,0,166,0,1993.7119869570006,1993.7119869570006,1993.7119869570006,1993.7119869570006,1993.7119869570006,1993.7119869570006,1993.7119869570006,1,1,azul,1,['N_B'],1995.8470670400002,1995.8470670400002,1995.8470670400002,1995.8470670400002,1997.8670261750003,1997.8670261750003,1997.8670261750003,1997.8670261750003,1997.8670261750003,1997.8670261750003,1997.8670261750003,1997.8670261750003,1999.9024798790006,1999.9024798790006,1999.9024798790006,1999.9024798790006,,,,,,,,,,,,,,,,,,,,,,,,,,,,,,,,,,,,,,,01,006,2022-09-23_11h44.52.649,test2,2022.2.4,59.98379669701972,
0,0,0,0,167,0,167,0,1999.9024798790006,1999.9024798790006,1999.9024798790006,1999.9024798790006,1999.9024798790006,1999.9024798790006,1999.9024798790006,1,1,azul,1,['N_B'],2006.8595602780006,2006.8595602780006,2006.8595602780006,2006.8595602780006,2008.895198405,2008.895198405,2008.895198405,2008.895198405,2008.895198405,2008.895198405,2008.895198405,2008.895198405,2010.9304288290004,2010.9304288290004,2010.9304288290004,2010.9304288290004,,,,,,,,,,,,,,,,,,,,,,,,,,,,,,,,,,,,,,,01,006,2022-09-23_11h44.52.649,test2,2022.2.4,59.98379669701972,
0,0,0,0,168,0,168,0,2010.9304288290004,2010.9304288290004,2010.9304288290004,2010.9304288290004,2010.9304288290004,2010.9304288290004,2010.9304288290004,1,-1,azul,0,['N_A'],2012.615698867,2012.615698867,2012.615698867,2012.615698867,2014.651993845,2014.651993845,2014.651993845,2014.651993845,2014.651993845,2014.651993845,2014.651993845,2014.651993845,2016.687562059,2016.687562059,2016.687562059,2016.687562059,,,,,,,,,,,,,,,,,,,,,,,,,,,,,,,,,,,,,,,01,006,2022-09-23_11h44.52.649,test2,2022.2.4,59.98379669701972,
0,0,0,0,169,0,169,0,2016.687562059,2016.687562059,2016.687562059,2016.687562059,2016.687562059,2016.687562059,2016.687562059,1,1,rojo,1,['N_A'],2019.5566454560003,2019.5566454560003,2019.5566454560003,2019.5566454560003,2021.575964435,2021.575964435,2021.575964435,2021.575964435,2021.575964435,2021.575964435,2021.575964435,2021.575964435,2023.6112995450003,2023.6112995450003,2023.6112995450003,2023.6112995450003,,,,,,,,,,,,,,,,,,,,,,,,,,,,,,,,,,,,,,,01,006,2022-09-23_11h44.52.649,test2,2022.2.4,59.98379669701972,
0,0,0,0,170,0,170,0,2023.6112995450003,2023.6112995450003,2023.6112995450003,2023.6112995450003,2023.6112995450003,2023.6112995450003,2023.6112995450003,-1,1,azul,1,['N_A'],2025.9471153250006,2025.9471153250006,2025.9471153250006,2025.9471153250006,2027.965682033001,2027.965682033001,2027.965682033001,2027.965682033001,2027.965682033001,2027.965682033001,2027.965682033001,2027.965682033001,2030.0016888119999,2030.0016888119999,2030.0016888119999,2030.0016888119999,,,,,,,,,,,,,,,,,,,,,,,,,,,,,,,,,,,,,,,01,006,2022-09-23_11h44.52.649,test2,2022.2.4,59.98379669701972,
0,0,0,0,171,0,171,0,2030.0016888119999,2030.0016888119999,2030.0016888119999,2030.0016888119999,2030.0016888119999,2030.0016888119999,2030.0016888119999,-1,1,azul,1,['N_A'],2033.0220623710002,2033.0220623710002,2033.0220623710002,2033.0220623710002,2035.057832593001,2035.057832593001,2035.057832593001,2035.057832593001,2035.057832593001,2035.057832593001,2035.057832593001,2035.057832593001,2037.0926675250003,2037.0926675250003,2037.0926675250003,2037.0926675250003,,,,,,,,,,,,,,,,,,,,,,,,,,,,,,,,,,,,,,,01,006,2022-09-23_11h44.52.649,test2,2022.2.4,59.98379669701972,
0,0,0,0,172,0,172,0,2037.0926675250003,2037.0926675250003,2037.0926675250003,2037.0926675250003,2037.0926675250003,2037.0926675250003,2037.0926675250003,1,-1,rojo,0,['N_B'],2039.913240746001,2039.913240746001,2039.913240746001,2039.913240746001,2041.948662748001,2041.948662748001,2041.948662748001,2041.948662748001,2041.948662748001,2041.948662748001,2041.948662748001,2041.948662748001,2043.9837456140003,2043.9837456140003,2043.9837456140003,2043.9837456140003,,,,,,,,,,,,,,,,,,,,,,,,,,,,,,,,,,,,,,,01,006,2022-09-23_11h44.52.649,test2,2022.2.4,59.98379669701972,
0,0,0,0,173,0,173,0,2043.9837456140003,2043.9837456140003,2043.9837456140003,2043.9837456140003,2043.9837456140003,2043.9837456140003,2043.9837456140003,1,-1,azul,0,['N_A'],2046.2864887260012,2046.2864887260012,2046.2864887260012,2046.2864887260012,2048.3213325740007,2048.3213325740007,2048.3213325740007,2048.3213325740007,2048.3213325740007,2048.3213325740007,2048.3213325740007,2048.3213325740007,2050.357919878,2050.357919878,2050.357919878,2050.357919878,,,,,,,,,,,,,,,,,,,,,,,,,,,,,,,,,,,,,,,01,006,2022-09-23_11h44.52.649,test2,2022.2.4,59.98379669701972,
0,0,0,0,174,0,174,0,2050.357919878,2050.357919878,2050.357919878,2050.357919878,2050.357919878,2050.357919878,2050.357919878,-1,-1,azul,1,['N_A'],2052.0925952770003,2052.0925952770003,2052.0925952770003,2052.0925952770003,2054.1281634790002,2054.1281634790002,2054.1281634790002,2054.1281634790002,2054.1281634790002,2054.1281634790002,2054.1281634790002,2054.1281634790002,2056.164637185001,2056.164637185001,2056.164637185001,2056.164637185001,,,,,,,,,,,,,,,,,,,,,,,,,,,,,,,,,,,,,,,01,006,2022-09-23_11h44.52.649,test2,2022.2.4,59.98379669701972,
0,0,0,0,175,0,175,0,2056.164637185001,2056.164637185001,2056.164637185001,2056.164637185001,2056.164637185001,2056.164637185001,2056.164637185001,-1,-1,azul,0,['N_B'],2057.848932707001,2057.848932707001,2057.848932707001,2057.848932707001,2059.8850279379994,2059.8850279379994,2059.8850279379994,2059.8850279379994,2059.8850279379994,2059.8850279379994,2059.8850279379994,2059.8850279379994,2061.920807251,2061.920807251,2061.920807251,2061.920807251,,,,,,,,,,,,,,,,,,,,,,,,,,,,,,,,,,,,,,,01,006,2022-09-23_11h44.52.649,test2,2022.2.4,59.98379669701972,
0,0,0,0,176,0,176,0,2061.920807251,2061.920807251,2061.920807251,2061.920807251,2061.920807251,2061.920807251,2061.920807251,1,1,azul,1,['N_B'],2063.505463499,2063.505463499,2063.505463499,2063.505463499,2065.525157751,2065.525157751,2065.525157751,2065.525157751,2065.525157751,2065.525157751,2065.525157751,2065.525157751,2067.560754143001,2067.560754143001,2067.560754143001,2067.560754143001,,,,,,,,,,,,,,,,,,,,,,,,,,,,,,,,,,,,,,,01,006,2022-09-23_11h44.52.649,test2,2022.2.4,59.98379669701972,
0,0,0,0,177,0,177,0,2067.560754143001,2067.560754143001,2067.560754143001,2067.560754143001,2067.560754143001,2067.560754143001,2067.560754143001,1,1,azul,0,['N_A'],2069.2455679799996,2069.2455679799996,2069.2455679799996,2069.2455679799996,2071.263939521,2071.263939521,2071.263939521,2071.263939521,2071.263939521,2071.263939521,2071.263939521,2071.263939521,2073.2991628459995,2073.2991628459995,2073.2991628459995,2073.2991628459995,,,,,,,,,,,,,,,,,,,,,,,,,,,,,,,,,,,,,,,01,006,2022-09-23_11h44.52.649,test2,2022.2.4,59.98379669701972,
