trials_2.thisRepN,trials_2.thisTrialN,trials_2.thisN,trials_2.thisIndex,trials.thisRepN,trials.thisTrialN,trials.thisN,trials.thisIndex,Instrucción2.started,N_A_4.started,N_B_4.started,Exitos_3.started,Dias_3.started,Stimuli_1.started,Stimuli_2.started,Transitions,Rewards,Mode,Stay,Neighbour,Stimuli_3.started,Modo.started,Dias2.started,Exitos2.started,Stimuli_3.stopped,Modo.stopped,Dias2.stopped,Exitos2.stopped,Reward.started,Stimuli_reward.started,Exitos3.started,Dias3.started,Reward.stopped,Stimuli_reward.stopped,Exitos3.stopped,Dias3.stopped,Cue_text.started,Stimuli_4.started,Exitos4.started,Dias4.started,Stimuli_3_3.started,Stimuli_2_3.started,Instrucción.started,N_A.started,N_B.started,N_C.started,Exitos_2.started,Dias_2.started,Stimuli_1_3.started,Stimuli_3_2.started,Stimuli_2_2.started,Pregunta.started,N_A_2.started,N_B_2.started,N_C_2.started,Exitos5.started,Dias5.started,Stimuli_1_2.started,Resp_final_1,Modo2.started,Modo1.started,Pregunta_4.started,Modo3.started,Exitos7.started,Dias6.started,Resp_final_2,Modo1_2.started,Pregunta_3.started,Modo2_2.started,Exitos8.started,Dias7.started,Resp_final_3,Mensaje_Final2.started,Exitos6.started,participant,session,date,expName,psychopyVersion,frameRate,
0,0,0,0,0,0,0,0,983.6556215509999,983.6556215509999,983.6556215509999,983.6556215509999,983.6556215509999,983.6556215509999,983.6556215509999,0,0,0,0,['N_A'],989.326291553,989.326291553,989.326291553,989.326291553,991.396209551,991.396209551,991.396209551,991.396209551,991.396209551,991.396209551,991.396209551,991.396209551,993.4320691859999,993.4320691859999,993.4320691859999,993.4320691859999,,,,,,,,,,,,,,,,,,,,,,,,,,,,,,,,,,,,,,,01,012,2022-09-27_14h38.28.289,test2,2022.2.4,59.934160526580094,
0,0,0,0,1,0,1,0,993.4320691859999,993.4320691859999,993.4320691859999,993.4320691859999,993.4320691859999,993.4320691859999,993.4320691859999,1,1,rojo,0,['N_B'],997.0200296520001,997.0200296520001,997.0200296520001,997.0200296520001,999.0887919579999,999.0887919579999,999.0887919579999,999.0887919579999,999.0887919579999,999.0887919579999,999.0887919579999,999.0887919579999,1001.1242244379999,1001.1242244379999,1001.1242244379999,1001.1242244379999,,,,,,,,,,,,,,,,,,,,,,,,,,,,,,,,,,,,,,,01,012,2022-09-27_14h38.28.289,test2,2022.2.4,59.934160526580094,
0,0,0,0,2,0,2,0,1001.1242244379999,1001.1242244379999,1001.1242244379999,1001.1242244379999,1001.1242244379999,1001.1242244379999,1001.1242244379999,1,-1,azul,0,['N_A'],1003.159414997,1003.159414997,1003.159414997,1003.159414997,1005.1954653249999,1005.1954653249999,1005.1954653249999,1005.1954653249999,1005.1954653249999,1005.1954653249999,1005.1954653249999,1005.1954653249999,1007.2307388379999,1007.2307388379999,1007.2307388379999,1007.2307388379999,,,,,,,,,,,,,,,,,,,,,,,,,,,,,,,,,,,,,,,01,012,2022-09-27_14h38.28.289,test2,2022.2.4,59.934160526580094,
0,0,0,0,3,0,3,0,1007.2307388379999,1007.2307388379999,1007.2307388379999,1007.2307388379999,1007.2307388379999,1007.2307388379999,1007.2307388379999,1,-1,rojo,1,['N_A'],1009.783466881,1009.783466881,1009.783466881,1009.783466881,1011.8198985329999,1011.8198985329999,1011.8198985329999,1011.8198985329999,1011.8198985329999,1011.8198985329999,1011.8198985329999,1011.8198985329999,1013.8548720289999,1013.8548720289999,1013.8548720289999,1013.8548720289999,,,,,,,,,,,,,,,,,,,,,,,,,,,,,,,,,,,,,,,01,012,2022-09-27_14h38.28.289,test2,2022.2.4,59.934160526580094,
0,0,0,0,4,0,4,0,1013.8548720289999,1013.8548720289999,1013.8548720289999,1013.8548720289999,1013.8548720289999,1013.8548720289999,1013.8548720289999,1,1,rojo,1,['N_A'],1015.4062698399999,1015.4062698399999,1015.4062698399999,1015.4062698399999,1017.425046724,1017.425046724,1017.425046724,1017.425046724,1017.425046724,1017.425046724,1017.425046724,1017.425046724,1019.4609376729999,1019.4609376729999,1019.4609376729999,1019.4609376729999,,,,,,,,,,,,,,,,,,,,,,,,,,,,,,,,,,,,,,,01,012,2022-09-27_14h38.28.289,test2,2022.2.4,59.934160526580094,
0,0,0,0,5,0,5,0,1019.4609376729999,1019.4609376729999,1019.4609376729999,1019.4609376729999,1019.4609376729999,1019.4609376729999,1019.4609376729999,1,1,rojo,0,['N_B'],1022.180664054,1022.180664054,1022.180664054,1022.180664054,1024.2163370810001,1024.2163370810001,1024.2163370810001,1024.2163370810001,1024.2163370810001,1024.2163370810001,1024.2163370810001,1024.2163370810001,1026.2517913400002,1026.2517913400002,1026.2517913400002,1026.2517913400002,,,,,,,,,,,,,,,,,,,,,,,,,,,,,,,,,,,,,,,01,012,2022-09-27_14h38.28.289,test2,2022.2.4,59.934160526580094,
0,0,0,0,6,0,6,0,1026.2517913400002,1026.2517913400002,1026.2517913400002,1026.2517913400002,1026.2517913400002,1026.2517913400002,1026.2517913400002,1,-1,azul,0,['N_A'],1027.7534028960001,1027.7534028960001,1027.7534028960001,1027.7534028960001,1029.789134306,1029.789134306,1029.789134306,1029.789134306,1029.789134306,1029.789134306,1029.789134306,1029.789134306,1031.8247566700002,1031.8247566700002,1031.8247566700002,1031.8247566700002,,,,,,,,,,,,,,,,,,,,,,,,,,,,,,,,,,,,,,,01,012,2022-09-27_14h38.28.289,test2,2022.2.4,59.934160526580094,
0,0,0,0,7,0,7,0,1031.8247566700002,1031.8247566700002,1031.8247566700002,1031.8247566700002,1031.8247566700002,1031.8247566700002,1031.8247566700002,-1,1,azul,1,['N_A'],1033.426831384,1033.426831384,1033.426831384,1033.426831384,1035.443894575,1035.443894575,1035.443894575,1035.443894575,1035.443894575,1035.443894575,1035.443894575,1035.443894575,1037.480652253,1037.480652253,1037.480652253,1037.480652253,,,,,,,,,,,,,,,,,,,,,,,,,,,,,,,,,,,,,,,01,012,2022-09-27_14h38.28.289,test2,2022.2.4,59.934160526580094,
0,0,0,0,8,0,8,0,1037.480652253,1037.480652253,1037.480652253,1037.480652253,1037.480652253,1037.480652253,1037.480652253,-1,1,azul,1,['N_A'],1038.9663919870002,1038.9663919870002,1038.9663919870002,1038.9663919870002,1040.985054641,1040.985054641,1040.985054641,1040.985054641,1040.985054641,1040.985054641,1040.985054641,1040.985054641,1043.0201162,1043.0201162,1043.0201162,1043.0201162,,,,,,,,,,,,,,,,,,,,,,,,,,,,,,,,,,,,,,,01,012,2022-09-27_14h38.28.289,test2,2022.2.4,59.934160526580094,
0,0,0,0,9,0,9,0,1043.0201162,1043.0201162,1043.0201162,1043.0201162,1043.0201162,1043.0201162,1043.0201162,-1,1,azul,1,['N_A'],1044.489157574,1044.489157574,1044.489157574,1044.489157574,1046.50769293,1046.50769293,1046.50769293,1046.50769293,1046.50769293,1046.50769293,1046.50769293,1046.50769293,1048.543224303,1048.543224303,1048.543224303,1048.543224303,,,,,,,,,,,,,,,,,,,,,,,,,,,,,,,,,,,,,,,01,012,2022-09-27_14h38.28.289,test2,2022.2.4,59.934160526580094,
0,0,0,0,10,0,10,0,1048.543224303,1048.543224303,1048.543224303,1048.543224303,1048.543224303,1048.543224303,1048.543224303,-1,1,azul,1,['N_A'],1049.928030519,1049.928030519,1049.928030519,1049.928030519,1051.9638943680002,1051.9638943680002,1051.9638943680002,1051.9638943680002,1051.9638943680002,1051.9638943680002,1051.9638943680002,1051.9638943680002,1053.999556986,1053.999556986,1053.999556986,1053.999556986,,,,,,,,,,,,,,,,,,,,,,,,,,,,,,,,,,,,,,,01,012,2022-09-27_14h38.28.289,test2,2022.2.4,59.934160526580094,
0,0,0,0,11,0,11,0,1053.999556986,1053.999556986,1053.999556986,1053.999556986,1053.999556986,1053.999556986,1053.999556986,1,-1,rojo,1,['N_A'],1055.467832179,1055.467832179,1055.467832179,1055.467832179,1057.5037647460001,1057.5037647460001,1057.5037647460001,1057.5037647460001,1057.5037647460001,1057.5037647460001,1057.5037647460001,1057.5037647460001,1059.5386240280002,1059.5386240280002,1059.5386240280002,1059.5386240280002,,,,,,,,,,,,,,,,,,,,,,,,,,,,,,,,,,,,,,,01,012,2022-09-27_14h38.28.289,test2,2022.2.4,59.934160526580094,
0,0,0,0,12,0,12,0,1059.5386240280002,1059.5386240280002,1059.5386240280002,1059.5386240280002,1059.5386240280002,1059.5386240280002,1059.5386240280002,1,-1,rojo,0,['N_B'],1061.2577942730002,1061.2577942730002,1061.2577942730002,1061.2577942730002,1063.2926135320001,1063.2926135320001,1063.2926135320001,1063.2926135320001,1063.2926135320001,1063.2926135320001,1063.2926135320001,1063.2926135320001,1065.32797882,1065.32797882,1065.32797882,1065.32797882,,,,,,,,,,,,,,,,,,,,,,,,,,,,,,,,,,,,,,,01,012,2022-09-27_14h38.28.289,test2,2022.2.4,59.934160526580094,
0,0,0,0,13,0,13,0,1065.32797882,1065.32797882,1065.32797882,1065.32797882,1065.32797882,1065.32797882,1065.32797882,1,-1,azul,0,['N_A'],1066.746811529,1066.746811529,1066.746811529,1066.746811529,1068.782723576,1068.782723576,1068.782723576,1068.782723576,1068.782723576,1068.782723576,1068.782723576,1068.782723576,1070.817922376,1070.817922376,1070.817922376,1070.817922376,,,,,,,,,,,,,,,,,,,,,,,,,,,,,,,,,,,,,,,01,012,2022-09-27_14h38.28.289,test2,2022.2.4,59.934160526580094,
0,0,0,0,14,0,14,0,1070.817922376,1070.817922376,1070.817922376,1070.817922376,1070.817922376,1070.817922376,1070.817922376,-1,-1,azul,1,['N_A'],1072.403398975,1072.403398975,1072.403398975,1072.403398975,1074.4389038250001,1074.4389038250001,1074.4389038250001,1074.4389038250001,1074.4389038250001,1074.4389038250001,1074.4389038250001,1074.4389038250001,1076.4746528100002,1076.4746528100002,1076.4746528100002,1076.4746528100002,,,,,,,,,,,,,,,,,,,,,,,,,,,,,,,,,,,,,,,01,012,2022-09-27_14h38.28.289,test2,2022.2.4,59.934160526580094,
0,0,0,0,15,0,15,0,1076.4746528100002,1076.4746528100002,1076.4746528100002,1076.4746528100002,1076.4746528100002,1076.4746528100002,1076.4746528100002,1,1,rojo,1,['N_A'],1077.875743533,1077.875743533,1077.875743533,1077.875743533,1079.911365697,1079.911365697,1079.911365697,1079.911365697,1079.911365697,1079.911365697,1079.911365697,1079.911365697,1081.946823487,1081.946823487,1081.946823487,1081.946823487,,,,,,,,,,,,,,,,,,,,,,,,,,,,,,,,,,,,,,,01,012,2022-09-27_14h38.28.289,test2,2022.2.4,59.934160526580094,
0,0,0,0,16,0,16,0,1081.946823487,1081.946823487,1081.946823487,1081.946823487,1081.946823487,1081.946823487,1081.946823487,1,-1,rojo,1,['N_A'],1083.315178539,1083.315178539,1083.315178539,1083.315178539,1085.3512205650002,1085.3512205650002,1085.3512205650002,1085.3512205650002,1085.3512205650002,1085.3512205650002,1085.3512205650002,1085.3512205650002,1087.386486311,1087.386486311,1087.386486311,1087.386486311,,,,,,,,,,,,,,,,,,,,,,,,,,,,,,,,,,,,,,,01,012,2022-09-27_14h38.28.289,test2,2022.2.4,59.934160526580094,
0,0,0,0,17,0,17,0,1087.386486311,1087.386486311,1087.386486311,1087.386486311,1087.386486311,1087.386486311,1087.386486311,1,1,rojo,1,['N_A'],1089.7386334940002,1089.7386334940002,1089.7386334940002,1089.7386334940002,1091.774140829,1091.774140829,1091.774140829,1091.774140829,1091.774140829,1091.774140829,1091.774140829,1091.774140829,1093.8096184360002,1093.8096184360002,1093.8096184360002,1093.8096184360002,,,,,,,,,,,,,,,,,,,,,,,,,,,,,,,,,,,,,,,01,012,2022-09-27_14h38.28.289,test2,2022.2.4,59.934160526580094,
0,0,0,0,18,0,18,0,1093.8096184360002,1093.8096184360002,1093.8096184360002,1093.8096184360002,1093.8096184360002,1093.8096184360002,1093.8096184360002,1,-1,rojo,1,['N_A'],1095.461842246,1095.461842246,1095.461842246,1095.461842246,1097.4974463380001,1097.4974463380001,1097.4974463380001,1097.4974463380001,1097.4974463380001,1097.4974463380001,1097.4974463380001,1097.4974463380001,1099.533253844,1099.533253844,1099.533253844,1099.533253844,,,,,,,,,,,,,,,,,,,,,,,,,,,,,,,,,,,,,,,01,012,2022-09-27_14h38.28.289,test2,2022.2.4,59.934160526580094,
0,0,0,0,19,0,19,0,1099.533253844,1099.533253844,1099.533253844,1099.533253844,1099.533253844,1099.533253844,1099.533253844,-1,-1,azul,0,['N_B'],1101.134598246,1101.134598246,1101.134598246,1101.134598246,1103.1694413930002,1103.1694413930002,1103.1694413930002,1103.1694413930002,1103.1694413930002,1103.1694413930002,1103.1694413930002,1103.1694413930002,1105.2056537150002,1105.2056537150002,1105.2056537150002,1105.2056537150002,,,,,,,,,,,,,,,,,,,,,,,,,,,,,,,,,,,,,,,01,012,2022-09-27_14h38.28.289,test2,2022.2.4,59.934160526580094,
0,0,0,0,20,0,20,0,1105.2056537150002,1105.2056537150002,1105.2056537150002,1105.2056537150002,1105.2056537150002,1105.2056537150002,1105.2056537150002,1,-1,azul,1,['N_B'],1106.5736065840001,1106.5736065840001,1106.5736065840001,1106.5736065840001,1108.610053067,1108.610053067,1108.610053067,1108.610053067,1108.610053067,1108.610053067,1108.610053067,1108.610053067,1110.6452278660001,1110.6452278660001,1110.6452278660001,1110.6452278660001,,,,,,,,,,,,,,,,,,,,,,,,,,,,,,,,,,,,,,,01,012,2022-09-27_14h38.28.289,test2,2022.2.4,59.934160526580094,
0,0,0,0,21,0,21,0,1110.6452278660001,1110.6452278660001,1110.6452278660001,1110.6452278660001,1110.6452278660001,1110.6452278660001,1110.6452278660001,1,-1,azul,0,['N_A'],1112.330206071,1112.330206071,1112.330206071,1112.330206071,1114.36590897,1114.36590897,1114.36590897,1114.36590897,1114.36590897,1114.36590897,1114.36590897,1114.36590897,1116.401511666,1116.401511666,1116.401511666,1116.401511666,,,,,,,,,,,,,,,,,,,,,,,,,,,,,,,,,,,,,,,01,012,2022-09-27_14h38.28.289,test2,2022.2.4,59.934160526580094,
0,0,0,0,22,0,22,0,1116.401511666,1116.401511666,1116.401511666,1116.401511666,1116.401511666,1116.401511666,1116.401511666,-1,1,azul,1,['N_A'],1117.786728651,1117.786728651,1117.786728651,1117.786728651,1119.821825294,1119.821825294,1119.821825294,1119.821825294,1119.821825294,1119.821825294,1119.821825294,1119.821825294,1121.85762331,1121.85762331,1121.85762331,1121.85762331,,,,,,,,,,,,,,,,,,,,,,,,,,,,,,,,,,,,,,,01,012,2022-09-27_14h38.28.289,test2,2022.2.4,59.934160526580094,
0,0,0,0,23,0,23,0,1121.85762331,1121.85762331,1121.85762331,1121.85762331,1121.85762331,1121.85762331,1121.85762331,-1,-1,azul,1,['N_A'],1123.325495284,1123.325495284,1123.325495284,1123.325495284,1125.3609513840001,1125.3609513840001,1125.3609513840001,1125.3609513840001,1125.3609513840001,1125.3609513840001,1125.3609513840001,1125.3609513840001,1127.396619569,1127.396619569,1127.396619569,1127.396619569,,,,,,,,,,,,,,,,,,,,,,,,,,,,,,,,,,,,,,,01,012,2022-09-27_14h38.28.289,test2,2022.2.4,59.934160526580094,
0,0,0,0,24,0,24,0,1127.396619569,1127.396619569,1127.396619569,1127.396619569,1127.396619569,1127.396619569,1127.396619569,-1,1,azul,1,['N_A'],1129.249090263,1129.249090263,1129.249090263,1129.249090263,1131.2665299520002,1131.2665299520002,1131.2665299520002,1131.2665299520002,1131.2665299520002,1131.2665299520002,1131.2665299520002,1131.2665299520002,1133.303593912,1133.303593912,1133.303593912,1133.303593912,,,,,,,,,,,,,,,,,,,,,,,,,,,,,,,,,,,,,,,01,012,2022-09-27_14h38.28.289,test2,2022.2.4,59.934160526580094,
0,0,0,0,25,0,25,0,1133.303593912,1133.303593912,1133.303593912,1133.303593912,1133.303593912,1133.303593912,1133.303593912,1,1,rojo,1,['N_A'],1134.321448716,1134.321448716,1134.321448716,1134.321448716,1136.357189794,1136.357189794,1136.357189794,1136.357189794,1136.357189794,1136.357189794,1136.357189794,1136.357189794,1138.3920866170001,1138.3920866170001,1138.3920866170001,1138.3920866170001,,,,,,,,,,,,,,,,,,,,,,,,,,,,,,,,,,,,,,,01,012,2022-09-27_14h38.28.289,test2,2022.2.4,59.934160526580094,
0,0,0,0,26,0,26,0,1138.3920866170001,1138.3920866170001,1138.3920866170001,1138.3920866170001,1138.3920866170001,1138.3920866170001,1138.3920866170001,-1,-1,azul,1,['N_A'],1139.810219493,1139.810219493,1139.810219493,1139.810219493,1141.8460043060002,1141.8460043060002,1141.8460043060002,1141.8460043060002,1141.8460043060002,1141.8460043060002,1141.8460043060002,1141.8460043060002,1143.882005675,1143.882005675,1143.882005675,1143.882005675,,,,,,,,,,,,,,,,,,,,,,,,,,,,,,,,,,,,,,,01,012,2022-09-27_14h38.28.289,test2,2022.2.4,59.934160526580094,
0,0,0,0,27,0,27,0,1143.882005675,1143.882005675,1143.882005675,1143.882005675,1143.882005675,1143.882005675,1143.882005675,1,1,rojo,1,['N_A'],1145.383378787,1145.383378787,1145.383378787,1145.383378787,1147.419580636,1147.419580636,1147.419580636,1147.419580636,1147.419580636,1147.419580636,1147.419580636,1147.419580636,1149.454884533,1149.454884533,1149.454884533,1149.454884533,,,,,,,,,,,,,,,,,,,,,,,,,,,,,,,,,,,,,,,01,012,2022-09-27_14h38.28.289,test2,2022.2.4,59.934160526580094,
0,0,0,0,28,0,28,0,1149.454884533,1149.454884533,1149.454884533,1149.454884533,1149.454884533,1149.454884533,1149.454884533,1,-1,rojo,1,['N_A'],1151.206683998,1151.206683998,1151.206683998,1151.206683998,1153.2426597,1153.2426597,1153.2426597,1153.2426597,1153.2426597,1153.2426597,1153.2426597,1153.2426597,1155.278138097,1155.278138097,1155.278138097,1155.278138097,,,,,,,,,,,,,,,,,,,,,,,,,,,,,,,,,,,,,,,01,012,2022-09-27_14h38.28.289,test2,2022.2.4,59.934160526580094,
0,0,0,0,29,0,29,0,1155.278138097,1155.278138097,1155.278138097,1155.278138097,1155.278138097,1155.278138097,1155.278138097,-1,1,azul,1,['N_A'],1156.729270445,1156.729270445,1156.729270445,1156.729270445,1158.765176325,1158.765176325,1158.765176325,1158.765176325,1158.765176325,1158.765176325,1158.765176325,1158.765176325,1160.800774471,1160.800774471,1160.800774471,1160.800774471,,,,,,,,,,,,,,,,,,,,,,,,,,,,,,,,,,,,,,,01,012,2022-09-27_14h38.28.289,test2,2022.2.4,59.934160526580094,
0,0,0,0,30,0,30,0,1160.800774471,1160.800774471,1160.800774471,1160.800774471,1160.800774471,1160.800774471,1160.800774471,1,-1,rojo,1,['N_A'],1162.2188432770001,1162.2188432770001,1162.2188432770001,1162.2188432770001,1164.2542904690001,1164.2542904690001,1164.2542904690001,1164.2542904690001,1164.2542904690001,1164.2542904690001,1164.2542904690001,1164.2542904690001,1166.2901778320002,1166.2901778320002,1166.2901778320002,1166.2901778320002,,,,,,,,,,,,,,,,,,,,,,,,,,,,,,,,,,,,,,,01,012,2022-09-27_14h38.28.289,test2,2022.2.4,59.934160526580094,
0,0,0,0,31,0,31,0,1166.2901778320002,1166.2901778320002,1166.2901778320002,1166.2901778320002,1166.2901778320002,1166.2901778320002,1166.2901778320002,-1,-1,azul,0,['N_B'],1169.37668807,1169.37668807,1169.37668807,1169.37668807,1171.4127418130001,1171.4127418130001,1171.4127418130001,1171.4127418130001,1171.4127418130001,1171.4127418130001,1171.4127418130001,1171.4127418130001,1173.44742347,1173.44742347,1173.44742347,1173.44742347,,,,,,,,,,,,,,,,,,,,,,,,,,,,,,,,,,,,,,,01,012,2022-09-27_14h38.28.289,test2,2022.2.4,59.934160526580094,
0,0,0,0,32,0,32,0,1173.44742347,1173.44742347,1173.44742347,1173.44742347,1173.44742347,1173.44742347,1173.44742347,1,-1,azul,1,['N_B'],1174.966393165,1174.966393165,1174.966393165,1174.966393165,1177.001678218,1177.001678218,1177.001678218,1177.001678218,1177.001678218,1177.001678218,1177.001678218,1177.001678218,1179.037471991,1179.037471991,1179.037471991,1179.037471991,,,,,,,,,,,,,,,,,,,,,,,,,,,,,,,,,,,,,,,01,012,2022-09-27_14h38.28.289,test2,2022.2.4,59.934160526580094,
0,0,0,0,33,0,33,0,1179.037471991,1179.037471991,1179.037471991,1179.037471991,1179.037471991,1179.037471991,1179.037471991,-1,1,rojo,1,['N_B'],1180.655955277,1180.655955277,1180.655955277,1180.655955277,1182.6910084380002,1182.6910084380002,1182.6910084380002,1182.6910084380002,1182.6910084380002,1182.6910084380002,1182.6910084380002,1182.6910084380002,1184.7271002290001,1184.7271002290001,1184.7271002290001,1184.7271002290001,,,,,,,,,,,,,,,,,,,,,,,,,,,,,,,,,,,,,,,01,012,2022-09-27_14h38.28.289,test2,2022.2.4,59.934160526580094,
0,0,0,0,34,0,34,0,1184.7271002290001,1184.7271002290001,1184.7271002290001,1184.7271002290001,1184.7271002290001,1184.7271002290001,1184.7271002290001,1,-1,azul,0,['N_A'],1186.178412344,1186.178412344,1186.178412344,1186.178412344,1188.2140253940001,1188.2140253940001,1188.2140253940001,1188.2140253940001,1188.2140253940001,1188.2140253940001,1188.2140253940001,1188.2140253940001,1190.249772335,1190.249772335,1190.249772335,1190.249772335,,,,,,,,,,,,,,,,,,,,,,,,,,,,,,,,,,,,,,,01,012,2022-09-27_14h38.28.289,test2,2022.2.4,59.934160526580094,
0,0,0,0,35,0,35,0,1190.249772335,1190.249772335,1190.249772335,1190.249772335,1190.249772335,1190.249772335,1190.249772335,1,-1,rojo,1,['N_A'],1191.534111678,1191.534111678,1191.534111678,1191.534111678,1193.570418793,1193.570418793,1193.570418793,1193.570418793,1193.570418793,1193.570418793,1193.570418793,1193.570418793,1195.6049837120001,1195.6049837120001,1195.6049837120001,1195.6049837120001,,,,,,,,,,,,,,,,,,,,,,,,,,,,,,,,,,,,,,,01,012,2022-09-27_14h38.28.289,test2,2022.2.4,59.934160526580094,
0,0,0,0,36,0,36,0,1195.6049837120001,1195.6049837120001,1195.6049837120001,1195.6049837120001,1195.6049837120001,1195.6049837120001,1195.6049837120001,1,1,rojo,1,['N_A'],1197.173424972,1197.173424972,1197.173424972,1197.173424972,1199.209978634,1199.209978634,1199.209978634,1199.209978634,1199.209978634,1199.209978634,1199.209978634,1199.209978634,1201.2455055780001,1201.2455055780001,1201.2455055780001,1201.2455055780001,,,,,,,,,,,,,,,,,,,,,,,,,,,,,,,,,,,,,,,01,012,2022-09-27_14h38.28.289,test2,2022.2.4,59.934160526580094,
0,0,0,0,37,0,37,0,1201.2455055780001,1201.2455055780001,1201.2455055780001,1201.2455055780001,1201.2455055780001,1201.2455055780001,1201.2455055780001,-1,-1,azul,1,['N_A'],1203.030493578,1203.030493578,1203.030493578,1203.030493578,1205.066322745,1205.066322745,1205.066322745,1205.066322745,1205.066322745,1205.066322745,1205.066322745,1205.066322745,1207.1012694990002,1207.1012694990002,1207.1012694990002,1207.1012694990002,,,,,,,,,,,,,,,,,,,,,,,,,,,,,,,,,,,,,,,01,012,2022-09-27_14h38.28.289,test2,2022.2.4,59.934160526580094,
0,0,0,0,38,0,38,0,1207.1012694990002,1207.1012694990002,1207.1012694990002,1207.1012694990002,1207.1012694990002,1207.1012694990002,1207.1012694990002,1,-1,rojo,0,['N_B'],1208.1524727800002,1208.1524727800002,1208.1524727800002,1208.1524727800002,1210.1888452990001,1210.1888452990001,1210.1888452990001,1210.1888452990001,1210.1888452990001,1210.1888452990001,1210.1888452990001,1210.1888452990001,1212.2237459540002,1212.2237459540002,1212.2237459540002,1212.2237459540002,,,,,,,,,,,,,,,,,,,,,,,,,,,,,,,,,,,,,,,01,012,2022-09-27_14h38.28.289,test2,2022.2.4,59.934160526580094,
0,0,0,0,39,0,39,0,1212.2237459540002,1212.2237459540002,1212.2237459540002,1212.2237459540002,1212.2237459540002,1212.2237459540002,1212.2237459540002,-1,-1,rojo,1,['N_B'],1214.64320836,1214.64320836,1214.64320836,1214.64320836,1216.679384406,1216.679384406,1216.679384406,1216.679384406,1216.679384406,1216.679384406,1216.679384406,1216.679384406,1218.7141867960001,1218.7141867960001,1218.7141867960001,1218.7141867960001,,,,,,,,,,,,,,,,,,,,,,,,,,,,,,,,,,,,,,,01,012,2022-09-27_14h38.28.289,test2,2022.2.4,59.934160526580094,
0,0,0,0,40,0,40,0,1218.7141867960001,1218.7141867960001,1218.7141867960001,1218.7141867960001,1218.7141867960001,1218.7141867960001,1218.7141867960001,1,-1,azul,0,['N_A'],1220.466591129,1220.466591129,1220.466591129,1220.466591129,1222.5020321890001,1222.5020321890001,1222.5020321890001,1222.5020321890001,1222.5020321890001,1222.5020321890001,1222.5020321890001,1222.5020321890001,1224.5377115840001,1224.5377115840001,1224.5377115840001,1224.5377115840001,,,,,,,,,,,,,,,,,,,,,,,,,,,,,,,,,,,,,,,01,012,2022-09-27_14h38.28.289,test2,2022.2.4,59.934160526580094,
0,0,0,0,41,0,41,0,1224.5377115840001,1224.5377115840001,1224.5377115840001,1224.5377115840001,1224.5377115840001,1224.5377115840001,1224.5377115840001,-1,-1,azul,1,['N_A'],1225.939622636,1225.939622636,1225.939622636,1225.939622636,1227.9747193780001,1227.9747193780001,1227.9747193780001,1227.9747193780001,1227.9747193780001,1227.9747193780001,1227.9747193780001,1227.9747193780001,1230.0097484560001,1230.0097484560001,1230.0097484560001,1230.0097484560001,,,,,,,,,,,,,,,,,,,,,,,,,,,,,,,,,,,,,,,01,012,2022-09-27_14h38.28.289,test2,2022.2.4,59.934160526580094,
0,0,0,0,42,0,42,0,1230.0097484560001,1230.0097484560001,1230.0097484560001,1230.0097484560001,1230.0097484560001,1230.0097484560001,1230.0097484560001,-1,-1,azul,1,['N_A'],1231.028028996,1231.028028996,1231.028028996,1231.028028996,1233.0636603540001,1233.0636603540001,1233.0636603540001,1233.0636603540001,1233.0636603540001,1233.0636603540001,1233.0636603540001,1233.0636603540001,1235.0988344490002,1235.0988344490002,1235.0988344490002,1235.0988344490002,,,,,,,,,,,,,,,,,,,,,,,,,,,,,,,,,,,,,,,01,012,2022-09-27_14h38.28.289,test2,2022.2.4,59.934160526580094,
0,0,0,0,43,0,43,0,1235.0988344490002,1235.0988344490002,1235.0988344490002,1235.0988344490002,1235.0988344490002,1235.0988344490002,1235.0988344490002,1,1,rojo,1,['N_A'],1236.76754041,1236.76754041,1236.76754041,1236.76754041,1238.802952818,1238.802952818,1238.802952818,1238.802952818,1238.802952818,1238.802952818,1238.802952818,1238.802952818,1240.838809246,1240.838809246,1240.838809246,1240.838809246,,,,,,,,,,,,,,,,,,,,,,,,,,,,,,,,,,,,,,,01,012,2022-09-27_14h38.28.289,test2,2022.2.4,59.934160526580094,
0,0,0,0,44,0,44,0,1240.838809246,1240.838809246,1240.838809246,1240.838809246,1240.838809246,1240.838809246,1240.838809246,1,-1,rojo,1,['N_A'],1242.3736483720002,1242.3736483720002,1242.3736483720002,1242.3736483720002,1244.409293595,1244.409293595,1244.409293595,1244.409293595,1244.409293595,1244.409293595,1244.409293595,1244.409293595,1246.444837432,1246.444837432,1246.444837432,1246.444837432,,,,,,,,,,,,,,,,,,,,,,,,,,,,,,,,,,,,,,,01,012,2022-09-27_14h38.28.289,test2,2022.2.4,59.934160526580094,
0,0,0,0,45,0,45,0,1246.444837432,1246.444837432,1246.444837432,1246.444837432,1246.444837432,1246.444837432,1246.444837432,1,1,rojo,0,['N_B'],1248.831195576,1248.831195576,1248.831195576,1248.831195576,1250.8664792670002,1250.8664792670002,1250.8664792670002,1250.8664792670002,1250.8664792670002,1250.8664792670002,1250.8664792670002,1250.8664792670002,1252.9023285120002,1252.9023285120002,1252.9023285120002,1252.9023285120002,,,,,,,,,,,,,,,,,,,,,,,,,,,,,,,,,,,,,,,01,012,2022-09-27_14h38.28.289,test2,2022.2.4,59.934160526580094,
0,0,0,0,46,0,46,0,1252.9023285120002,1252.9023285120002,1252.9023285120002,1252.9023285120002,1252.9023285120002,1252.9023285120002,1252.9023285120002,1,-1,azul,0,['N_A'],1254.386880816,1254.386880816,1254.386880816,1254.386880816,1256.422505044,1256.422505044,1256.422505044,1256.422505044,1256.422505044,1256.422505044,1256.422505044,1256.422505044,1258.457909083,1258.457909083,1258.457909083,1258.457909083,,,,,,,,,,,,,,,,,,,,,,,,,,,,,,,,,,,,,,,01,012,2022-09-27_14h38.28.289,test2,2022.2.4,59.934160526580094,
0,0,0,0,47,0,47,0,1258.457909083,1258.457909083,1258.457909083,1258.457909083,1258.457909083,1258.457909083,1258.457909083,1,-1,rojo,1,['N_A'],1260.226447111,1260.226447111,1260.226447111,1260.226447111,1262.2625011500002,1262.2625011500002,1262.2625011500002,1262.2625011500002,1262.2625011500002,1262.2625011500002,1262.2625011500002,1262.2625011500002,1264.297719586,1264.297719586,1264.297719586,1264.297719586,,,,,,,,,,,,,,,,,,,,,,,,,,,,,,,,,,,,,,,01,012,2022-09-27_14h38.28.289,test2,2022.2.4,59.934160526580094,
0,0,0,0,48,0,48,0,1264.297719586,1264.297719586,1264.297719586,1264.297719586,1264.297719586,1264.297719586,1264.297719586,1,1,rojo,1,['N_A'],1266.2664239540002,1266.2664239540002,1266.2664239540002,1266.2664239540002,1268.302164987,1268.302164987,1268.302164987,1268.302164987,1268.302164987,1268.302164987,1268.302164987,1268.302164987,1270.337918789,1270.337918789,1270.337918789,1270.337918789,,,,,,,,,,,,,,,,,,,,,,,,,,,,,,,,,,,,,,,01,012,2022-09-27_14h38.28.289,test2,2022.2.4,59.934160526580094,
0,0,0,0,49,0,49,0,1270.337918789,1270.337918789,1270.337918789,1270.337918789,1270.337918789,1270.337918789,1270.337918789,1,-1,rojo,1,['N_A'],1271.3556138820002,1271.3556138820002,1271.3556138820002,1271.3556138820002,1273.391159839,1273.391159839,1273.391159839,1273.391159839,1273.391159839,1273.391159839,1273.391159839,1273.391159839,1275.4266705270002,1275.4266705270002,1275.4266705270002,1275.4266705270002,,,,,,,,,,,,,,,,,,,,,,,,,,,,,,,,,,,,,,,01,012,2022-09-27_14h38.28.289,test2,2022.2.4,59.934160526580094,
0,0,0,0,50,0,50,0,1275.4266705270002,1275.4266705270002,1275.4266705270002,1275.4266705270002,1275.4266705270002,1275.4266705270002,1275.4266705270002,1,-1,rojo,0,['N_B'],1276.711435528,1276.711435528,1276.711435528,1276.711435528,1278.747874954,1278.747874954,1278.747874954,1278.747874954,1278.747874954,1278.747874954,1278.747874954,1278.747874954,1280.783107742,1280.783107742,1280.783107742,1280.783107742,,,,,,,,,,,,,,,,,,,,,,,,,,,,,,,,,,,,,,,01,012,2022-09-27_14h38.28.289,test2,2022.2.4,59.934160526580094,
0,0,0,0,51,0,51,0,1280.783107742,1280.783107742,1280.783107742,1280.783107742,1280.783107742,1280.783107742,1280.783107742,1,-1,azul,1,['N_B'],1282.1346848740002,1282.1346848740002,1282.1346848740002,1282.1346848740002,1284.170528866,1284.170528866,1284.170528866,1284.170528866,1284.170528866,1284.170528866,1284.170528866,1284.170528866,1286.205767872,1286.205767872,1286.205767872,1286.205767872,,,,,,,,,,,,,,,,,,,,,,,,,,,,,,,,,,,,,,,01,012,2022-09-27_14h38.28.289,test2,2022.2.4,59.934160526580094,
0,0,0,0,52,0,52,0,1286.205767872,1286.205767872,1286.205767872,1286.205767872,1286.205767872,1286.205767872,1286.205767872,1,-1,azul,0,['N_A'],1287.856756637,1287.856756637,1287.856756637,1287.856756637,1289.89274651,1289.89274651,1289.89274651,1289.89274651,1289.89274651,1289.89274651,1289.89274651,1289.89274651,1291.928504228,1291.928504228,1291.928504228,1291.928504228,,,,,,,,,,,,,,,,,,,,,,,,,,,,,,,,,,,,,,,01,012,2022-09-27_14h38.28.289,test2,2022.2.4,59.934160526580094,
0,0,0,0,53,0,53,0,1291.928504228,1291.928504228,1291.928504228,1291.928504228,1291.928504228,1291.928504228,1291.928504228,1,-1,rojo,1,['N_A'],1293.2796323070002,1293.2796323070002,1293.2796323070002,1293.2796323070002,1295.3159721890001,1295.3159721890001,1295.3159721890001,1295.3159721890001,1295.3159721890001,1295.3159721890001,1295.3159721890001,1295.3159721890001,1297.351424009,1297.351424009,1297.351424009,1297.351424009,,,,,,,,,,,,,,,,,,,,,,,,,,,,,,,,,,,,,,,01,012,2022-09-27_14h38.28.289,test2,2022.2.4,59.934160526580094,
0,0,0,0,54,0,54,0,1297.351424009,1297.351424009,1297.351424009,1297.351424009,1297.351424009,1297.351424009,1297.351424009,1,-1,rojo,1,['N_A'],1298.602797595,1298.602797595,1298.602797595,1298.602797595,1300.63842554,1300.63842554,1300.63842554,1300.63842554,1300.63842554,1300.63842554,1300.63842554,1300.63842554,1302.6740852090002,1302.6740852090002,1302.6740852090002,1302.6740852090002,,,,,,,,,,,,,,,,,,,,,,,,,,,,,,,,,,,,,,,01,012,2022-09-27_14h38.28.289,test2,2022.2.4,59.934160526580094,
0,0,0,0,55,0,55,0,1302.6740852090002,1302.6740852090002,1302.6740852090002,1302.6740852090002,1302.6740852090002,1302.6740852090002,1302.6740852090002,1,-1,rojo,0,['N_B'],1304.0578466700001,1304.0578466700001,1304.0578466700001,1304.0578466700001,1306.094802026,1306.094802026,1306.094802026,1306.094802026,1306.094802026,1306.094802026,1306.094802026,1306.094802026,1308.13004266,1308.13004266,1308.13004266,1308.13004266,,,,,,,,,,,,,,,,,,,,,,,,,,,,,,,,,,,,,,,01,012,2022-09-27_14h38.28.289,test2,2022.2.4,59.934160526580094,
0,0,0,0,56,0,56,0,1308.13004266,1308.13004266,1308.13004266,1308.13004266,1308.13004266,1308.13004266,1308.13004266,1,-1,azul,1,['N_B'],1309.515086783,1309.515086783,1309.515086783,1309.515086783,1311.550080598,1311.550080598,1311.550080598,1311.550080598,1311.550080598,1311.550080598,1311.550080598,1311.550080598,1313.585693813,1313.585693813,1313.585693813,1313.585693813,,,,,,,,,,,,,,,,,,,,,,,,,,,,,,,,,,,,,,,01,012,2022-09-27_14h38.28.289,test2,2022.2.4,59.934160526580094,
0,0,0,0,57,0,57,0,1313.585693813,1313.585693813,1313.585693813,1313.585693813,1313.585693813,1313.585693813,1313.585693813,-1,-1,rojo,1,['N_B'],1315.304625142,1315.304625142,1315.304625142,1315.304625142,1317.3403906620001,1317.3403906620001,1317.3403906620001,1317.3403906620001,1317.3403906620001,1317.3403906620001,1317.3403906620001,1317.3403906620001,1319.3752471720002,1319.3752471720002,1319.3752471720002,1319.3752471720002,,,,,,,,,,,,,,,,,,,,,,,,,,,,,,,,,,,,,,,01,012,2022-09-27_14h38.28.289,test2,2022.2.4,59.934160526580094,
0,0,0,0,58,0,58,0,1319.3752471720002,1319.3752471720002,1319.3752471720002,1319.3752471720002,1319.3752471720002,1319.3752471720002,1319.3752471720002,1,-1,azul,0,['N_A'],1320.727151318,1320.727151318,1320.727151318,1320.727151318,1322.7627862620002,1322.7627862620002,1322.7627862620002,1322.7627862620002,1322.7627862620002,1322.7627862620002,1322.7627862620002,1322.7627862620002,1324.797542187,1324.797542187,1324.797542187,1324.797542187,,,,,,,,,,,,,,,,,,,,,,,,,,,,,,,,,,,,,,,01,012,2022-09-27_14h38.28.289,test2,2022.2.4,59.934160526580094,
0,0,0,0,59,0,59,0,1324.797542187,1324.797542187,1324.797542187,1324.797542187,1324.797542187,1324.797542187,1324.797542187,1,-1,rojo,1,['N_A'],1326.1160373110001,1326.1160373110001,1326.1160373110001,1326.1160373110001,1328.151085747,1328.151085747,1328.151085747,1328.151085747,1328.151085747,1328.151085747,1328.151085747,1328.151085747,1330.187083295,1330.187083295,1330.187083295,1330.187083295,,,,,,,,,,,,,,,,,,,,,,,,,,,,,,,,,,,,,,,01,012,2022-09-27_14h38.28.289,test2,2022.2.4,59.934160526580094,
0,0,0,0,60,0,60,0,1330.187083295,1330.187083295,1330.187083295,1330.187083295,1330.187083295,1330.187083295,1330.187083295,1,1,rojo,1,['N_A'],1331.8386994300001,1331.8386994300001,1331.8386994300001,1331.8386994300001,1333.857142153,1333.857142153,1333.857142153,1333.857142153,1333.857142153,1333.857142153,1333.857142153,1333.857142153,1335.8941735160001,1335.8941735160001,1335.8941735160001,1335.8941735160001,,,,,,,,,,,,,,,,,,,,,,,,,,,,,,,,,,,,,,,01,012,2022-09-27_14h38.28.289,test2,2022.2.4,59.934160526580094,
0,0,0,0,61,0,61,0,1335.8941735160001,1335.8941735160001,1335.8941735160001,1335.8941735160001,1335.8941735160001,1335.8941735160001,1335.8941735160001,1,1,rojo,1,['N_A'],1337.412217954,1337.412217954,1337.412217954,1337.412217954,1339.4468709970001,1339.4468709970001,1339.4468709970001,1339.4468709970001,1339.4468709970001,1339.4468709970001,1339.4468709970001,1339.4468709970001,1341.48364536,1341.48364536,1341.48364536,1341.48364536,,,,,,,,,,,,,,,,,,,,,,,,,,,,,,,,,,,,,,,01,012,2022-09-27_14h38.28.289,test2,2022.2.4,59.934160526580094,
0,0,0,0,62,0,62,0,1341.48364536,1341.48364536,1341.48364536,1341.48364536,1341.48364536,1341.48364536,1341.48364536,1,-1,rojo,1,['N_A'],1342.834726824,1342.834726824,1342.834726824,1342.834726824,1344.870605453,1344.870605453,1344.870605453,1344.870605453,1344.870605453,1344.870605453,1344.870605453,1344.870605453,1346.905966063,1346.905966063,1346.905966063,1346.905966063,,,,,,,,,,,,,,,,,,,,,,,,,,,,,,,,,,,,,,,01,012,2022-09-27_14h38.28.289,test2,2022.2.4,59.934160526580094,
0,0,0,0,63,0,63,0,1346.905966063,1346.905966063,1346.905966063,1346.905966063,1346.905966063,1346.905966063,1346.905966063,1,1,rojo,1,['N_A'],1348.374320455,1348.374320455,1348.374320455,1348.374320455,1350.391795571,1350.391795571,1350.391795571,1350.391795571,1350.391795571,1350.391795571,1350.391795571,1350.391795571,1352.4285690220001,1352.4285690220001,1352.4285690220001,1352.4285690220001,,,,,,,,,,,,,,,,,,,,,,,,,,,,,,,,,,,,,,,01,012,2022-09-27_14h38.28.289,test2,2022.2.4,59.934160526580094,
0,0,0,0,64,0,64,0,1352.4285690220001,1352.4285690220001,1352.4285690220001,1352.4285690220001,1352.4285690220001,1352.4285690220001,1352.4285690220001,-1,1,azul,1,['N_A'],1353.9133936740002,1353.9133936740002,1353.9133936740002,1353.9133936740002,1355.932386914,1355.932386914,1355.932386914,1355.932386914,1355.932386914,1355.932386914,1355.932386914,1355.932386914,1357.968017136,1357.968017136,1357.968017136,1357.968017136,,,,,,,,,,,,,,,,,,,,,,,,,,,,,,,,,,,,,,,01,012,2022-09-27_14h38.28.289,test2,2022.2.4,59.934160526580094,
0,0,0,0,65,0,65,0,1357.968017136,1357.968017136,1357.968017136,1357.968017136,1357.968017136,1357.968017136,1357.968017136,1,1,rojo,1,['N_A'],1359.419319343,1359.419319343,1359.419319343,1359.419319343,1361.438274008,1361.438274008,1361.438274008,1361.438274008,1361.438274008,1361.438274008,1361.438274008,1361.438274008,1363.473689114,1363.473689114,1363.473689114,1363.473689114,,,,,,,,,,,,,,,,,,,,,,,,,,,,,,,,,,,,,,,01,012,2022-09-27_14h38.28.289,test2,2022.2.4,59.934160526580094,
0,0,0,0,66,0,66,0,1363.473689114,1363.473689114,1363.473689114,1363.473689114,1363.473689114,1363.473689114,1363.473689114,1,1,rojo,1,['N_A'],1364.942416736,1364.942416736,1364.942416736,1364.942416736,1366.9601791530001,1366.9601791530001,1366.9601791530001,1366.9601791530001,1366.9601791530001,1366.9601791530001,1366.9601791530001,1366.9601791530001,1368.996794572,1368.996794572,1368.996794572,1368.996794572,,,,,,,,,,,,,,,,,,,,,,,,,,,,,,,,,,,,,,,01,012,2022-09-27_14h38.28.289,test2,2022.2.4,59.934160526580094,
0,0,0,0,67,0,67,0,1368.996794572,1368.996794572,1368.996794572,1368.996794572,1368.996794572,1368.996794572,1368.996794572,1,1,rojo,1,['N_A'],1370.4815113260001,1370.4815113260001,1370.4815113260001,1370.4815113260001,1372.517803937,1372.517803937,1372.517803937,1372.517803937,1372.517803937,1372.517803937,1372.517803937,1372.517803937,1374.553416954,1374.553416954,1374.553416954,1374.553416954,,,,,,,,,,,,,,,,,,,,,,,,,,,,,,,,,,,,,,,01,012,2022-09-27_14h38.28.289,test2,2022.2.4,59.934160526580094,
0,0,0,0,68,0,68,0,1374.553416954,1374.553416954,1374.553416954,1374.553416954,1374.553416954,1374.553416954,1374.553416954,-1,-1,azul,1,['N_A'],1375.971092962,1375.971092962,1375.971092962,1375.971092962,1378.006565549,1378.006565549,1378.006565549,1378.006565549,1378.006565549,1378.006565549,1378.006565549,1378.006565549,1380.042864681,1380.042864681,1380.042864681,1380.042864681,,,,,,,,,,,,,,,,,,,,,,,,,,,,,,,,,,,,,,,01,012,2022-09-27_14h38.28.289,test2,2022.2.4,59.934160526580094,
0,0,0,0,69,0,69,0,1380.042864681,1380.042864681,1380.042864681,1380.042864681,1380.042864681,1380.042864681,1380.042864681,-1,-1,azul,1,['N_A'],1381.427495762,1381.427495762,1381.427495762,1381.427495762,1383.46203117,1383.46203117,1383.46203117,1383.46203117,1383.46203117,1383.46203117,1383.46203117,1383.46203117,1385.4981378470002,1385.4981378470002,1385.4981378470002,1385.4981378470002,,,,,,,,,,,,,,,,,,,,,,,,,,,,,,,,,,,,,,,01,012,2022-09-27_14h38.28.289,test2,2022.2.4,59.934160526580094,
0,0,0,0,70,0,70,0,1385.4981378470002,1385.4981378470002,1385.4981378470002,1385.4981378470002,1385.4981378470002,1385.4981378470002,1385.4981378470002,-1,-1,azul,0,['N_B'],1386.9836774980001,1386.9836774980001,1386.9836774980001,1386.9836774980001,1389.019704472,1389.019704472,1389.019704472,1389.019704472,1389.019704472,1389.019704472,1389.019704472,1389.019704472,1391.0549746840002,1391.0549746840002,1391.0549746840002,1391.0549746840002,,,,,,,,,,,,,,,,,,,,,,,,,,,,,,,,,,,,,,,01,012,2022-09-27_14h38.28.289,test2,2022.2.4,59.934160526580094,
0,0,0,0,71,0,71,0,1391.0549746840002,1391.0549746840002,1391.0549746840002,1391.0549746840002,1391.0549746840002,1391.0549746840002,1391.0549746840002,-1,1,rojo,1,['N_B'],1392.239336287,1392.239336287,1392.239336287,1392.239336287,1394.2583425960001,1394.2583425960001,1394.2583425960001,1394.2583425960001,1394.2583425960001,1394.2583425960001,1394.2583425960001,1394.2583425960001,1396.293890523,1396.293890523,1396.293890523,1396.293890523,,,,,,,,,,,,,,,,,,,,,,,,,,,,,,,,,,,,,,,01,012,2022-09-27_14h38.28.289,test2,2022.2.4,59.934160526580094,
0,0,0,0,72,0,72,0,1396.293890523,1396.293890523,1396.293890523,1396.293890523,1396.293890523,1396.293890523,1396.293890523,-1,1,rojo,1,['N_B'],1397.712237913,1397.712237913,1397.712237913,1397.712237913,1399.729541099,1399.729541099,1399.729541099,1399.729541099,1399.729541099,1399.729541099,1399.729541099,1399.729541099,1401.7660038630002,1401.7660038630002,1401.7660038630002,1401.7660038630002,,,,,,,,,,,,,,,,,,,,,,,,,,,,,,,,,,,,,,,01,012,2022-09-27_14h38.28.289,test2,2022.2.4,59.934160526580094,
0,0,0,0,73,0,73,0,1401.7660038630002,1401.7660038630002,1401.7660038630002,1401.7660038630002,1401.7660038630002,1401.7660038630002,1401.7660038630002,-1,1,rojo,1,['N_B'],1403.2845976180001,1403.2845976180001,1403.2845976180001,1403.2845976180001,1405.320672369,1405.320672369,1405.320672369,1405.320672369,1405.320672369,1405.320672369,1405.320672369,1405.320672369,1407.3561525930002,1407.3561525930002,1407.3561525930002,1407.3561525930002,,,,,,,,,,,,,,,,,,,,,,,,,,,,,,,,,,,,,,,01,012,2022-09-27_14h38.28.289,test2,2022.2.4,59.934160526580094,
0,0,0,0,74,0,74,0,1407.3561525930002,1407.3561525930002,1407.3561525930002,1407.3561525930002,1407.3561525930002,1407.3561525930002,1407.3561525930002,1,-1,azul,0,['N_A'],1408.673856346,1408.673856346,1408.673856346,1408.673856346,1410.709471312,1410.709471312,1410.709471312,1410.709471312,1410.709471312,1410.709471312,1410.709471312,1410.709471312,1412.744589854,1412.744589854,1412.744589854,1412.744589854,,,,,,,,,,,,,,,,,,,,,,,,,,,,,,,,,,,,,,,01,012,2022-09-27_14h38.28.289,test2,2022.2.4,59.934160526580094,
0,0,0,0,75,0,75,0,1412.744589854,1412.744589854,1412.744589854,1412.744589854,1412.744589854,1412.744589854,1412.744589854,1,-1,rojo,1,['N_A'],1414.1800036880002,1414.1800036880002,1414.1800036880002,1414.1800036880002,1416.2156965430001,1416.2156965430001,1416.2156965430001,1416.2156965430001,1416.2156965430001,1416.2156965430001,1416.2156965430001,1416.2156965430001,1418.2510017060001,1418.2510017060001,1418.2510017060001,1418.2510017060001,,,,,,,,,,,,,,,,,,,,,,,,,,,,,,,,,,,,,,,01,012,2022-09-27_14h38.28.289,test2,2022.2.4,59.934160526580094,
0,0,0,0,76,0,76,0,1418.2510017060001,1418.2510017060001,1418.2510017060001,1418.2510017060001,1418.2510017060001,1418.2510017060001,1418.2510017060001,1,-1,rojo,0,['N_B'],1419.8031741230002,1419.8031741230002,1419.8031741230002,1419.8031741230002,1421.838289928,1421.838289928,1421.838289928,1421.838289928,1421.838289928,1421.838289928,1421.838289928,1421.838289928,1423.874225712,1423.874225712,1423.874225712,1423.874225712,,,,,,,,,,,,,,,,,,,,,,,,,,,,,,,,,,,,,,,01,012,2022-09-27_14h38.28.289,test2,2022.2.4,59.934160526580094,
0,0,0,0,77,0,77,0,1423.874225712,1423.874225712,1423.874225712,1423.874225712,1423.874225712,1423.874225712,1423.874225712,1,-1,azul,1,['N_B'],1425.526127678,1425.526127678,1425.526127678,1425.526127678,1427.562094139,1427.562094139,1427.562094139,1427.562094139,1427.562094139,1427.562094139,1427.562094139,1427.562094139,1429.597352233,1429.597352233,1429.597352233,1429.597352233,,,,,,,,,,,,,,,,,,,,,,,,,,,,,,,,,,,,,,,01,012,2022-09-27_14h38.28.289,test2,2022.2.4,59.934160526580094,
0,0,0,0,78,0,78,0,1429.597352233,1429.597352233,1429.597352233,1429.597352233,1429.597352233,1429.597352233,1429.597352233,-1,-1,rojo,1,['N_B'],1431.231523203,1431.231523203,1431.231523203,1431.231523203,1433.268304482,1433.268304482,1433.268304482,1433.268304482,1433.268304482,1433.268304482,1433.268304482,1433.268304482,1435.303356229,1435.303356229,1435.303356229,1435.303356229,,,,,,,,,,,,,,,,,,,,,,,,,,,,,,,,,,,,,,,01,012,2022-09-27_14h38.28.289,test2,2022.2.4,59.934160526580094,
0,0,0,0,79,0,79,0,1435.303356229,1435.303356229,1435.303356229,1435.303356229,1435.303356229,1435.303356229,1435.303356229,1,-1,azul,0,['N_A'],1437.05578994,1437.05578994,1437.05578994,1437.05578994,1439.091010838,1439.091010838,1439.091010838,1439.091010838,1439.091010838,1439.091010838,1439.091010838,1439.091010838,1441.126299665,1441.126299665,1441.126299665,1441.126299665,,,,,,,,,,,,,,,,,,,,,,,,,,,,,,,,,,,,,,,01,012,2022-09-27_14h38.28.289,test2,2022.2.4,59.934160526580094,
0,0,0,0,80,0,80,0,1441.126299665,1441.126299665,1441.126299665,1441.126299665,1441.126299665,1441.126299665,1441.126299665,-1,-1,azul,1,['N_A'],1442.8279667240001,1442.8279667240001,1442.8279667240001,1442.8279667240001,1444.8644226390002,1444.8644226390002,1444.8644226390002,1444.8644226390002,1444.8644226390002,1444.8644226390002,1444.8644226390002,1444.8644226390002,1446.899212989,1446.899212989,1446.899212989,1446.899212989,,,,,,,,,,,,,,,,,,,,,,,,,,,,,,,,,,,,,,,01,012,2022-09-27_14h38.28.289,test2,2022.2.4,59.934160526580094,
0,0,0,0,81,0,81,0,1446.899212989,1446.899212989,1446.899212989,1446.899212989,1446.899212989,1446.899212989,1446.899212989,1,1,rojo,1,['N_A'],1448.534356526,1448.534356526,1448.534356526,1448.534356526,1450.570375476,1450.570375476,1450.570375476,1450.570375476,1450.570375476,1450.570375476,1450.570375476,1450.570375476,1452.60609438,1452.60609438,1452.60609438,1452.60609438,,,,,,,,,,,,,,,,,,,,,,,,,,,,,,,,,,,,,,,01,012,2022-09-27_14h38.28.289,test2,2022.2.4,59.934160526580094,
0,0,0,0,82,0,82,0,1452.60609438,1452.60609438,1452.60609438,1452.60609438,1452.60609438,1452.60609438,1452.60609438,1,-1,rojo,1,['N_A'],1454.090776058,1454.090776058,1454.090776058,1454.090776058,1456.125927067,1456.125927067,1456.125927067,1456.125927067,1456.125927067,1456.125927067,1456.125927067,1456.125927067,1458.1614434120002,1458.1614434120002,1458.1614434120002,1458.1614434120002,,,,,,,,,,,,,,,,,,,,,,,,,,,,,,,,,,,,,,,01,012,2022-09-27_14h38.28.289,test2,2022.2.4,59.934160526580094,
0,0,0,0,83,0,83,0,1458.1614434120002,1458.1614434120002,1458.1614434120002,1458.1614434120002,1458.1614434120002,1458.1614434120002,1458.1614434120002,-1,-1,azul,1,['N_A'],1466.554748081,1466.554748081,1466.554748081,1466.554748081,1468.5900616010001,1468.5900616010001,1468.5900616010001,1468.5900616010001,1468.5900616010001,1468.5900616010001,1468.5900616010001,1468.5900616010001,1470.625437071,1470.625437071,1470.625437071,1470.625437071,,,,,,,,,,,,,,,,,,,,,,,,,,,,,,,,,,,,,,,01,012,2022-09-27_14h38.28.289,test2,2022.2.4,59.934160526580094,
0,0,0,0,84,0,84,0,1470.625437071,1470.625437071,1470.625437071,1470.625437071,1470.625437071,1470.625437071,1470.625437071,1,-1,rojo,1,['N_A'],1473.728985362,1473.728985362,1473.728985362,1473.728985362,1475.7652292970001,1475.7652292970001,1475.7652292970001,1475.7652292970001,1475.7652292970001,1475.7652292970001,1475.7652292970001,1475.7652292970001,1477.800674094,1477.800674094,1477.800674094,1477.800674094,,,,,,,,,,,,,,,,,,,,,,,,,,,,,,,,,,,,,,,01,012,2022-09-27_14h38.28.289,test2,2022.2.4,59.934160526580094,
0,0,0,0,85,0,85,0,1477.800674094,1477.800674094,1477.800674094,1477.800674094,1477.800674094,1477.800674094,1477.800674094,-1,-1,azul,0,['N_B'],1479.46930032,1479.46930032,1479.46930032,1479.46930032,1481.504714615,1481.504714615,1481.504714615,1481.504714615,1481.504714615,1481.504714615,1481.504714615,1481.504714615,1483.540254207,1483.540254207,1483.540254207,1483.540254207,,,,,,,,,,,,,,,,,,,,,,,,,,,,,,,,,,,,,,,01,012,2022-09-27_14h38.28.289,test2,2022.2.4,59.934160526580094,
0,0,0,0,86,0,86,0,1483.540254207,1483.540254207,1483.540254207,1483.540254207,1483.540254207,1483.540254207,1483.540254207,1,-1,azul,1,['N_B'],1485.008423899,1485.008423899,1485.008423899,1485.008423899,1487.043637578,1487.043637578,1487.043637578,1487.043637578,1487.043637578,1487.043637578,1487.043637578,1487.043637578,1489.078844207,1489.078844207,1489.078844207,1489.078844207,,,,,,,,,,,,,,,,,,,,,,,,,,,,,,,,,,,,,,,01,012,2022-09-27_14h38.28.289,test2,2022.2.4,59.934160526580094,
0,0,0,0,87,0,87,0,1489.078844207,1489.078844207,1489.078844207,1489.078844207,1489.078844207,1489.078844207,1489.078844207,1,-1,azul,1,['N_B'],1493.984380817,1493.984380817,1493.984380817,1493.984380817,1496.021101177,1496.021101177,1496.021101177,1496.021101177,1496.021101177,1496.021101177,1496.021101177,1496.021101177,1498.055940697,1498.055940697,1498.055940697,1498.055940697,,,,,,,,,,,,,,,,,,,,,,,,,,,,,,,,,,,,,,,01,012,2022-09-27_14h38.28.289,test2,2022.2.4,59.934160526580094,
0,0,0,0,88,0,88,0,1498.055940697,1498.055940697,1498.055940697,1498.055940697,1498.055940697,1498.055940697,1498.055940697,1,-1,azul,0,['N_A'],1500.1744849620002,1500.1744849620002,1500.1744849620002,1500.1744849620002,1502.211111731,1502.211111731,1502.211111731,1502.211111731,1502.211111731,1502.211111731,1502.211111731,1502.211111731,1504.2459502210002,1504.2459502210002,1504.2459502210002,1504.2459502210002,,,,,,,,,,,,,,,,,,,,,,,,,,,,,,,,,,,,,,,01,012,2022-09-27_14h38.28.289,test2,2022.2.4,59.934160526580094,
0,0,0,0,89,0,89,0,1504.2459502210002,1504.2459502210002,1504.2459502210002,1504.2459502210002,1504.2459502210002,1504.2459502210002,1504.2459502210002,1,-1,rojo,1,['N_A'],1505.7478359210002,1505.7478359210002,1505.7478359210002,1505.7478359210002,1507.783529584,1507.783529584,1507.783529584,1507.783529584,1507.783529584,1507.783529584,1507.783529584,1507.783529584,1509.8192710800001,1509.8192710800001,1509.8192710800001,1509.8192710800001,,,,,,,,,,,,,,,,,,,,,,,,,,,,,,,,,,,,,,,01,012,2022-09-27_14h38.28.289,test2,2022.2.4,59.934160526580094,
0,0,0,0,90,0,90,0,1509.8192710800001,1509.8192710800001,1509.8192710800001,1509.8192710800001,1509.8192710800001,1509.8192710800001,1509.8192710800001,-1,1,azul,1,['N_A'],1512.071330937,1512.071330937,1512.071330937,1512.071330937,1514.10709973,1514.10709973,1514.10709973,1514.10709973,1514.10709973,1514.10709973,1514.10709973,1514.10709973,1516.142219345,1516.142219345,1516.142219345,1516.142219345,,,,,,,,,,,,,,,,,,,,,,,,,,,,,,,,,,,,,,,01,012,2022-09-27_14h38.28.289,test2,2022.2.4,59.934160526580094,
0,0,0,0,91,0,91,0,1516.142219345,1516.142219345,1516.142219345,1516.142219345,1516.142219345,1516.142219345,1516.142219345,1,-1,rojo,1,['N_A'],1517.6772572270002,1517.6772572270002,1517.6772572270002,1517.6772572270002,1519.713414706,1519.713414706,1519.713414706,1519.713414706,1519.713414706,1519.713414706,1519.713414706,1519.713414706,1521.748432307,1521.748432307,1521.748432307,1521.748432307,,,,,,,,,,,,,,,,,,,,,,,,,,,,,,,,,,,,,,,01,012,2022-09-27_14h38.28.289,test2,2022.2.4,59.934160526580094,
0,0,0,0,92,0,92,0,1521.748432307,1521.748432307,1521.748432307,1521.748432307,1521.748432307,1521.748432307,1521.748432307,1,-1,rojo,1,['N_A'],1523.3834020020001,1523.3834020020001,1523.3834020020001,1523.3834020020001,1525.419846127,1525.419846127,1525.419846127,1525.419846127,1525.419846127,1525.419846127,1525.419846127,1525.419846127,1527.455200905,1527.455200905,1527.455200905,1527.455200905,,,,,,,,,,,,,,,,,,,,,,,,,,,,,,,,,,,,,,,01,012,2022-09-27_14h38.28.289,test2,2022.2.4,59.934160526580094,
0,0,0,0,93,0,93,0,1527.455200905,1527.455200905,1527.455200905,1527.455200905,1527.455200905,1527.455200905,1527.455200905,-1,-1,azul,1,['N_A'],1529.123474874,1529.123474874,1529.123474874,1529.123474874,1531.159446028,1531.159446028,1531.159446028,1531.159446028,1531.159446028,1531.159446028,1531.159446028,1531.159446028,1533.1943809260001,1533.1943809260001,1533.1943809260001,1533.1943809260001,,,,,,,,,,,,,,,,,,,,,,,,,,,,,,,,,,,,,,,01,012,2022-09-27_14h38.28.289,test2,2022.2.4,59.934160526580094,
0,0,0,0,94,0,94,0,1533.1943809260001,1533.1943809260001,1533.1943809260001,1533.1943809260001,1533.1943809260001,1533.1943809260001,1533.1943809260001,1,1,rojo,1,['N_A'],1535.079881741,1535.079881741,1535.079881741,1535.079881741,1537.1160808460002,1537.1160808460002,1537.1160808460002,1537.1160808460002,1537.1160808460002,1537.1160808460002,1537.1160808460002,1537.1160808460002,1539.151497535,1539.151497535,1539.151497535,1539.151497535,,,,,,,,,,,,,,,,,,,,,,,,,,,,,,,,,,,,,,,01,012,2022-09-27_14h38.28.289,test2,2022.2.4,59.934160526580094,
0,0,0,0,95,0,95,0,1539.151497535,1539.151497535,1539.151497535,1539.151497535,1539.151497535,1539.151497535,1539.151497535,1,-1,rojo,1,['N_A'],1540.836201989,1540.836201989,1540.836201989,1540.836201989,1542.872570334,1542.872570334,1542.872570334,1542.872570334,1542.872570334,1542.872570334,1542.872570334,1542.872570334,1544.907801412,1544.907801412,1544.907801412,1544.907801412,,,,,,,,,,,,,,,,,,,,,,,,,,,,,,,,,,,,,,,01,012,2022-09-27_14h38.28.289,test2,2022.2.4,59.934160526580094,
0,0,0,0,96,0,96,0,1544.907801412,1544.907801412,1544.907801412,1544.907801412,1544.907801412,1544.907801412,1544.907801412,1,-1,rojo,1,['N_A'],1546.259772156,1546.259772156,1546.259772156,1546.259772156,1548.294482358,1548.294482358,1548.294482358,1548.294482358,1548.294482358,1548.294482358,1548.294482358,1548.294482358,1550.330558045,1550.330558045,1550.330558045,1550.330558045,,,,,,,,,,,,,,,,,,,,,,,,,,,,,,,,,,,,,,,01,012,2022-09-27_14h38.28.289,test2,2022.2.4,59.934160526580094,
0,0,0,0,97,0,97,0,1550.330558045,1550.330558045,1550.330558045,1550.330558045,1550.330558045,1550.330558045,1550.330558045,1,1,rojo,1,['N_A'],1551.948520906,1551.948520906,1551.948520906,1551.948520906,1553.9843388860002,1553.9843388860002,1553.9843388860002,1553.9843388860002,1553.9843388860002,1553.9843388860002,1553.9843388860002,1553.9843388860002,1556.019819439,1556.019819439,1556.019819439,1556.019819439,,,,,,,,,,,,,,,,,,,,,,,,,,,,,,,,,,,,,,,01,012,2022-09-27_14h38.28.289,test2,2022.2.4,59.934160526580094,
0,0,0,0,98,0,98,0,1556.019819439,1556.019819439,1556.019819439,1556.019819439,1556.019819439,1556.019819439,1556.019819439,1,-1,rojo,0,['N_B'],1558.171759308,1558.171759308,1558.171759308,1558.171759308,1560.207495217,1560.207495217,1560.207495217,1560.207495217,1560.207495217,1560.207495217,1560.207495217,1560.207495217,1562.24299703,1562.24299703,1562.24299703,1562.24299703,,,,,,,,,,,,,,,,,,,,,,,,,,,,,,,,,,,,,,,01,012,2022-09-27_14h38.28.289,test2,2022.2.4,59.934160526580094,
0,0,0,0,99,0,99,0,1562.24299703,1562.24299703,1562.24299703,1562.24299703,1562.24299703,1562.24299703,1562.24299703,1,-1,azul,0,['N_A'],1563.2611167740001,1563.2611167740001,1563.2611167740001,1563.2611167740001,1565.296738471,1565.296738471,1565.296738471,1565.296738471,1565.296738471,1565.296738471,1565.296738471,1565.296738471,1567.3322270580002,1567.3322270580002,1567.3322270580002,1567.3322270580002,,,,,,,,,,,,,,,,,,,,,,,,,,,,,,,,,,,,,,,01,012,2022-09-27_14h38.28.289,test2,2022.2.4,59.934160526580094,
0,0,0,0,100,0,100,0,1567.3322270580002,1567.3322270580002,1567.3322270580002,1567.3322270580002,1567.3322270580002,1567.3322270580002,1567.3322270580002,1,-1,rojo,1,['N_A'],1568.8842210120001,1568.8842210120001,1568.8842210120001,1568.8842210120001,1570.919373658,1570.919373658,1570.919373658,1570.919373658,1570.919373658,1570.919373658,1570.919373658,1570.919373658,1572.95588014,1572.95588014,1572.95588014,1572.95588014,,,,,,,,,,,,,,,,,,,,,,,,,,,,,,,,,,,,,,,01,012,2022-09-27_14h38.28.289,test2,2022.2.4,59.934160526580094,
0,0,0,0,101,0,101,0,1572.95588014,1572.95588014,1572.95588014,1572.95588014,1572.95588014,1572.95588014,1572.95588014,1,1,rojo,1,['N_A'],1574.7407074960001,1574.7407074960001,1574.7407074960001,1574.7407074960001,1576.776218963,1576.776218963,1576.776218963,1576.776218963,1576.776218963,1576.776218963,1576.776218963,1576.776218963,1578.811150061,1578.811150061,1578.811150061,1578.811150061,,,,,,,,,,,,,,,,,,,,,,,,,,,,,,,,,,,,,,,01,012,2022-09-27_14h38.28.289,test2,2022.2.4,59.934160526580094,
0,0,0,0,102,0,102,0,1578.811150061,1578.811150061,1578.811150061,1578.811150061,1578.811150061,1578.811150061,1578.811150061,1,-1,rojo,1,['N_A'],1580.262650849,1580.262650849,1580.262650849,1580.262650849,1582.2991829920002,1582.2991829920002,1582.2991829920002,1582.2991829920002,1582.2991829920002,1582.2991829920002,1582.2991829920002,1582.2991829920002,1584.3341011900002,1584.3341011900002,1584.3341011900002,1584.3341011900002,,,,,,,,,,,,,,,,,,,,,,,,,,,,,,,,,,,,,,,01,012,2022-09-27_14h38.28.289,test2,2022.2.4,59.934160526580094,
0,0,0,0,103,0,103,0,1584.3341011900002,1584.3341011900002,1584.3341011900002,1584.3341011900002,1584.3341011900002,1584.3341011900002,1584.3341011900002,1,-1,rojo,1,['N_A'],1586.102762528,1586.102762528,1586.102762528,1586.102762528,1588.13930071,1588.13930071,1588.13930071,1588.13930071,1588.13930071,1588.13930071,1588.13930071,1588.13930071,1590.173718981,1590.173718981,1590.173718981,1590.173718981,,,,,,,,,,,,,,,,,,,,,,,,,,,,,,,,,,,,,,,01,012,2022-09-27_14h38.28.289,test2,2022.2.4,59.934160526580094,
0,0,0,0,104,0,104,0,1590.173718981,1590.173718981,1590.173718981,1590.173718981,1590.173718981,1590.173718981,1590.173718981,-1,-1,azul,1,['N_A'],1591.692249813,1591.692249813,1591.692249813,1591.692249813,1593.727067883,1593.727067883,1593.727067883,1593.727067883,1593.727067883,1593.727067883,1593.727067883,1593.727067883,1595.763154194,1595.763154194,1595.763154194,1595.763154194,,,,,,,,,,,,,,,,,,,,,,,,,,,,,,,,,,,,,,,01,012,2022-09-27_14h38.28.289,test2,2022.2.4,59.934160526580094,
0,0,0,0,105,0,105,0,1595.763154194,1595.763154194,1595.763154194,1595.763154194,1595.763154194,1595.763154194,1595.763154194,-1,-1,azul,0,['N_B'],1597.232115886,1597.232115886,1597.232115886,1597.232115886,1599.267163462,1599.267163462,1599.267163462,1599.267163462,1599.267163462,1599.267163462,1599.267163462,1599.267163462,1601.3026784150002,1601.3026784150002,1601.3026784150002,1601.3026784150002,,,,,,,,,,,,,,,,,,,,,,,,,,,,,,,,,,,,,,,01,012,2022-09-27_14h38.28.289,test2,2022.2.4,59.934160526580094,
0,0,0,0,106,0,106,0,1601.3026784150002,1601.3026784150002,1601.3026784150002,1601.3026784150002,1601.3026784150002,1601.3026784150002,1601.3026784150002,-1,-1,rojo,1,['N_B'],1602.6713614530001,1602.6713614530001,1602.6713614530001,1602.6713614530001,1604.7073401690002,1604.7073401690002,1604.7073401690002,1604.7073401690002,1604.7073401690002,1604.7073401690002,1604.7073401690002,1604.7073401690002,1606.741972686,1606.741972686,1606.741972686,1606.741972686,,,,,,,,,,,,,,,,,,,,,,,,,,,,,,,,,,,,,,,01,012,2022-09-27_14h38.28.289,test2,2022.2.4,59.934160526580094,
0,0,0,0,107,0,107,0,1606.741972686,1606.741972686,1606.741972686,1606.741972686,1606.741972686,1606.741972686,1606.741972686,-1,-1,rojo,1,['N_B'],1607.9606024910001,1607.9606024910001,1607.9606024910001,1607.9606024910001,1609.995983686,1609.995983686,1609.995983686,1609.995983686,1609.995983686,1609.995983686,1609.995983686,1609.995983686,1612.032081261,1612.032081261,1612.032081261,1612.032081261,,,,,,,,,,,,,,,,,,,,,,,,,,,,,,,,,,,,,,,01,012,2022-09-27_14h38.28.289,test2,2022.2.4,59.934160526580094,
0,0,0,0,108,0,108,0,1612.032081261,1612.032081261,1612.032081261,1612.032081261,1612.032081261,1612.032081261,1612.032081261,-1,-1,rojo,0,['N_A'],1614.468216277,1614.468216277,1614.468216277,1614.468216277,1616.503515504,1616.503515504,1616.503515504,1616.503515504,1616.503515504,1616.503515504,1616.503515504,1616.503515504,1618.539364558,1618.539364558,1618.539364558,1618.539364558,,,,,,,,,,,,,,,,,,,,,,,,,,,,,,,,,,,,,,,01,012,2022-09-27_14h38.28.289,test2,2022.2.4,59.934160526580094,
0,0,0,0,109,0,109,0,1618.539364558,1618.539364558,1618.539364558,1618.539364558,1618.539364558,1618.539364558,1618.539364558,-1,-1,azul,1,['N_A'],1620.591342661,1620.591342661,1620.591342661,1620.591342661,1622.6270874240001,1622.6270874240001,1622.6270874240001,1622.6270874240001,1622.6270874240001,1622.6270874240001,1622.6270874240001,1622.6270874240001,1624.661935908,1624.661935908,1624.661935908,1624.661935908,,,,,,,,,,,,,,,,,,,,,,,,,,,,,,,,,,,,,,,01,012,2022-09-27_14h38.28.289,test2,2022.2.4,59.934160526580094,
0,0,0,0,110,0,110,0,1624.661935908,1624.661935908,1624.661935908,1624.661935908,1624.661935908,1624.661935908,1624.661935908,1,-1,rojo,1,['N_A'],1626.5477322830002,1626.5477322830002,1626.5477322830002,1626.5477322830002,1628.583808413,1628.583808413,1628.583808413,1628.583808413,1628.583808413,1628.583808413,1628.583808413,1628.583808413,1630.6182370230001,1630.6182370230001,1630.6182370230001,1630.6182370230001,,,,,,,,,,,,,,,,,,,,,,,,,,,,,,,,,,,,,,,01,012,2022-09-27_14h38.28.289,test2,2022.2.4,59.934160526580094,
0,0,0,0,111,0,111,0,1630.6182370230001,1630.6182370230001,1630.6182370230001,1630.6182370230001,1630.6182370230001,1630.6182370230001,1630.6182370230001,-1,1,azul,1,['N_A'],1632.104185632,1632.104185632,1632.104185632,1632.104185632,1634.1397789480002,1634.1397789480002,1634.1397789480002,1634.1397789480002,1634.1397789480002,1634.1397789480002,1634.1397789480002,1634.1397789480002,1636.174603286,1636.174603286,1636.174603286,1636.174603286,,,,,,,,,,,,,,,,,,,,,,,,,,,,,,,,,,,,,,,01,012,2022-09-27_14h38.28.289,test2,2022.2.4,59.934160526580094,
0,0,0,0,112,0,112,0,1636.174603286,1636.174603286,1636.174603286,1636.174603286,1636.174603286,1636.174603286,1636.174603286,1,-1,rojo,1,['N_A'],1637.259673557,1637.259673557,1637.259673557,1637.259673557,1639.295488379,1639.295488379,1639.295488379,1639.295488379,1639.295488379,1639.295488379,1639.295488379,1639.295488379,1641.330164641,1641.330164641,1641.330164641,1641.330164641,,,,,,,,,,,,,,,,,,,,,,,,,,,,,,,,,,,,,,,01,012,2022-09-27_14h38.28.289,test2,2022.2.4,59.934160526580094,
0,0,0,0,113,0,113,0,1641.330164641,1641.330164641,1641.330164641,1641.330164641,1641.330164641,1641.330164641,1641.330164641,-1,-1,azul,1,['N_A'],1642.581720783,1642.581720783,1642.581720783,1642.581720783,1644.6177162840002,1644.6177162840002,1644.6177162840002,1644.6177162840002,1644.6177162840002,1644.6177162840002,1644.6177162840002,1644.6177162840002,1646.653105219,1646.653105219,1646.653105219,1646.653105219,,,,,,,,,,,,,,,,,,,,,,,,,,,,,,,,,,,,,,,01,012,2022-09-27_14h38.28.289,test2,2022.2.4,59.934160526580094,
0,0,0,0,114,0,114,0,1646.653105219,1646.653105219,1646.653105219,1646.653105219,1646.653105219,1646.653105219,1646.653105219,-1,-1,azul,0,['N_B'],1648.055026947,1648.055026947,1648.055026947,1648.055026947,1650.0905658420002,1650.0905658420002,1650.0905658420002,1650.0905658420002,1650.0905658420002,1650.0905658420002,1650.0905658420002,1650.0905658420002,1652.1255217510002,1652.1255217510002,1652.1255217510002,1652.1255217510002,,,,,,,,,,,,,,,,,,,,,,,,,,,,,,,,,,,,,,,01,012,2022-09-27_14h38.28.289,test2,2022.2.4,59.934160526580094,
0,0,0,0,115,0,115,0,1652.1255217510002,1652.1255217510002,1652.1255217510002,1652.1255217510002,1652.1255217510002,1652.1255217510002,1652.1255217510002,1,1,azul,1,['N_B'],1653.5772418880001,1653.5772418880001,1653.5772418880001,1653.5772418880001,1655.613262522,1655.613262522,1655.613262522,1655.613262522,1655.613262522,1655.613262522,1655.613262522,1655.613262522,1657.648500518,1657.648500518,1657.648500518,1657.648500518,,,,,,,,,,,,,,,,,,,,,,,,,,,,,,,,,,,,,,,01,012,2022-09-27_14h38.28.289,test2,2022.2.4,59.934160526580094,
0,0,0,0,116,0,116,0,1657.648500518,1657.648500518,1657.648500518,1657.648500518,1657.648500518,1657.648500518,1657.648500518,1,-1,azul,1,['N_B'],1658.783366823,1658.783366823,1658.783366823,1658.783366823,1660.8185626680001,1660.8185626680001,1660.8185626680001,1660.8185626680001,1660.8185626680001,1660.8185626680001,1660.8185626680001,1660.8185626680001,1662.8544818130001,1662.8544818130001,1662.8544818130001,1662.8544818130001,,,,,,,,,,,,,,,,,,,,,,,,,,,,,,,,,,,,,,,01,012,2022-09-27_14h38.28.289,test2,2022.2.4,59.934160526580094,
0,0,0,0,117,0,117,0,1662.8544818130001,1662.8544818130001,1662.8544818130001,1662.8544818130001,1662.8544818130001,1662.8544818130001,1662.8544818130001,1,-1,azul,0,['N_A'],1664.239554769,1664.239554769,1664.239554769,1664.239554769,1666.2750743600002,1666.2750743600002,1666.2750743600002,1666.2750743600002,1666.2750743600002,1666.2750743600002,1666.2750743600002,1666.2750743600002,1668.310068343,1668.310068343,1668.310068343,1668.310068343,,,,,,,,,,,,,,,,,,,,,,,,,,,,,,,,,,,,,,,01,012,2022-09-27_14h38.28.289,test2,2022.2.4,59.934160526580094,
0,0,0,0,118,0,118,0,1668.310068343,1668.310068343,1668.310068343,1668.310068343,1668.310068343,1668.310068343,1668.310068343,1,1,rojo,1,['N_A'],1670.546415068,1670.546415068,1670.546415068,1670.546415068,1672.5647134340002,1672.5647134340002,1672.5647134340002,1672.5647134340002,1672.5647134340002,1672.5647134340002,1672.5647134340002,1672.5647134340002,1674.600658606,1674.600658606,1674.600658606,1674.600658606,,,,,,,,,,,,,,,,,,,,,,,,,,,,,,,,,,,,,,,01,012,2022-09-27_14h38.28.289,test2,2022.2.4,59.934160526580094,
0,0,0,0,119,0,119,0,1674.600658606,1674.600658606,1674.600658606,1674.600658606,1674.600658606,1674.600658606,1674.600658606,-1,1,azul,1,['N_A'],1679.022454831,1679.022454831,1679.022454831,1679.022454831,1681.040822953,1681.040822953,1681.040822953,1681.040822953,1681.040822953,1681.040822953,1681.040822953,1681.040822953,1683.0764805590002,1683.0764805590002,1683.0764805590002,1683.0764805590002,,,,,,,,,,,,,,,,,,,,,,,,,,,,,,,,,,,,,,,01,012,2022-09-27_14h38.28.289,test2,2022.2.4,59.934160526580094,
0,0,0,0,120,0,120,0,1683.0764805590002,1683.0764805590002,1683.0764805590002,1683.0764805590002,1683.0764805590002,1683.0764805590002,1683.0764805590002,-1,1,azul,1,['N_A'],1685.045140572,1685.045140572,1685.045140572,1685.045140572,1687.06423837,1687.06423837,1687.06423837,1687.06423837,1687.06423837,1687.06423837,1687.06423837,1687.06423837,1689.100038242,1689.100038242,1689.100038242,1689.100038242,,,,,,,,,,,,,,,,,,,,,,,,,,,,,,,,,,,,,,,01,012,2022-09-27_14h38.28.289,test2,2022.2.4,59.934160526580094,
0,0,0,0,121,0,121,0,1689.100038242,1689.100038242,1689.100038242,1689.100038242,1689.100038242,1689.100038242,1689.100038242,1,1,rojo,1,['N_A'],1690.752054047,1690.752054047,1690.752054047,1690.752054047,1692.787613685,1692.787613685,1692.787613685,1692.787613685,1692.787613685,1692.787613685,1692.787613685,1692.787613685,1694.823420491,1694.823420491,1694.823420491,1694.823420491,,,,,,,,,,,,,,,,,,,,,,,,,,,,,,,,,,,,,,,01,012,2022-09-27_14h38.28.289,test2,2022.2.4,59.934160526580094,
0,0,0,0,122,0,122,0,1694.823420491,1694.823420491,1694.823420491,1694.823420491,1694.823420491,1694.823420491,1694.823420491,1,-1,rojo,1,['N_A'],1697.375454703,1697.375454703,1697.375454703,1697.375454703,1699.4120014700002,1699.4120014700002,1699.4120014700002,1699.4120014700002,1699.4120014700002,1699.4120014700002,1699.4120014700002,1699.4120014700002,1701.4466989940001,1701.4466989940001,1701.4466989940001,1701.4466989940001,,,,,,,,,,,,,,,,,,,,,,,,,,,,,,,,,,,,,,,01,012,2022-09-27_14h38.28.289,test2,2022.2.4,59.934160526580094,
0,0,0,0,123,0,123,0,1701.4466989940001,1701.4466989940001,1701.4466989940001,1701.4466989940001,1701.4466989940001,1701.4466989940001,1701.4466989940001,1,-1,rojo,1,['N_A'],1703.4153786680001,1703.4153786680001,1703.4153786680001,1703.4153786680001,1705.4514151980002,1705.4514151980002,1705.4514151980002,1705.4514151980002,1705.4514151980002,1705.4514151980002,1705.4514151980002,1705.4514151980002,1707.486504375,1707.486504375,1707.486504375,1707.486504375,,,,,,,,,,,,,,,,,,,,,,,,,,,,,,,,,,,,,,,01,012,2022-09-27_14h38.28.289,test2,2022.2.4,59.934160526580094,
0,0,0,0,124,0,124,0,1707.486504375,1707.486504375,1707.486504375,1707.486504375,1707.486504375,1707.486504375,1707.486504375,-1,-1,azul,0,['N_B'],1709.13852444,1709.13852444,1709.13852444,1709.13852444,1711.1741824120002,1711.1741824120002,1711.1741824120002,1711.1741824120002,1711.1741824120002,1711.1741824120002,1711.1741824120002,1711.1741824120002,1713.20961199,1713.20961199,1713.20961199,1713.20961199,,,,,,,,,,,,,,,,,,,,,,,,,,,,,,,,,,,,,,,01,012,2022-09-27_14h38.28.289,test2,2022.2.4,59.934160526580094,
0,0,0,0,125,0,125,0,1713.20961199,1713.20961199,1713.20961199,1713.20961199,1713.20961199,1713.20961199,1713.20961199,-1,-1,rojo,1,['N_B'],1715.0956417900002,1715.0956417900002,1715.0956417900002,1715.0956417900002,1717.1310666910001,1717.1310666910001,1717.1310666910001,1717.1310666910001,1717.1310666910001,1717.1310666910001,1717.1310666910001,1717.1310666910001,1719.166819857,1719.166819857,1719.166819857,1719.166819857,,,,,,,,,,,,,,,,,,,,,,,,,,,,,,,,,,,,,,,01,012,2022-09-27_14h38.28.289,test2,2022.2.4,59.934160526580094,
0,0,0,0,126,0,126,0,1719.166819857,1719.166819857,1719.166819857,1719.166819857,1719.166819857,1719.166819857,1719.166819857,1,-1,azul,0,['N_A'],1720.667890896,1720.667890896,1720.667890896,1720.667890896,1722.703765085,1722.703765085,1722.703765085,1722.703765085,1722.703765085,1722.703765085,1722.703765085,1722.703765085,1724.7389710730001,1724.7389710730001,1724.7389710730001,1724.7389710730001,,,,,,,,,,,,,,,,,,,,,,,,,,,,,,,,,,,,,,,01,012,2022-09-27_14h38.28.289,test2,2022.2.4,59.934160526580094,
0,0,0,0,127,0,127,0,1724.7389710730001,1724.7389710730001,1724.7389710730001,1724.7389710730001,1724.7389710730001,1724.7389710730001,1724.7389710730001,1,-1,rojo,1,['N_A'],1726.507700355,1726.507700355,1726.507700355,1726.507700355,1728.543684496,1728.543684496,1728.543684496,1728.543684496,1728.543684496,1728.543684496,1728.543684496,1728.543684496,1730.5785723180002,1730.5785723180002,1730.5785723180002,1730.5785723180002,,,,,,,,,,,,,,,,,,,,,,,,,,,,,,,,,,,,,,,01,012,2022-09-27_14h38.28.289,test2,2022.2.4,59.934160526580094,
0,0,0,0,128,0,128,0,1730.5785723180002,1730.5785723180002,1730.5785723180002,1730.5785723180002,1730.5785723180002,1730.5785723180002,1730.5785723180002,1,1,rojo,1,['N_A'],1732.7981445570001,1732.7981445570001,1732.7981445570001,1732.7981445570001,1734.8171343000001,1734.8171343000001,1734.8171343000001,1734.8171343000001,1734.8171343000001,1734.8171343000001,1734.8171343000001,1734.8171343000001,1736.8523030630001,1736.8523030630001,1736.8523030630001,1736.8523030630001,,,,,,,,,,,,,,,,,,,,,,,,,,,,,,,,,,,,,,,01,012,2022-09-27_14h38.28.289,test2,2022.2.4,59.934160526580094,
0,0,0,0,129,0,129,0,1736.8523030630001,1736.8523030630001,1736.8523030630001,1736.8523030630001,1736.8523030630001,1736.8523030630001,1736.8523030630001,1,1,rojo,1,['N_A'],1738.037049326,1738.037049326,1738.037049326,1738.037049326,1740.073326812,1740.073326812,1740.073326812,1740.073326812,1740.073326812,1740.073326812,1740.073326812,1740.073326812,1742.108815879,1742.108815879,1742.108815879,1742.108815879,,,,,,,,,,,,,,,,,,,,,,,,,,,,,,,,,,,,,,,01,012,2022-09-27_14h38.28.289,test2,2022.2.4,59.934160526580094,
0,0,0,0,130,0,130,0,1742.108815879,1742.108815879,1742.108815879,1742.108815879,1742.108815879,1742.108815879,1742.108815879,1,-1,rojo,1,['N_A'],1748.96650614,1748.96650614,1748.96650614,1748.96650614,1751.001849575,1751.001849575,1751.001849575,1751.001849575,1751.001849575,1751.001849575,1751.001849575,1751.001849575,1753.0367365880002,1753.0367365880002,1753.0367365880002,1753.0367365880002,,,,,,,,,,,,,,,,,,,,,,,,,,,,,,,,,,,,,,,01,012,2022-09-27_14h38.28.289,test2,2022.2.4,59.934160526580094,
0,0,0,0,131,0,131,0,1753.0367365880002,1753.0367365880002,1753.0367365880002,1753.0367365880002,1753.0367365880002,1753.0367365880002,1753.0367365880002,1,-1,rojo,1,['N_A'],1754.588696143,1754.588696143,1754.588696143,1754.588696143,1756.624531426,1756.624531426,1756.624531426,1756.624531426,1756.624531426,1756.624531426,1756.624531426,1756.624531426,1758.65986004,1758.65986004,1758.65986004,1758.65986004,,,,,,,,,,,,,,,,,,,,,,,,,,,,,,,,,,,,,,,01,012,2022-09-27_14h38.28.289,test2,2022.2.4,59.934160526580094,
0,0,0,0,132,0,132,0,1758.65986004,1758.65986004,1758.65986004,1758.65986004,1758.65986004,1758.65986004,1758.65986004,-1,-1,azul,1,['N_A'],1763.38199708,1763.38199708,1763.38199708,1763.38199708,1765.4173411010001,1765.4173411010001,1765.4173411010001,1765.4173411010001,1765.4173411010001,1765.4173411010001,1765.4173411010001,1765.4173411010001,1767.453183181,1767.453183181,1767.453183181,1767.453183181,,,,,,,,,,,,,,,,,,,,,,,,,,,,,,,,,,,,,,,01,012,2022-09-27_14h38.28.289,test2,2022.2.4,59.934160526580094,
0,0,0,0,133,0,133,0,1767.453183181,1767.453183181,1767.453183181,1767.453183181,1767.453183181,1767.453183181,1767.453183181,-1,1,azul,1,['N_A'],1769.655018292,1769.655018292,1769.655018292,1769.655018292,1771.673666682,1771.673666682,1771.673666682,1771.673666682,1771.673666682,1771.673666682,1771.673666682,1771.673666682,1773.709898647,1773.709898647,1773.709898647,1773.709898647,,,,,,,,,,,,,,,,,,,,,,,,,,,,,,,,,,,,,,,01,012,2022-09-27_14h38.28.289,test2,2022.2.4,59.934160526580094,
0,0,0,0,134,0,134,0,1773.709898647,1773.709898647,1773.709898647,1773.709898647,1773.709898647,1773.709898647,1773.709898647,1,1,rojo,1,['N_A'],1774.910809015,1774.910809015,1774.910809015,1774.910809015,1776.9308913920001,1776.9308913920001,1776.9308913920001,1776.9308913920001,1776.9308913920001,1776.9308913920001,1776.9308913920001,1776.9308913920001,1778.9652856330001,1778.9652856330001,1778.9652856330001,1778.9652856330001,,,,,,,,,,,,,,,,,,,,,,,,,,,,,,,,,,,,,,,01,012,2022-09-27_14h38.28.289,test2,2022.2.4,59.934160526580094,
0,0,0,0,135,0,135,0,1778.9652856330001,1778.9652856330001,1778.9652856330001,1778.9652856330001,1778.9652856330001,1778.9652856330001,1778.9652856330001,1,1,rojo,1,['N_A'],1781.184250478,1781.184250478,1781.184250478,1781.184250478,1783.2207268220002,1783.2207268220002,1783.2207268220002,1783.2207268220002,1783.2207268220002,1783.2207268220002,1783.2207268220002,1783.2207268220002,1785.256124598,1785.256124598,1785.256124598,1785.256124598,,,,,,,,,,,,,,,,,,,,,,,,,,,,,,,,,,,,,,,01,012,2022-09-27_14h38.28.289,test2,2022.2.4,59.934160526580094,
0,0,0,0,136,0,136,0,1785.256124598,1785.256124598,1785.256124598,1785.256124598,1785.256124598,1785.256124598,1785.256124598,-1,-1,azul,0,['N_B'],1786.908235517,1786.908235517,1786.908235517,1786.908235517,1788.942998209,1788.942998209,1788.942998209,1788.942998209,1788.942998209,1788.942998209,1788.942998209,1788.942998209,1790.978879099,1790.978879099,1790.978879099,1790.978879099,,,,,,,,,,,,,,,,,,,,,,,,,,,,,,,,,,,,,,,01,012,2022-09-27_14h38.28.289,test2,2022.2.4,59.934160526580094,
0,0,0,0,137,0,137,0,1790.978879099,1790.978879099,1790.978879099,1790.978879099,1790.978879099,1790.978879099,1790.978879099,1,-1,azul,1,['N_B'],1792.3642376280002,1792.3642376280002,1792.3642376280002,1792.3642376280002,1794.399178327,1794.399178327,1794.399178327,1794.399178327,1794.399178327,1794.399178327,1794.399178327,1794.399178327,1796.434551812,1796.434551812,1796.434551812,1796.434551812,,,,,,,,,,,,,,,,,,,,,,,,,,,,,,,,,,,,,,,01,012,2022-09-27_14h38.28.289,test2,2022.2.4,59.934160526580094,
0,0,0,0,138,0,138,0,1796.434551812,1796.434551812,1796.434551812,1796.434551812,1796.434551812,1796.434551812,1796.434551812,-1,1,rojo,1,['N_B'],1798.036844385,1798.036844385,1798.036844385,1798.036844385,1800.056436693,1800.056436693,1800.056436693,1800.056436693,1800.056436693,1800.056436693,1800.056436693,1800.056436693,1802.0910365880002,1802.0910365880002,1802.0910365880002,1802.0910365880002,,,,,,,,,,,,,,,,,,,,,,,,,,,,,,,,,,,,,,,01,012,2022-09-27_14h38.28.289,test2,2022.2.4,59.934160526580094,
0,0,0,0,139,0,139,0,1802.0910365880002,1802.0910365880002,1802.0910365880002,1802.0910365880002,1802.0910365880002,1802.0910365880002,1802.0910365880002,1,1,azul,1,['N_B'],1803.693249099,1803.693249099,1803.693249099,1803.693249099,1805.711670161,1805.711670161,1805.711670161,1805.711670161,1805.711670161,1805.711670161,1805.711670161,1805.711670161,1807.7470165020002,1807.7470165020002,1807.7470165020002,1807.7470165020002,,,,,,,,,,,,,,,,,,,,,,,,,,,,,,,,,,,,,,,01,012,2022-09-27_14h38.28.289,test2,2022.2.4,59.934160526580094,
0,0,0,0,140,0,140,0,1807.7470165020002,1807.7470165020002,1807.7470165020002,1807.7470165020002,1807.7470165020002,1807.7470165020002,1807.7470165020002,1,1,azul,1,['N_B'],1809.2156437350002,1809.2156437350002,1809.2156437350002,1809.2156437350002,1811.234148664,1811.234148664,1811.234148664,1811.234148664,1811.234148664,1811.234148664,1811.234148664,1811.234148664,1813.269972196,1813.269972196,1813.269972196,1813.269972196,,,,,,,,,,,,,,,,,,,,,,,,,,,,,,,,,,,,,,,01,012,2022-09-27_14h38.28.289,test2,2022.2.4,59.934160526580094,
0,0,0,0,141,0,141,0,1813.269972196,1813.269972196,1813.269972196,1813.269972196,1813.269972196,1813.269972196,1813.269972196,1,1,azul,1,['N_B'],1814.654744484,1814.654744484,1814.654744484,1814.654744484,1816.673401042,1816.673401042,1816.673401042,1816.673401042,1816.673401042,1816.673401042,1816.673401042,1816.673401042,1818.7100723130002,1818.7100723130002,1818.7100723130002,1818.7100723130002,,,,,,,,,,,,,,,,,,,,,,,,,,,,,,,,,,,,,,,01,012,2022-09-27_14h38.28.289,test2,2022.2.4,59.934160526580094,
0,0,0,0,142,0,142,0,1818.7100723130002,1818.7100723130002,1818.7100723130002,1818.7100723130002,1818.7100723130002,1818.7100723130002,1818.7100723130002,1,1,azul,1,['N_B'],1820.094470361,1820.094470361,1820.094470361,1820.094470361,1822.129878642,1822.129878642,1822.129878642,1822.129878642,1822.129878642,1822.129878642,1822.129878642,1822.129878642,1824.16607544,1824.16607544,1824.16607544,1824.16607544,,,,,,,,,,,,,,,,,,,,,,,,,,,,,,,,,,,,,,,01,012,2022-09-27_14h38.28.289,test2,2022.2.4,59.934160526580094,
0,0,0,0,143,0,143,0,1824.16607544,1824.16607544,1824.16607544,1824.16607544,1824.16607544,1824.16607544,1824.16607544,-1,-1,rojo,1,['N_B'],1825.550252643,1825.550252643,1825.550252643,1825.550252643,1827.587010815,1827.587010815,1827.587010815,1827.587010815,1827.587010815,1827.587010815,1827.587010815,1827.587010815,1829.6218819199999,1829.6218819199999,1829.6218819199999,1829.6218819199999,,,,,,,,,,,,,,,,,,,,,,,,,,,,,,,,,,,,,,,01,012,2022-09-27_14h38.28.289,test2,2022.2.4,59.934160526580094,
0,0,0,0,144,0,144,0,1829.6218819199999,1829.6218819199999,1829.6218819199999,1829.6218819199999,1829.6218819199999,1829.6218819199999,1829.6218819199999,-1,1,rojo,1,['N_B'],1831.1735629710001,1831.1735629710001,1831.1735629710001,1831.1735629710001,1833.1918799700002,1833.1918799700002,1833.1918799700002,1833.1918799700002,1833.1918799700002,1833.1918799700002,1833.1918799700002,1833.1918799700002,1835.2279217310002,1835.2279217310002,1835.2279217310002,1835.2279217310002,,,,,,,,,,,,,,,,,,,,,,,,,,,,,,,,,,,,,,,01,012,2022-09-27_14h38.28.289,test2,2022.2.4,59.934160526580094,
0,0,0,0,145,0,145,0,1835.2279217310002,1835.2279217310002,1835.2279217310002,1835.2279217310002,1835.2279217310002,1835.2279217310002,1835.2279217310002,1,1,azul,1,['N_B'],1836.879865152,1836.879865152,1836.879865152,1836.879865152,1838.9156967889999,1838.9156967889999,1838.9156967889999,1838.9156967889999,1838.9156967889999,1838.9156967889999,1838.9156967889999,1838.9156967889999,1840.950674052,1840.950674052,1840.950674052,1840.950674052,,,,,,,,,,,,,,,,,,,,,,,,,,,,,,,,,,,,,,,01,012,2022-09-27_14h38.28.289,test2,2022.2.4,59.934160526580094,
0,0,0,0,146,0,146,0,1840.950674052,1840.950674052,1840.950674052,1840.950674052,1840.950674052,1840.950674052,1840.950674052,1,-1,azul,1,['N_B'],1842.702591019,1842.702591019,1842.702591019,1842.702591019,1844.7389260270002,1844.7389260270002,1844.7389260270002,1844.7389260270002,1844.7389260270002,1844.7389260270002,1844.7389260270002,1844.7389260270002,1846.774162361,1846.774162361,1846.774162361,1846.774162361,,,,,,,,,,,,,,,,,,,,,,,,,,,,,,,,,,,,,,,01,012,2022-09-27_14h38.28.289,test2,2022.2.4,59.934160526580094,
0,0,0,0,147,0,147,0,1846.774162361,1846.774162361,1846.774162361,1846.774162361,1846.774162361,1846.774162361,1846.774162361,-1,-1,rojo,0,['N_A'],1848.359311446,1848.359311446,1848.359311446,1848.359311446,1850.3952419430002,1850.3952419430002,1850.3952419430002,1850.3952419430002,1850.3952419430002,1850.3952419430002,1850.3952419430002,1850.3952419430002,1852.430785305,1852.430785305,1852.430785305,1852.430785305,,,,,,,,,,,,,,,,,,,,,,,,,,,,,,,,,,,,,,,01,012,2022-09-27_14h38.28.289,test2,2022.2.4,59.934160526580094,
0,0,0,0,148,0,148,0,1852.430785305,1852.430785305,1852.430785305,1852.430785305,1852.430785305,1852.430785305,1852.430785305,1,1,rojo,1,['N_A'],1854.0324168330003,1854.0324168330003,1854.0324168330003,1854.0324168330003,1856.050713395,1856.050713395,1856.050713395,1856.050713395,1856.050713395,1856.050713395,1856.050713395,1856.050713395,1858.08589957,1858.08589957,1858.08589957,1858.08589957,,,,,,,,,,,,,,,,,,,,,,,,,,,,,,,,,,,,,,,01,012,2022-09-27_14h38.28.289,test2,2022.2.4,59.934160526580094,
0,0,0,0,149,0,149,0,1858.08589957,1858.08589957,1858.08589957,1858.08589957,1858.08589957,1858.08589957,1858.08589957,-1,1,azul,1,['N_A'],1859.4548453060002,1859.4548453060002,1859.4548453060002,1859.4548453060002,1861.4898919759999,1861.4898919759999,1861.4898919759999,1861.4898919759999,1861.4898919759999,1861.4898919759999,1861.4898919759999,1861.4898919759999,1863.5260958449999,1863.5260958449999,1863.5260958449999,1863.5260958449999,,,,,,,,,,,,,,,,,,,,,,,,,,,,,,,,,,,,,,,01,012,2022-09-27_14h38.28.289,test2,2022.2.4,59.934160526580094,
0,0,0,0,150,0,150,0,1863.5260958449999,1863.5260958449999,1863.5260958449999,1863.5260958449999,1863.5260958449999,1863.5260958449999,1863.5260958449999,1,-1,rojo,0,['N_B'],1864.943444993,1864.943444993,1864.943444993,1864.943444993,1866.979675256,1866.979675256,1866.979675256,1866.979675256,1866.979675256,1866.979675256,1866.979675256,1866.979675256,1869.015444011,1869.015444011,1869.015444011,1869.015444011,,,,,,,,,,,,,,,,,,,,,,,,,,,,,,,,,,,,,,,01,012,2022-09-27_14h38.28.289,test2,2022.2.4,59.934160526580094,
0,0,0,0,151,0,151,0,1869.015444011,1869.015444011,1869.015444011,1869.015444011,1869.015444011,1869.015444011,1869.015444011,1,-1,azul,0,['N_A'],1870.399323732,1870.399323732,1870.399323732,1870.399323732,1872.435652365,1872.435652365,1872.435652365,1872.435652365,1872.435652365,1872.435652365,1872.435652365,1872.435652365,1874.4713486169999,1874.4713486169999,1874.4713486169999,1874.4713486169999,,,,,,,,,,,,,,,,,,,,,,,,,,,,,,,,,,,,,,,01,012,2022-09-27_14h38.28.289,test2,2022.2.4,59.934160526580094,
0,0,0,0,152,0,152,0,1874.4713486169999,1874.4713486169999,1874.4713486169999,1874.4713486169999,1874.4713486169999,1874.4713486169999,1874.4713486169999,1,-1,rojo,0,['N_B'],1876.2564610059999,1876.2564610059999,1876.2564610059999,1876.2564610059999,1878.292590996,1878.292590996,1878.292590996,1878.292590996,1878.292590996,1878.292590996,1878.292590996,1878.292590996,1880.3278683450003,1880.3278683450003,1880.3278683450003,1880.3278683450003,,,,,,,,,,,,,,,,,,,,,,,,,,,,,,,,,,,,,,,01,012,2022-09-27_14h38.28.289,test2,2022.2.4,59.934160526580094,
0,0,0,0,153,0,153,0,1880.3278683450003,1880.3278683450003,1880.3278683450003,1880.3278683450003,1880.3278683450003,1880.3278683450003,1880.3278683450003,-1,-1,rojo,0,['N_A'],1882.5636800010002,1882.5636800010002,1882.5636800010002,1882.5636800010002,1884.5990960489999,1884.5990960489999,1884.5990960489999,1884.5990960489999,1884.5990960489999,1884.5990960489999,1884.5990960489999,1884.5990960489999,1886.634800196,1886.634800196,1886.634800196,1886.634800196,,,,,,,,,,,,,,,,,,,,,,,,,,,,,,,,,,,,,,,01,012,2022-09-27_14h38.28.289,test2,2022.2.4,59.934160526580094,
0,0,0,0,154,0,154,0,1886.634800196,1886.634800196,1886.634800196,1886.634800196,1886.634800196,1886.634800196,1886.634800196,-1,-1,azul,1,['N_A'],1887.919237867,1887.919237867,1887.919237867,1887.919237867,1889.9554701320003,1889.9554701320003,1889.9554701320003,1889.9554701320003,1889.9554701320003,1889.9554701320003,1889.9554701320003,1889.9554701320003,1891.991085694,1891.991085694,1891.991085694,1891.991085694,,,,,,,,,,,,,,,,,,,,,,,,,,,,,,,,,,,,,,,01,012,2022-09-27_14h38.28.289,test2,2022.2.4,59.934160526580094,
0,0,0,0,155,0,155,0,1891.991085694,1891.991085694,1891.991085694,1891.991085694,1891.991085694,1891.991085694,1891.991085694,1,-1,rojo,1,['N_A'],1894.276257912,1894.276257912,1894.276257912,1894.276257912,1896.3122388770003,1896.3122388770003,1896.3122388770003,1896.3122388770003,1896.3122388770003,1896.3122388770003,1896.3122388770003,1896.3122388770003,1898.346931733,1898.346931733,1898.346931733,1898.346931733,,,,,,,,,,,,,,,,,,,,,,,,,,,,,,,,,,,,,,,01,012,2022-09-27_14h38.28.289,test2,2022.2.4,59.934160526580094,
0,0,0,0,156,0,156,0,1898.346931733,1898.346931733,1898.346931733,1898.346931733,1898.346931733,1898.346931733,1898.346931733,1,-1,rojo,0,['N_B'],1899.9992509920003,1899.9992509920003,1899.9992509920003,1899.9992509920003,1902.0351881020001,1902.0351881020001,1902.0351881020001,1902.0351881020001,1902.0351881020001,1902.0351881020001,1902.0351881020001,1902.0351881020001,1904.070781729,1904.070781729,1904.070781729,1904.070781729,,,,,,,,,,,,,,,,,,,,,,,,,,,,,,,,,,,,,,,01,012,2022-09-27_14h38.28.289,test2,2022.2.4,59.934160526580094,
0,0,0,0,157,0,157,0,1904.070781729,1904.070781729,1904.070781729,1904.070781729,1904.070781729,1904.070781729,1904.070781729,1,-1,azul,1,['N_B'],1905.555028358,1905.555028358,1905.555028358,1905.555028358,1907.591343812,1907.591343812,1907.591343812,1907.591343812,1907.591343812,1907.591343812,1907.591343812,1907.591343812,1909.6269931870002,1909.6269931870002,1909.6269931870002,1909.6269931870002,,,,,,,,,,,,,,,,,,,,,,,,,,,,,,,,,,,,,,,01,012,2022-09-27_14h38.28.289,test2,2022.2.4,59.934160526580094,
0,0,0,0,158,0,158,0,1909.6269931870002,1909.6269931870002,1909.6269931870002,1909.6269931870002,1909.6269931870002,1909.6269931870002,1909.6269931870002,1,-1,azul,1,['N_B'],1911.294628356,1911.294628356,1911.294628356,1911.294628356,1913.3303048860002,1913.3303048860002,1913.3303048860002,1913.3303048860002,1913.3303048860002,1913.3303048860002,1913.3303048860002,1913.3303048860002,1915.366550052,1915.366550052,1915.366550052,1915.366550052,,,,,,,,,,,,,,,,,,,,,,,,,,,,,,,,,,,,,,,01,012,2022-09-27_14h38.28.289,test2,2022.2.4,59.934160526580094,
0,0,0,0,159,0,159,0,1915.366550052,1915.366550052,1915.366550052,1915.366550052,1915.366550052,1915.366550052,1915.366550052,-1,1,rojo,1,['N_B'],1917.051750441,1917.051750441,1917.051750441,1917.051750441,1919.070688443,1919.070688443,1919.070688443,1919.070688443,1919.070688443,1919.070688443,1919.070688443,1919.070688443,1921.1064642710003,1921.1064642710003,1921.1064642710003,1921.1064642710003,,,,,,,,,,,,,,,,,,,,,,,,,,,,,,,,,,,,,,,01,012,2022-09-27_14h38.28.289,test2,2022.2.4,59.934160526580094,
0,0,0,0,160,0,160,0,1921.1064642710003,1921.1064642710003,1921.1064642710003,1921.1064642710003,1921.1064642710003,1921.1064642710003,1921.1064642710003,-1,1,rojo,1,['N_B'],1922.457434559,1922.457434559,1922.457434559,1922.457434559,1924.4931553440001,1924.4931553440001,1924.4931553440001,1924.4931553440001,1924.4931553440001,1924.4931553440001,1924.4931553440001,1924.4931553440001,1926.5290407850002,1926.5290407850002,1926.5290407850002,1926.5290407850002,,,,,,,,,,,,,,,,,,,,,,,,,,,,,,,,,,,,,,,01,012,2022-09-27_14h38.28.289,test2,2022.2.4,59.934160526580094,
0,0,0,0,161,0,161,0,1926.5290407850002,1926.5290407850002,1926.5290407850002,1926.5290407850002,1926.5290407850002,1926.5290407850002,1926.5290407850002,1,-1,azul,0,['N_A'],1927.5466414860002,1927.5466414860002,1927.5466414860002,1927.5466414860002,1929.582370533,1929.582370533,1929.582370533,1929.582370533,1929.582370533,1929.582370533,1929.582370533,1929.582370533,1931.6171640050002,1931.6171640050002,1931.6171640050002,1931.6171640050002,,,,,,,,,,,,,,,,,,,,,,,,,,,,,,,,,,,,,,,01,012,2022-09-27_14h38.28.289,test2,2022.2.4,59.934160526580094,
0,0,0,0,162,0,162,0,1931.6171640050002,1931.6171640050002,1931.6171640050002,1931.6171640050002,1931.6171640050002,1931.6171640050002,1931.6171640050002,1,1,rojo,1,['N_A'],1933.335937588,1933.335937588,1933.335937588,1933.335937588,1935.3721393609999,1935.3721393609999,1935.3721393609999,1935.3721393609999,1935.3721393609999,1935.3721393609999,1935.3721393609999,1935.3721393609999,1937.406819198,1937.406819198,1937.406819198,1937.406819198,,,,,,,,,,,,,,,,,,,,,,,,,,,,,,,,,,,,,,,01,012,2022-09-27_14h38.28.289,test2,2022.2.4,59.934160526580094,
0,0,0,0,163,0,163,0,1937.406819198,1937.406819198,1937.406819198,1937.406819198,1937.406819198,1937.406819198,1937.406819198,1,-1,rojo,1,['N_A'],1938.4245577370002,1938.4245577370002,1938.4245577370002,1938.4245577370002,1940.4611026759999,1940.4611026759999,1940.4611026759999,1940.4611026759999,1940.4611026759999,1940.4611026759999,1940.4611026759999,1940.4611026759999,1942.4960617410002,1942.4960617410002,1942.4960617410002,1942.4960617410002,,,,,,,,,,,,,,,,,,,,,,,,,,,,,,,,,,,,,,,01,012,2022-09-27_14h38.28.289,test2,2022.2.4,59.934160526580094,
0,0,0,0,164,0,164,0,1942.4960617410002,1942.4960617410002,1942.4960617410002,1942.4960617410002,1942.4960617410002,1942.4960617410002,1942.4960617410002,1,1,rojo,1,['N_A'],1943.948091196,1943.948091196,1943.948091196,1943.948091196,1945.983533006,1945.983533006,1945.983533006,1945.983533006,1945.983533006,1945.983533006,1945.983533006,1945.983533006,1948.0184397470002,1948.0184397470002,1948.0184397470002,1948.0184397470002,,,,,,,,,,,,,,,,,,,,,,,,,,,,,,,,,,,,,,,01,012,2022-09-27_14h38.28.289,test2,2022.2.4,59.934160526580094,
0,0,0,0,165,0,165,0,1948.0184397470002,1948.0184397470002,1948.0184397470002,1948.0184397470002,1948.0184397470002,1948.0184397470002,1948.0184397470002,-1,-1,azul,1,['N_A'],1949.604418887,1949.604418887,1949.604418887,1949.604418887,1951.6398580610003,1951.6398580610003,1951.6398580610003,1951.6398580610003,1951.6398580610003,1951.6398580610003,1951.6398580610003,1951.6398580610003,1953.6747795239999,1953.6747795239999,1953.6747795239999,1953.6747795239999,,,,,,,,,,,,,,,,,,,,,,,,,,,,,,,,,,,,,,,01,012,2022-09-27_14h38.28.289,test2,2022.2.4,59.934160526580094,
0,0,0,0,166,0,166,0,1953.6747795239999,1953.6747795239999,1953.6747795239999,1953.6747795239999,1953.6747795239999,1953.6747795239999,1953.6747795239999,1,-1,rojo,0,['N_B'],1954.9771406290001,1954.9771406290001,1954.9771406290001,1954.9771406290001,1957.012347067,1957.012347067,1957.012347067,1957.012347067,1957.012347067,1957.012347067,1957.012347067,1957.012347067,1959.0475050230002,1959.0475050230002,1959.0475050230002,1959.0475050230002,,,,,,,,,,,,,,,,,,,,,,,,,,,,,,,,,,,,,,,01,012,2022-09-27_14h38.28.289,test2,2022.2.4,59.934160526580094,
0,0,0,0,167,0,167,0,1959.0475050230002,1959.0475050230002,1959.0475050230002,1959.0475050230002,1959.0475050230002,1959.0475050230002,1959.0475050230002,1,-1,azul,1,['N_B'],1960.0655662120002,1960.0655662120002,1960.0655662120002,1960.0655662120002,1962.1014131050001,1962.1014131050001,1962.1014131050001,1962.1014131050001,1962.1014131050001,1962.1014131050001,1962.1014131050001,1962.1014131050001,1964.1369164420003,1964.1369164420003,1964.1369164420003,1964.1369164420003,,,,,,,,,,,,,,,,,,,,,,,,,,,,,,,,,,,,,,,01,012,2022-09-27_14h38.28.289,test2,2022.2.4,59.934160526580094,
0,0,0,0,168,0,168,0,1964.1369164420003,1964.1369164420003,1964.1369164420003,1964.1369164420003,1964.1369164420003,1964.1369164420003,1964.1369164420003,1,1,azul,1,['N_B'],1965.721439814,1965.721439814,1965.721439814,1965.721439814,1967.7573672409999,1967.7573672409999,1967.7573672409999,1967.7573672409999,1967.7573672409999,1967.7573672409999,1967.7573672409999,1967.7573672409999,1969.7925047080003,1969.7925047080003,1969.7925047080003,1969.7925047080003,,,,,,,,,,,,,,,,,,,,,,,,,,,,,,,,,,,,,,,01,012,2022-09-27_14h38.28.289,test2,2022.2.4,59.934160526580094,
0,0,0,0,169,0,169,0,1969.7925047080003,1969.7925047080003,1969.7925047080003,1969.7925047080003,1969.7925047080003,1969.7925047080003,1969.7925047080003,1,-1,azul,0,['N_A'],1971.4279985900002,1971.4279985900002,1971.4279985900002,1971.4279985900002,1973.463556781,1973.463556781,1973.463556781,1973.463556781,1973.463556781,1973.463556781,1973.463556781,1973.463556781,1975.4996992249999,1975.4996992249999,1975.4996992249999,1975.4996992249999,,,,,,,,,,,,,,,,,,,,,,,,,,,,,,,,,,,,,,,01,012,2022-09-27_14h38.28.289,test2,2022.2.4,59.934160526580094,
0,0,0,0,170,0,170,0,1975.4996992249999,1975.4996992249999,1975.4996992249999,1975.4996992249999,1975.4996992249999,1975.4996992249999,1975.4996992249999,1,1,rojo,1,['N_A'],1976.8840768230002,1976.8840768230002,1976.8840768230002,1976.8840768230002,1978.902269185,1978.902269185,1978.902269185,1978.902269185,1978.902269185,1978.902269185,1978.902269185,1978.902269185,1980.9390758929999,1980.9390758929999,1980.9390758929999,1980.9390758929999,,,,,,,,,,,,,,,,,,,,,,,,,,,,,,,,,,,,,,,01,012,2022-09-27_14h38.28.289,test2,2022.2.4,59.934160526580094,
0,0,0,0,171,0,171,0,1980.9390758929999,1980.9390758929999,1980.9390758929999,1980.9390758929999,1980.9390758929999,1980.9390758929999,1980.9390758929999,-1,1,azul,1,['N_A'],1982.290124622,1982.290124622,1982.290124622,1982.290124622,1984.32574097,1984.32574097,1984.32574097,1984.32574097,1984.32574097,1984.32574097,1984.32574097,1984.32574097,1986.36086956,1986.36086956,1986.36086956,1986.36086956,,,,,,,,,,,,,,,,,,,,,,,,,,,,,,,,,,,,,,,01,012,2022-09-27_14h38.28.289,test2,2022.2.4,59.934160526580094,
0,0,0,0,172,0,172,0,1986.36086956,1986.36086956,1986.36086956,1986.36086956,1986.36086956,1986.36086956,1986.36086956,1,-1,rojo,0,['N_B'],1987.946651138,1987.946651138,1987.946651138,1987.946651138,1989.9823757630002,1989.9823757630002,1989.9823757630002,1989.9823757630002,1989.9823757630002,1989.9823757630002,1989.9823757630002,1989.9823757630002,1992.017659097,1992.017659097,1992.017659097,1992.017659097,,,,,,,,,,,,,,,,,,,,,,,,,,,,,,,,,,,,,,,01,012,2022-09-27_14h38.28.289,test2,2022.2.4,59.934160526580094,
0,0,0,0,173,0,173,0,1992.017659097,1992.017659097,1992.017659097,1992.017659097,1992.017659097,1992.017659097,1992.017659097,1,-1,azul,0,['N_A'],1993.034790494,1993.034790494,1993.034790494,1993.034790494,1995.071406872,1995.071406872,1995.071406872,1995.071406872,1995.071406872,1995.071406872,1995.071406872,1995.071406872,1997.106137244,1997.106137244,1997.106137244,1997.106137244,,,,,,,,,,,,,,,,,,,,,,,,,,,,,,,,,,,,,,,01,012,2022-09-27_14h38.28.289,test2,2022.2.4,59.934160526580094,
0,0,0,0,174,0,174,0,1997.106137244,1997.106137244,1997.106137244,1997.106137244,1997.106137244,1997.106137244,1997.106137244,1,-1,rojo,1,['N_A'],1998.124655097,1998.124655097,1998.124655097,1998.124655097,2000.1603862740003,2000.1603862740003,2000.1603862740003,2000.1603862740003,2000.1603862740003,2000.1603862740003,2000.1603862740003,2000.1603862740003,2002.19542614,2002.19542614,2002.19542614,2002.19542614,,,,,,,,,,,,,,,,,,,,,,,,,,,,,,,,,,,,,,,01,012,2022-09-27_14h38.28.289,test2,2022.2.4,59.934160526580094,
0,0,0,0,175,0,175,0,2002.19542614,2002.19542614,2002.19542614,2002.19542614,2002.19542614,2002.19542614,2002.19542614,1,-1,rojo,1,['N_A'],2003.6138936020002,2003.6138936020002,2003.6138936020002,2003.6138936020002,2005.6494231840002,2005.6494231840002,2005.6494231840002,2005.6494231840002,2005.6494231840002,2005.6494231840002,2005.6494231840002,2005.6494231840002,2007.684288259,2007.684288259,2007.684288259,2007.684288259,,,,,,,,,,,,,,,,,,,,,,,,,,,,,,,,,,,,,,,01,012,2022-09-27_14h38.28.289,test2,2022.2.4,59.934160526580094,
0,0,0,0,176,0,176,0,2007.684288259,2007.684288259,2007.684288259,2007.684288259,2007.684288259,2007.684288259,2007.684288259,-1,-1,azul,1,['N_A'],2010.271343817,2010.271343817,2010.271343817,2010.271343817,2012.307083367,2012.307083367,2012.307083367,2012.307083367,2012.307083367,2012.307083367,2012.307083367,2012.307083367,2014.342565716,2014.342565716,2014.342565716,2014.342565716,,,,,,,,,,,,,,,,,,,,,,,,,,,,,,,,,,,,,,,01,012,2022-09-27_14h38.28.289,test2,2022.2.4,59.934160526580094,
0,0,0,0,177,0,177,0,2014.342565716,2014.342565716,2014.342565716,2014.342565716,2014.342565716,2014.342565716,2014.342565716,1,-1,rojo,0,['N_B'],2015.876952129,2015.876952129,2015.876952129,2015.876952129,2017.912579549,2017.912579549,2017.912579549,2017.912579549,2017.912579549,2017.912579549,2017.912579549,2017.912579549,2019.9478825370002,2019.9478825370002,2019.9478825370002,2019.9478825370002,,,,,,,,,,,,,,,,,,,,,,,,,,,,,,,,,,,,,,,01,012,2022-09-27_14h38.28.289,test2,2022.2.4,59.934160526580094,
0,0,0,0,178,0,178,0,2019.9478825370002,2019.9478825370002,2019.9478825370002,2019.9478825370002,2019.9478825370002,2019.9478825370002,2019.9478825370002,-1,1,rojo,1,['N_B'],2023.2184040430002,2023.2184040430002,2023.2184040430002,2023.2184040430002,2025.254614175,2025.254614175,2025.254614175,2025.254614175,2025.254614175,2025.254614175,2025.254614175,2025.254614175,2027.2891520970002,2027.2891520970002,2027.2891520970002,2027.2891520970002,,,,,,,,,,,,,,,,,,,,,,,,,,,,,,,,,,,,,,,01,012,2022-09-27_14h38.28.289,test2,2022.2.4,59.934160526580094,
0,0,0,0,179,0,179,0,2027.2891520970002,2027.2891520970002,2027.2891520970002,2027.2891520970002,2027.2891520970002,2027.2891520970002,2027.2891520970002,-1,-1,rojo,1,['N_B'],2028.6914024000002,2028.6914024000002,2028.6914024000002,2028.6914024000002,2030.727024749,2030.727024749,2030.727024749,2030.727024749,2030.727024749,2030.727024749,2030.727024749,2030.727024749,2032.761951642,2032.761951642,2032.761951642,2032.761951642,,,,,,,,,,,,,,,,,,,,,,,,,,,,,,,,,,,,,,,01,012,2022-09-27_14h38.28.289,test2,2022.2.4,59.934160526580094,
0,0,0,0,180,0,180,0,2032.761951642,2032.761951642,2032.761951642,2032.761951642,2032.761951642,2032.761951642,2032.761951642,1,-1,azul,0,['N_A'],2035.649111491,2035.649111491,2035.649111491,2035.649111491,2037.6847660600001,2037.6847660600001,2037.6847660600001,2037.6847660600001,2037.6847660600001,2037.6847660600001,2037.6847660600001,2037.6847660600001,2039.7196709210002,2039.7196709210002,2039.7196709210002,2039.7196709210002,,,,,,,,,,,,,,,,,,,,,,,,,,,,,,,,,,,,,,,01,012,2022-09-27_14h38.28.289,test2,2022.2.4,59.934160526580094,
0,0,0,0,181,0,181,0,2039.7196709210002,2039.7196709210002,2039.7196709210002,2039.7196709210002,2039.7196709210002,2039.7196709210002,2039.7196709210002,-1,1,azul,1,['N_A'],2041.421669549,2041.421669549,2041.421669549,2041.421669549,2043.4576312250001,2043.4576312250001,2043.4576312250001,2043.4576312250001,2043.4576312250001,2043.4576312250001,2043.4576312250001,2043.4576312250001,2045.492455651,2045.492455651,2045.492455651,2045.492455651,,,,,,,,,,,,,,,,,,,,,,,,,,,,,,,,,,,,,,,01,012,2022-09-27_14h38.28.289,test2,2022.2.4,59.934160526580094,
0,0,0,0,182,0,182,0,2045.492455651,2045.492455651,2045.492455651,2045.492455651,2045.492455651,2045.492455651,2045.492455651,-1,-1,azul,1,['N_A'],2048.1128717330002,2048.1128717330002,2048.1128717330002,2048.1128717330002,2050.14816031,2050.14816031,2050.14816031,2050.14816031,2050.14816031,2050.14816031,2050.14816031,2050.14816031,2052.183487396,2052.183487396,2052.183487396,2052.183487396,,,,,,,,,,,,,,,,,,,,,,,,,,,,,,,,,,,,,,,01,012,2022-09-27_14h38.28.289,test2,2022.2.4,59.934160526580094,
0,0,0,0,183,0,183,0,2052.183487396,2052.183487396,2052.183487396,2052.183487396,2052.183487396,2052.183487396,2052.183487396,1,1,rojo,1,['N_A'],2053.686052223,2053.686052223,2053.686052223,2053.686052223,2055.703231709,2055.703231709,2055.703231709,2055.703231709,2055.703231709,2055.703231709,2055.703231709,2055.703231709,2057.739637403,2057.739637403,2057.739637403,2057.739637403,,,,,,,,,,,,,,,,,,,,,,,,,,,,,,,,,,,,,,,01,012,2022-09-27_14h38.28.289,test2,2022.2.4,59.934160526580094,
0,0,0,0,184,0,184,0,2057.739637403,2057.739637403,2057.739637403,2057.739637403,2057.739637403,2057.739637403,2057.739637403,-1,1,azul,1,['N_A'],2059.058357036,2059.058357036,2059.058357036,2059.058357036,2061.094083083,2061.094083083,2061.094083083,2061.094083083,2061.094083083,2061.094083083,2061.094083083,2061.094083083,2063.128912753,2063.128912753,2063.128912753,2063.128912753,,,,,,,,,,,,,,,,,,,,,,,,,,,,,,,,,,,,,,,01,012,2022-09-27_14h38.28.289,test2,2022.2.4,59.934160526580094,
0,0,0,0,185,0,185,0,2063.128912753,2063.128912753,2063.128912753,2063.128912753,2063.128912753,2063.128912753,2063.128912753,-1,-1,azul,1,['N_A'],2065.214728366,2065.214728366,2065.214728366,2065.214728366,2067.25044052,2067.25044052,2067.25044052,2067.25044052,2067.25044052,2067.25044052,2067.25044052,2067.25044052,2069.286066431,2069.286066431,2069.286066431,2069.286066431,,,,,,,,,,,,,,,,,,,,,,,,,,,,,,,,,,,,,,,01,012,2022-09-27_14h38.28.289,test2,2022.2.4,59.934160526580094,
0,0,0,0,186,0,186,0,2069.286066431,2069.286066431,2069.286066431,2069.286066431,2069.286066431,2069.286066431,2069.286066431,1,1,rojo,1,['N_A'],2071.454991014,2071.454991014,2071.454991014,2071.454991014,2073.473954866,2073.473954866,2073.473954866,2073.473954866,2073.473954866,2073.473954866,2073.473954866,2073.473954866,2075.509327748,2075.509327748,2075.509327748,2075.509327748,,,,,,,,,,,,,,,,,,,,,,,,,,,,,,,,,,,,,,,01,012,2022-09-27_14h38.28.289,test2,2022.2.4,59.934160526580094,
0,0,0,0,187,0,187,0,2075.509327748,2075.509327748,2075.509327748,2075.509327748,2075.509327748,2075.509327748,2075.509327748,1,1,rojo,1,['N_A'],2077.24473303,2077.24473303,2077.24473303,2077.24473303,2079.26299405,2079.26299405,2079.26299405,2079.26299405,2079.26299405,2079.26299405,2079.26299405,2079.26299405,2081.299019959,2081.299019959,2081.299019959,2081.299019959,,,,,,,,,,,,,,,,,,,,,,,,,,,,,,,,,,,,,,,01,012,2022-09-27_14h38.28.289,test2,2022.2.4,59.934160526580094,
0,0,0,0,188,0,188,0,2081.299019959,2081.299019959,2081.299019959,2081.299019959,2081.299019959,2081.299019959,2081.299019959,1,1,rojo,1,['N_A'],2083.151456988,2083.151456988,2083.151456988,2083.151456988,2085.169473003,2085.169473003,2085.169473003,2085.169473003,2085.169473003,2085.169473003,2085.169473003,2085.169473003,2087.2063367230003,2087.2063367230003,2087.2063367230003,2087.2063367230003,,,,,,,,,,,,,,,,,,,,,,,,,,,,,,,,,,,,,,,01,012,2022-09-27_14h38.28.289,test2,2022.2.4,59.934160526580094,
