trials_2.thisRepN,trials_2.thisTrialN,trials_2.thisN,trials_2.thisIndex,trials.thisRepN,trials.thisTrialN,trials.thisN,trials.thisIndex,Instrucción2.started,N_A_4.started,N_B_4.started,Exitos_3.started,Dias_3.started,Stimuli_1.started,Stimuli_2.started,Transitions,Rewards,Mode,Stay,Neighbour,Stimuli_3.started,Modo.started,Dias2.started,Exitos2.started,Stimuli_3.stopped,Modo.stopped,Dias2.stopped,Exitos2.stopped,Reward.started,Stimuli_reward.started,Exitos3.started,Dias3.started,Reward.stopped,Stimuli_reward.stopped,Exitos3.stopped,Dias3.stopped,Cue_text.started,Stimuli_4.started,Exitos4.started,Dias4.started,Stimuli_3_3.started,Stimuli_2_3.started,Instrucción.started,N_A.started,N_B.started,N_C.started,Exitos_2.started,Dias_2.started,Stimuli_1_3.started,Stimuli_3_2.started,Stimuli_2_2.started,Pregunta.started,N_A_2.started,N_B_2.started,N_C_2.started,Exitos5.started,Dias5.started,Stimuli_1_2.started,Resp_final_1,Modo2.started,Modo1.started,Pregunta_4.started,Modo3.started,Exitos7.started,Dias6.started,Resp_final_2,Modo1_2.started,Pregunta_3.started,Modo2_2.started,Exitos8.started,Dias7.started,Resp_final_3,Mensaje_Final2.started,Exitos6.started,participant,session,date,expName,psychopyVersion,frameRate,
0,0,0,0,0,0,0,0,1624.153497367,1624.153497367,1624.153497367,1624.153497367,1624.153497367,1624.153497367,1624.153497367,0,0,0,0,['N_A'],1635.398414305,1635.398414305,1635.398414305,1635.398414305,1637.4672586069998,1637.4672586069998,1637.4672586069998,1637.4672586069998,1637.4672586069998,1637.4672586069998,1637.4672586069998,1637.4672586069998,1639.503266603,1639.503266603,1639.503266603,1639.503266603,,,,,,,,,,,,,,,,,,,,,,,,,,,,,,,,,,,,,,,01,005,2022-09-23_10h28.53.571,test2,2022.2.4,59.811744686767156,
0,0,0,0,1,0,1,0,1639.503266603,1639.503266603,1639.503266603,1639.503266603,1639.503266603,1639.503266603,1639.503266603,-1,-1,azul,0,['N_B'],1642.690058082,1642.690058082,1642.690058082,1642.690058082,1644.72577086,1644.72577086,1644.72577086,1644.72577086,1644.72577086,1644.72577086,1644.72577086,1644.72577086,1646.761058547,1646.761058547,1646.761058547,1646.761058547,,,,,,,,,,,,,,,,,,,,,,,,,,,,,,,,,,,,,,,01,005,2022-09-23_10h28.53.571,test2,2022.2.4,59.811744686767156,
0,0,0,0,2,0,2,0,1646.761058547,1646.761058547,1646.761058547,1646.761058547,1646.761058547,1646.761058547,1646.761058547,1,1,azul,1,['N_B'],1648.46260074,1648.46260074,1648.46260074,1648.46260074,1650.482612872,1650.482612872,1650.482612872,1650.482612872,1650.482612872,1650.482612872,1650.482612872,1650.482612872,1652.518141498,1652.518141498,1652.518141498,1652.518141498,,,,,,,,,,,,,,,,,,,,,,,,,,,,,,,,,,,,,,,01,005,2022-09-23_10h28.53.571,test2,2022.2.4,59.811744686767156,
0,0,0,0,3,0,3,0,1652.518141498,1652.518141498,1652.518141498,1652.518141498,1652.518141498,1652.518141498,1652.518141498,1,1,azul,1,['N_B'],1657.606630741,1657.606630741,1657.606630741,1657.606630741,1659.6420465449999,1659.6420465449999,1659.6420465449999,1659.6420465449999,1659.6420465449999,1659.6420465449999,1659.6420465449999,1659.6420465449999,1661.67713663,1661.67713663,1661.67713663,1661.67713663,,,,,,,,,,,,,,,,,,,,,,,,,,,,,,,,,,,,,,,01,005,2022-09-23_10h28.53.571,test2,2022.2.4,59.811744686767156,
0,0,0,0,4,0,4,0,1661.67713663,1661.67713663,1661.67713663,1661.67713663,1661.67713663,1661.67713663,1661.67713663,-1,-1,rojo,0,['N_A'],1664.063638198,1664.063638198,1664.063638198,1664.063638198,1666.0999187,1666.0999187,1666.0999187,1666.0999187,1666.0999187,1666.0999187,1666.0999187,1666.0999187,1668.1350345479998,1668.1350345479998,1668.1350345479998,1668.1350345479998,,,,,,,,,,,,,,,,,,,,,,,,,,,,,,,,,,,,,,,01,005,2022-09-23_10h28.53.571,test2,2022.2.4,59.811744686767156,
0,0,0,0,5,0,5,0,1668.1350345479998,1668.1350345479998,1668.1350345479998,1668.1350345479998,1668.1350345479998,1668.1350345479998,1668.1350345479998,1,-1,rojo,0,['N_B'],1670.2539288360001,1670.2539288360001,1670.2539288360001,1670.2539288360001,1672.289631668,1672.289631668,1672.289631668,1672.289631668,1672.289631668,1672.289631668,1672.289631668,1672.289631668,1674.3248023849999,1674.3248023849999,1674.3248023849999,1674.3248023849999,,,,,,,,,,,,,,,,,,,,,,,,,,,,,,,,,,,,,,,01,005,2022-09-23_10h28.53.571,test2,2022.2.4,59.811744686767156,
0,0,0,0,6,0,6,0,1674.3248023849999,1674.3248023849999,1674.3248023849999,1674.3248023849999,1674.3248023849999,1674.3248023849999,1674.3248023849999,1,1,azul,1,['N_B'],1676.1098724709998,1676.1098724709998,1676.1098724709998,1676.1098724709998,1678.1462233989998,1678.1462233989998,1678.1462233989998,1678.1462233989998,1678.1462233989998,1678.1462233989998,1678.1462233989998,1678.1462233989998,1680.181198037,1680.181198037,1680.181198037,1680.181198037,,,,,,,,,,,,,,,,,,,,,,,,,,,,,,,,,,,,,,,01,005,2022-09-23_10h28.53.571,test2,2022.2.4,59.811744686767156,
0,0,0,0,7,0,7,0,1680.181198037,1680.181198037,1680.181198037,1680.181198037,1680.181198037,1680.181198037,1680.181198037,-1,-1,rojo,0,['N_A'],1683.568827372,1683.568827372,1683.568827372,1683.568827372,1685.6041659659998,1685.6041659659998,1685.6041659659998,1685.6041659659998,1685.6041659659998,1685.6041659659998,1685.6041659659998,1685.6041659659998,1687.639967935,1687.639967935,1687.639967935,1687.639967935,,,,,,,,,,,,,,,,,,,,,,,,,,,,,,,,,,,,,,,01,005,2022-09-23_10h28.53.571,test2,2022.2.4,59.811744686767156,
0,0,0,0,8,0,8,0,1687.639967935,1687.639967935,1687.639967935,1687.639967935,1687.639967935,1687.639967935,1687.639967935,-1,1,azul,1,['N_A'],1689.3417613169997,1689.3417613169997,1689.3417613169997,1689.3417613169997,1691.3775415819998,1691.3775415819998,1691.3775415819998,1691.3775415819998,1691.3775415819998,1691.3775415819998,1691.3775415819998,1691.3775415819998,1693.4125958010002,1693.4125958010002,1693.4125958010002,1693.4125958010002,,,,,,,,,,,,,,,,,,,,,,,,,,,,,,,,,,,,,,,01,005,2022-09-23_10h28.53.571,test2,2022.2.4,59.811744686767156,
0,0,0,0,9,0,9,0,1693.4125958010002,1693.4125958010002,1693.4125958010002,1693.4125958010002,1693.4125958010002,1693.4125958010002,1693.4125958010002,1,-1,rojo,0,['N_B'],1695.1649131450001,1695.1649131450001,1695.1649131450001,1695.1649131450001,1697.200824452,1697.200824452,1697.200824452,1697.200824452,1697.200824452,1697.200824452,1697.200824452,1697.200824452,1699.236242925,1699.236242925,1699.236242925,1699.236242925,,,,,,,,,,,,,,,,,,,,,,,,,,,,,,,,,,,,,,,01,005,2022-09-23_10h28.53.571,test2,2022.2.4,59.811744686767156,
0,0,0,0,10,0,10,0,1699.236242925,1699.236242925,1699.236242925,1699.236242925,1699.236242925,1699.236242925,1699.236242925,1,1,azul,1,['N_B'],1700.9209799839998,1700.9209799839998,1700.9209799839998,1700.9209799839998,1702.939051959,1702.939051959,1702.939051959,1702.939051959,1702.939051959,1702.939051959,1702.939051959,1702.939051959,1704.975170604,1704.975170604,1704.975170604,1704.975170604,,,,,,,,,,,,,,,,,,,,,,,,,,,,,,,,,,,,,,,01,005,2022-09-23_10h28.53.571,test2,2022.2.4,59.811744686767156,
0,0,0,0,11,0,11,0,1704.975170604,1704.975170604,1704.975170604,1704.975170604,1704.975170604,1704.975170604,1704.975170604,1,1,azul,1,['N_B'],1706.7939838999998,1706.7939838999998,1706.7939838999998,1706.7939838999998,1708.813082068,1708.813082068,1708.813082068,1708.813082068,1708.813082068,1708.813082068,1708.813082068,1708.813082068,1710.8484502590002,1710.8484502590002,1710.8484502590002,1710.8484502590002,,,,,,,,,,,,,,,,,,,,,,,,,,,,,,,,,,,,,,,01,005,2022-09-23_10h28.53.571,test2,2022.2.4,59.811744686767156,
0,0,0,0,12,0,12,0,1710.8484502590002,1710.8484502590002,1710.8484502590002,1710.8484502590002,1710.8484502590002,1710.8484502590002,1710.8484502590002,1,1,azul,1,['N_B'],1717.873077002,1717.873077002,1717.873077002,1717.873077002,1719.9093312510001,1719.9093312510001,1719.9093312510001,1719.9093312510001,1719.9093312510001,1719.9093312510001,1719.9093312510001,1719.9093312510001,1721.943750573,1721.943750573,1721.943750573,1721.943750573,,,,,,,,,,,,,,,,,,,,,,,,,,,,,,,,,,,,,,,01,005,2022-09-23_10h28.53.571,test2,2022.2.4,59.811744686767156,
0,0,0,0,13,0,13,0,1721.943750573,1721.943750573,1721.943750573,1721.943750573,1721.943750573,1721.943750573,1721.943750573,-1,-1,rojo,0,['N_A'],1726.732766499,1726.732766499,1726.732766499,1726.732766499,1728.7690932909998,1728.7690932909998,1728.7690932909998,1728.7690932909998,1728.7690932909998,1728.7690932909998,1728.7690932909998,1728.7690932909998,1730.804641549,1730.804641549,1730.804641549,1730.804641549,,,,,,,,,,,,,,,,,,,,,,,,,,,,,,,,,,,,,,,01,005,2022-09-23_10h28.53.571,test2,2022.2.4,59.811744686767156,
0,0,0,0,14,0,14,0,1730.804641549,1730.804641549,1730.804641549,1730.804641549,1730.804641549,1730.804641549,1730.804641549,1,-1,rojo,0,['N_B'],1733.6903506279998,1733.6903506279998,1733.6903506279998,1733.6903506279998,1735.725791315,1735.725791315,1735.725791315,1735.725791315,1735.725791315,1735.725791315,1735.725791315,1735.725791315,1737.761252688,1737.761252688,1737.761252688,1737.761252688,,,,,,,,,,,,,,,,,,,,,,,,,,,,,,,,,,,,,,,01,005,2022-09-23_10h28.53.571,test2,2022.2.4,59.811744686767156,
0,0,0,0,15,0,15,0,1737.761252688,1737.761252688,1737.761252688,1737.761252688,1737.761252688,1737.761252688,1737.761252688,-1,-1,rojo,0,['N_A'],1739.447076702,1739.447076702,1739.447076702,1739.447076702,1741.482245245,1741.482245245,1741.482245245,1741.482245245,1741.482245245,1741.482245245,1741.482245245,1741.482245245,1743.5185449059998,1743.5185449059998,1743.5185449059998,1743.5185449059998,,,,,,,,,,,,,,,,,,,,,,,,,,,,,,,,,,,,,,,01,005,2022-09-23_10h28.53.571,test2,2022.2.4,59.811744686767156,
0,0,0,0,16,0,16,0,1743.5185449059998,1743.5185449059998,1743.5185449059998,1743.5185449059998,1743.5185449059998,1743.5185449059998,1743.5185449059998,1,-1,rojo,0,['N_B'],1745.1699532689997,1745.1699532689997,1745.1699532689997,1745.1699532689997,1747.2061919229998,1747.2061919229998,1747.2061919229998,1747.2061919229998,1747.2061919229998,1747.2061919229998,1747.2061919229998,1747.2061919229998,1749.241429388,1749.241429388,1749.241429388,1749.241429388,,,,,,,,,,,,,,,,,,,,,,,,,,,,,,,,,,,,,,,01,005,2022-09-23_10h28.53.571,test2,2022.2.4,59.811744686767156,
0,0,0,0,17,0,17,0,1749.241429388,1749.241429388,1749.241429388,1749.241429388,1749.241429388,1749.241429388,1749.241429388,1,-1,azul,0,['N_A'],1750.808945005,1750.808945005,1750.808945005,1750.808945005,1752.8450899379998,1752.8450899379998,1752.8450899379998,1752.8450899379998,1752.8450899379998,1752.8450899379998,1752.8450899379998,1752.8450899379998,1754.880497983,1754.880497983,1754.880497983,1754.880497983,,,,,,,,,,,,,,,,,,,,,,,,,,,,,,,,,,,,,,,01,005,2022-09-23_10h28.53.571,test2,2022.2.4,59.811744686767156,
0,0,0,0,18,0,18,0,1754.880497983,1754.880497983,1754.880497983,1754.880497983,1754.880497983,1754.880497983,1754.880497983,-1,-1,azul,0,['N_B'],1756.482254059,1756.482254059,1756.482254059,1756.482254059,1758.518075792,1758.518075792,1758.518075792,1758.518075792,1758.518075792,1758.518075792,1758.518075792,1758.518075792,1760.5541259039999,1760.5541259039999,1760.5541259039999,1760.5541259039999,,,,,,,,,,,,,,,,,,,,,,,,,,,,,,,,,,,,,,,01,005,2022-09-23_10h28.53.571,test2,2022.2.4,59.811744686767156,
0,0,0,0,19,0,19,0,1760.5541259039999,1760.5541259039999,1760.5541259039999,1760.5541259039999,1760.5541259039999,1760.5541259039999,1760.5541259039999,1,-1,azul,0,['N_A'],1765.7429435850001,1765.7429435850001,1765.7429435850001,1765.7429435850001,1767.778834173,1767.778834173,1767.778834173,1767.778834173,1767.778834173,1767.778834173,1767.778834173,1767.778834173,1769.8132645019998,1769.8132645019998,1769.8132645019998,1769.8132645019998,,,,,,,,,,,,,,,,,,,,,,,,,,,,,,,,,,,,,,,01,005,2022-09-23_10h28.53.571,test2,2022.2.4,59.811744686767156,
0,0,0,0,20,0,20,0,1769.8132645019998,1769.8132645019998,1769.8132645019998,1769.8132645019998,1769.8132645019998,1769.8132645019998,1769.8132645019998,1,-1,rojo,0,['N_B'],1773.9852472740001,1773.9852472740001,1773.9852472740001,1773.9852472740001,1776.02068769,1776.02068769,1776.02068769,1776.02068769,1776.02068769,1776.02068769,1776.02068769,1776.02068769,1778.0562189219997,1778.0562189219997,1778.0562189219997,1778.0562189219997,,,,,,,,,,,,,,,,,,,,,,,,,,,,,,,,,,,,,,,01,005,2022-09-23_10h28.53.571,test2,2022.2.4,59.811744686767156,
0,0,0,0,21,0,21,0,1778.0562189219997,1778.0562189219997,1778.0562189219997,1778.0562189219997,1778.0562189219997,1778.0562189219997,1778.0562189219997,1,-1,azul,0,['N_A'],1779.791714397,1779.791714397,1779.791714397,1779.791714397,1781.8269901709998,1781.8269901709998,1781.8269901709998,1781.8269901709998,1781.8269901709998,1781.8269901709998,1781.8269901709998,1781.8269901709998,1783.8630702799999,1783.8630702799999,1783.8630702799999,1783.8630702799999,,,,,,,,,,,,,,,,,,,,,,,,,,,,,,,,,,,,,,,01,005,2022-09-23_10h28.53.571,test2,2022.2.4,59.811744686767156,
0,0,0,0,22,0,22,0,1783.8630702799999,1783.8630702799999,1783.8630702799999,1783.8630702799999,1783.8630702799999,1783.8630702799999,1783.8630702799999,-1,1,azul,1,['N_A'],1785.2810817299999,1785.2810817299999,1785.2810817299999,1785.2810817299999,1787.299544011,1787.299544011,1787.299544011,1787.299544011,1787.299544011,1787.299544011,1787.299544011,1787.299544011,1789.334996877,1789.334996877,1789.334996877,1789.334996877,,,,,,,,,,,,,,,,,,,,,,,,,,,,,,,,,,,,,,,01,005,2022-09-23_10h28.53.571,test2,2022.2.4,59.811744686767156,
0,0,0,0,23,0,23,0,1789.334996877,1789.334996877,1789.334996877,1789.334996877,1789.334996877,1789.334996877,1789.334996877,-1,1,azul,1,['N_A'],1790.8201802759997,1790.8201802759997,1790.8201802759997,1790.8201802759997,1792.839160024,1792.839160024,1792.839160024,1792.839160024,1792.839160024,1792.839160024,1792.839160024,1792.839160024,1794.875049347,1794.875049347,1794.875049347,1794.875049347,,,,,,,,,,,,,,,,,,,,,,,,,,,,,,,,,,,,,,,01,005,2022-09-23_10h28.53.571,test2,2022.2.4,59.811744686767156,
0,0,0,0,24,0,24,0,1794.875049347,1794.875049347,1794.875049347,1794.875049347,1794.875049347,1794.875049347,1794.875049347,1,1,rojo,1,['N_A'],1796.9939860450002,1796.9939860450002,1796.9939860450002,1796.9939860450002,1799.011808423,1799.011808423,1799.011808423,1799.011808423,1799.011808423,1799.011808423,1799.011808423,1799.011808423,1801.048478598,1801.048478598,1801.048478598,1801.048478598,,,,,,,,,,,,,,,,,,,,,,,,,,,,,,,,,,,,,,,01,005,2022-09-23_10h28.53.571,test2,2022.2.4,59.811744686767156,
0,0,0,0,25,0,25,0,1801.048478598,1801.048478598,1801.048478598,1801.048478598,1801.048478598,1801.048478598,1801.048478598,-1,1,azul,1,['N_A'],1803.2339435830002,1803.2339435830002,1803.2339435830002,1803.2339435830002,1805.269728082,1805.269728082,1805.269728082,1805.269728082,1805.269728082,1805.269728082,1805.269728082,1805.269728082,1807.3050296630001,1807.3050296630001,1807.3050296630001,1807.3050296630001,,,,,,,,,,,,,,,,,,,,,,,,,,,,,,,,,,,,,,,01,005,2022-09-23_10h28.53.571,test2,2022.2.4,59.811744686767156,
0,0,0,0,26,0,26,0,1807.3050296630001,1807.3050296630001,1807.3050296630001,1807.3050296630001,1807.3050296630001,1807.3050296630001,1807.3050296630001,-1,-1,azul,0,['N_B'],1809.3234375660002,1809.3234375660002,1809.3234375660002,1809.3234375660002,1811.359273276,1811.359273276,1811.359273276,1811.359273276,1811.359273276,1811.359273276,1811.359273276,1811.359273276,1813.394817533,1813.394817533,1813.394817533,1813.394817533,,,,,,,,,,,,,,,,,,,,,,,,,,,,,,,,,,,,,,,01,005,2022-09-23_10h28.53.571,test2,2022.2.4,59.811744686767156,
0,0,0,0,27,0,27,0,1813.394817533,1813.394817533,1813.394817533,1813.394817533,1813.394817533,1813.394817533,1813.394817533,1,1,azul,1,['N_B'],1815.047285716,1815.047285716,1815.047285716,1815.047285716,1817.0831866659998,1817.0831866659998,1817.0831866659998,1817.0831866659998,1817.0831866659998,1817.0831866659998,1817.0831866659998,1817.0831866659998,1819.1187397299998,1819.1187397299998,1819.1187397299998,1819.1187397299998,,,,,,,,,,,,,,,,,,,,,,,,,,,,,,,,,,,,,,,01,005,2022-09-23_10h28.53.571,test2,2022.2.4,59.811744686767156,
0,0,0,0,28,0,28,0,1819.1187397299998,1819.1187397299998,1819.1187397299998,1819.1187397299998,1819.1187397299998,1819.1187397299998,1819.1187397299998,1,-1,azul,0,['N_A'],1820.787045451,1820.787045451,1820.787045451,1820.787045451,1822.822942175,1822.822942175,1822.822942175,1822.822942175,1822.822942175,1822.822942175,1822.822942175,1822.822942175,1824.857341314,1824.857341314,1824.857341314,1824.857341314,,,,,,,,,,,,,,,,,,,,,,,,,,,,,,,,,,,,,,,01,005,2022-09-23_10h28.53.571,test2,2022.2.4,59.811744686767156,
0,0,0,0,29,0,29,0,1824.857341314,1824.857341314,1824.857341314,1824.857341314,1824.857341314,1824.857341314,1824.857341314,1,-1,rojo,0,['N_B'],1827.4272817160002,1827.4272817160002,1827.4272817160002,1827.4272817160002,1829.463275982,1829.463275982,1829.463275982,1829.463275982,1829.463275982,1829.463275982,1829.463275982,1829.463275982,1831.4978130819998,1831.4978130819998,1831.4978130819998,1831.4978130819998,,,,,,,,,,,,,,,,,,,,,,,,,,,,,,,,,,,,,,,01,005,2022-09-23_10h28.53.571,test2,2022.2.4,59.811744686767156,
0,0,0,0,30,0,30,0,1831.4978130819998,1831.4978130819998,1831.4978130819998,1831.4978130819998,1831.4978130819998,1831.4978130819998,1831.4978130819998,1,1,azul,1,['N_B'],1832.9162037929998,1832.9162037929998,1832.9162037929998,1832.9162037929998,1834.951822239,1834.951822239,1834.951822239,1834.951822239,1834.951822239,1834.951822239,1834.951822239,1834.951822239,1836.9882825829998,1836.9882825829998,1836.9882825829998,1836.9882825829998,,,,,,,,,,,,,,,,,,,,,,,,,,,,,,,,,,,,,,,01,005,2022-09-23_10h28.53.571,test2,2022.2.4,59.811744686767156,
0,0,0,0,31,0,31,0,1836.9882825829998,1836.9882825829998,1836.9882825829998,1836.9882825829998,1836.9882825829998,1836.9882825829998,1836.9882825829998,1,-1,azul,1,['N_B'],1838.339120536,1838.339120536,1838.339120536,1838.339120536,1840.3742674769999,1840.3742674769999,1840.3742674769999,1840.3742674769999,1840.3742674769999,1840.3742674769999,1840.3742674769999,1840.3742674769999,1842.410123982,1842.410123982,1842.410123982,1842.410123982,,,,,,,,,,,,,,,,,,,,,,,,,,,,,,,,,,,,,,,01,005,2022-09-23_10h28.53.571,test2,2022.2.4,59.811744686767156,
0,0,0,0,32,0,32,0,1842.410123982,1842.410123982,1842.410123982,1842.410123982,1842.410123982,1842.410123982,1842.410123982,1,1,azul,0,['N_A'],1844.9966400689998,1844.9966400689998,1844.9966400689998,1844.9966400689998,1847.0153371509998,1847.0153371509998,1847.0153371509998,1847.0153371509998,1847.0153371509998,1847.0153371509998,1847.0153371509998,1847.0153371509998,1849.050657944,1849.050657944,1849.050657944,1849.050657944,,,,,,,,,,,,,,,,,,,,,,,,,,,,,,,,,,,,,,,01,005,2022-09-23_10h28.53.571,test2,2022.2.4,59.811744686767156,
0,0,0,0,33,0,33,0,1849.050657944,1849.050657944,1849.050657944,1849.050657944,1849.050657944,1849.050657944,1849.050657944,1,1,rojo,0,['N_B'],1850.436216363,1850.436216363,1850.436216363,1850.436216363,1852.4543106580002,1852.4543106580002,1852.4543106580002,1852.4543106580002,1852.4543106580002,1852.4543106580002,1852.4543106580002,1852.4543106580002,1854.490242315,1854.490242315,1854.490242315,1854.490242315,,,,,,,,,,,,,,,,,,,,,,,,,,,,,,,,,,,,,,,01,005,2022-09-23_10h28.53.571,test2,2022.2.4,59.811744686767156,
0,0,0,0,34,0,34,0,1854.490242315,1854.490242315,1854.490242315,1854.490242315,1854.490242315,1854.490242315,1854.490242315,1,1,azul,0,['N_A'],1856.27631433,1856.27631433,1856.27631433,1856.27631433,1858.3116750729998,1858.3116750729998,1858.3116750729998,1858.3116750729998,1858.3116750729998,1858.3116750729998,1858.3116750729998,1858.3116750729998,1860.3469875929998,1860.3469875929998,1860.3469875929998,1860.3469875929998,,,,,,,,,,,,,,,,,,,,,,,,,,,,,,,,,,,,,,,01,005,2022-09-23_10h28.53.571,test2,2022.2.4,59.811744686767156,
0,0,0,0,35,0,35,0,1860.3469875929998,1860.3469875929998,1860.3469875929998,1860.3469875929998,1860.3469875929998,1860.3469875929998,1860.3469875929998,-1,-1,azul,0,['N_B'],1862.3998576420001,1862.3998576420001,1862.3998576420001,1862.3998576420001,1864.435744016,1864.435744016,1864.435744016,1864.435744016,1864.435744016,1864.435744016,1864.435744016,1864.435744016,1866.4705888639999,1866.4705888639999,1866.4705888639999,1866.4705888639999,,,,,,,,,,,,,,,,,,,,,,,,,,,,,,,,,,,,,,,01,005,2022-09-23_10h28.53.571,test2,2022.2.4,59.811744686767156,
0,0,0,0,36,0,36,0,1866.4705888639999,1866.4705888639999,1866.4705888639999,1866.4705888639999,1866.4705888639999,1866.4705888639999,1866.4705888639999,1,-1,azul,0,['N_A'],1868.7400612029999,1868.7400612029999,1868.7400612029999,1868.7400612029999,1870.7751239789998,1870.7751239789998,1870.7751239789998,1870.7751239789998,1870.7751239789998,1870.7751239789998,1870.7751239789998,1870.7751239789998,1872.8106974589998,1872.8106974589998,1872.8106974589998,1872.8106974589998,,,,,,,,,,,,,,,,,,,,,,,,,,,,,,,,,,,,,,,01,005,2022-09-23_10h28.53.571,test2,2022.2.4,59.811744686767156,
0,0,0,0,37,0,37,0,1872.8106974589998,1872.8106974589998,1872.8106974589998,1872.8106974589998,1872.8106974589998,1872.8106974589998,1872.8106974589998,-1,-1,azul,0,['N_B'],1874.679150709,1874.679150709,1874.679150709,1874.679150709,1876.715378908,1876.715378908,1876.715378908,1876.715378908,1876.715378908,1876.715378908,1876.715378908,1876.715378908,1878.75105185,1878.75105185,1878.75105185,1878.75105185,,,,,,,,,,,,,,,,,,,,,,,,,,,,,,,,,,,,,,,01,005,2022-09-23_10h28.53.571,test2,2022.2.4,59.811744686767156,
0,0,0,0,38,0,38,0,1878.75105185,1878.75105185,1878.75105185,1878.75105185,1878.75105185,1878.75105185,1878.75105185,1,1,azul,1,['N_B'],1881.136669367,1881.136669367,1881.136669367,1881.136669367,1883.172042943,1883.172042943,1883.172042943,1883.172042943,1883.172042943,1883.172042943,1883.172042943,1883.172042943,1885.2072904200002,1885.2072904200002,1885.2072904200002,1885.2072904200002,,,,,,,,,,,,,,,,,,,,,,,,,,,,,,,,,,,,,,,01,005,2022-09-23_10h28.53.571,test2,2022.2.4,59.811744686767156,
0,0,0,0,39,0,39,0,1885.2072904200002,1885.2072904200002,1885.2072904200002,1885.2072904200002,1885.2072904200002,1885.2072904200002,1885.2072904200002,-1,-1,rojo,0,['N_A'],1887.326478242,1887.326478242,1887.326478242,1887.326478242,1889.3621846929998,1889.3621846929998,1889.3621846929998,1889.3621846929998,1889.3621846929998,1889.3621846929998,1889.3621846929998,1889.3621846929998,1891.397898336,1891.397898336,1891.397898336,1891.397898336,,,,,,,,,,,,,,,,,,,,,,,,,,,,,,,,,,,,,,,01,005,2022-09-23_10h28.53.571,test2,2022.2.4,59.811744686767156,
0,0,0,0,40,0,40,0,1891.397898336,1891.397898336,1891.397898336,1891.397898336,1891.397898336,1891.397898336,1891.397898336,1,-1,rojo,0,['N_B'],1897.738032848,1897.738032848,1897.738032848,1897.738032848,1899.7746650699999,1899.7746650699999,1899.7746650699999,1899.7746650699999,1899.7746650699999,1899.7746650699999,1899.7746650699999,1899.7746650699999,1901.809001205,1901.809001205,1901.809001205,1901.809001205,,,,,,,,,,,,,,,,,,,,,,,,,,,,,,,,,,,,,,,01,005,2022-09-23_10h28.53.571,test2,2022.2.4,59.811744686767156,
0,0,0,0,41,0,41,0,1901.809001205,1901.809001205,1901.809001205,1901.809001205,1901.809001205,1901.809001205,1901.809001205,1,-1,azul,0,['N_A'],1903.7947950659998,1903.7947950659998,1903.7947950659998,1903.7947950659998,1905.830921257,1905.830921257,1905.830921257,1905.830921257,1905.830921257,1905.830921257,1905.830921257,1905.830921257,1907.866006042,1907.866006042,1907.866006042,1907.866006042,,,,,,,,,,,,,,,,,,,,,,,,,,,,,,,,,,,,,,,01,005,2022-09-23_10h28.53.571,test2,2022.2.4,59.811744686767156,
0,0,0,0,42,0,42,0,1907.866006042,1907.866006042,1907.866006042,1907.866006042,1907.866006042,1907.866006042,1907.866006042,1,1,rojo,1,['N_A'],1909.667742327,1909.667742327,1909.667742327,1909.667742327,1911.686913409,1911.686913409,1911.686913409,1911.686913409,1911.686913409,1911.686913409,1911.686913409,1911.686913409,1913.722488481,1913.722488481,1913.722488481,1913.722488481,,,,,,,,,,,,,,,,,,,,,,,,,,,,,,,,,,,,,,,01,005,2022-09-23_10h28.53.571,test2,2022.2.4,59.811744686767156,
0,0,0,0,43,0,43,0,1913.722488481,1913.722488481,1913.722488481,1913.722488481,1913.722488481,1913.722488481,1913.722488481,-1,1,azul,1,['N_A'],1915.3911177749999,1915.3911177749999,1915.3911177749999,1915.3911177749999,1917.42699767,1917.42699767,1917.42699767,1917.42699767,1917.42699767,1917.42699767,1917.42699767,1917.42699767,1919.4623008269998,1919.4623008269998,1919.4623008269998,1919.4623008269998,,,,,,,,,,,,,,,,,,,,,,,,,,,,,,,,,,,,,,,01,005,2022-09-23_10h28.53.571,test2,2022.2.4,59.811744686767156,
0,0,0,0,44,0,44,0,1919.4623008269998,1919.4623008269998,1919.4623008269998,1919.4623008269998,1919.4623008269998,1919.4623008269998,1919.4623008269998,1,-1,rojo,1,['N_A'],1925.9024925249998,1925.9024925249998,1925.9024925249998,1925.9024925249998,1927.9384780909998,1927.9384780909998,1927.9384780909998,1927.9384780909998,1927.9384780909998,1927.9384780909998,1927.9384780909998,1927.9384780909998,1929.9741002459998,1929.9741002459998,1929.9741002459998,1929.9741002459998,,,,,,,,,,,,,,,,,,,,,,,,,,,,,,,,,,,,,,,01,005,2022-09-23_10h28.53.571,test2,2022.2.4,59.811744686767156,
0,0,0,0,45,0,45,0,1929.9741002459998,1929.9741002459998,1929.9741002459998,1929.9741002459998,1929.9741002459998,1929.9741002459998,1929.9741002459998,-1,-1,azul,0,['N_B'],1934.161637123,1934.161637123,1934.161637123,1934.161637123,1936.1973247019998,1936.1973247019998,1936.1973247019998,1936.1973247019998,1936.1973247019998,1936.1973247019998,1936.1973247019998,1936.1973247019998,1938.233365973,1938.233365973,1938.233365973,1938.233365973,,,,,,,,,,,,,,,,,,,,,,,,,,,,,,,,,,,,,,,01,005,2022-09-23_10h28.53.571,test2,2022.2.4,59.811744686767156,
0,0,0,0,46,0,46,0,1938.233365973,1938.233365973,1938.233365973,1938.233365973,1938.233365973,1938.233365973,1938.233365973,-1,-1,rojo,0,['N_A'],1940.1351719840002,1940.1351719840002,1940.1351719840002,1940.1351719840002,1942.170370086,1942.170370086,1942.170370086,1942.170370086,1942.170370086,1942.170370086,1942.170370086,1942.170370086,1944.2066865909999,1944.2066865909999,1944.2066865909999,1944.2066865909999,,,,,,,,,,,,,,,,,,,,,,,,,,,,,,,,,,,,,,,01,005,2022-09-23_10h28.53.571,test2,2022.2.4,59.811744686767156,
0,0,0,0,47,0,47,0,1944.2066865909999,1944.2066865909999,1944.2066865909999,1944.2066865909999,1944.2066865909999,1944.2066865909999,1944.2066865909999,1,-1,rojo,0,['N_B'],1945.7912573769997,1945.7912573769997,1945.7912573769997,1945.7912573769997,1947.826876678,1947.826876678,1947.826876678,1947.826876678,1947.826876678,1947.826876678,1947.826876678,1947.826876678,1949.8620599519998,1949.8620599519998,1949.8620599519998,1949.8620599519998,,,,,,,,,,,,,,,,,,,,,,,,,,,,,,,,,,,,,,,01,005,2022-09-23_10h28.53.571,test2,2022.2.4,59.811744686767156,
0,0,0,0,48,0,48,0,1949.8620599519998,1949.8620599519998,1949.8620599519998,1949.8620599519998,1949.8620599519998,1949.8620599519998,1949.8620599519998,-1,-1,rojo,0,['N_A'],1952.4154503910001,1952.4154503910001,1952.4154503910001,1952.4154503910001,1954.4515708840001,1954.4515708840001,1954.4515708840001,1954.4515708840001,1954.4515708840001,1954.4515708840001,1954.4515708840001,1954.4515708840001,1956.485911419,1956.485911419,1956.485911419,1956.485911419,,,,,,,,,,,,,,,,,,,,,,,,,,,,,,,,,,,,,,,01,005,2022-09-23_10h28.53.571,test2,2022.2.4,59.811744686767156,
0,0,0,0,49,0,49,0,1956.485911419,1956.485911419,1956.485911419,1956.485911419,1956.485911419,1956.485911419,1956.485911419,1,1,rojo,1,['N_A'],1958.2046600749998,1958.2046600749998,1958.2046600749998,1958.2046600749998,1960.222395507,1960.222395507,1960.222395507,1960.222395507,1960.222395507,1960.222395507,1960.222395507,1960.222395507,1962.2591233299997,1962.2591233299997,1962.2591233299997,1962.2591233299997,,,,,,,,,,,,,,,,,,,,,,,,,,,,,,,,,,,,,,,01,005,2022-09-23_10h28.53.571,test2,2022.2.4,59.811744686767156,
0,0,0,0,50,0,50,0,1962.2591233299997,1962.2591233299997,1962.2591233299997,1962.2591233299997,1962.2591233299997,1962.2591233299997,1962.2591233299997,1,1,rojo,1,['N_A'],1963.8774976030002,1963.8774976030002,1963.8774976030002,1963.8774976030002,1965.9133611179998,1965.9133611179998,1965.9133611179998,1965.9133611179998,1965.9133611179998,1965.9133611179998,1965.9133611179998,1965.9133611179998,1967.948514674,1967.948514674,1967.948514674,1967.948514674,,,,,,,,,,,,,,,,,,,,,,,,,,,,,,,,,,,,,,,01,005,2022-09-23_10h28.53.571,test2,2022.2.4,59.811744686767156,
0,0,0,0,51,0,51,0,1967.948514674,1967.948514674,1967.948514674,1967.948514674,1967.948514674,1967.948514674,1967.948514674,-1,-1,azul,0,['N_B'],1969.367790478,1969.367790478,1969.367790478,1969.367790478,1971.4027597030001,1971.4027597030001,1971.4027597030001,1971.4027597030001,1971.4027597030001,1971.4027597030001,1971.4027597030001,1971.4027597030001,1973.438654981,1973.438654981,1973.438654981,1973.438654981,,,,,,,,,,,,,,,,,,,,,,,,,,,,,,,,,,,,,,,01,005,2022-09-23_10h28.53.571,test2,2022.2.4,59.811744686767156,
0,0,0,0,52,0,52,0,1973.438654981,1973.438654981,1973.438654981,1973.438654981,1973.438654981,1973.438654981,1973.438654981,-1,-1,rojo,0,['N_A'],1974.9230120690002,1974.9230120690002,1974.9230120690002,1974.9230120690002,1976.95876027,1976.95876027,1976.95876027,1976.95876027,1976.95876027,1976.95876027,1976.95876027,1976.95876027,1978.9945536899997,1978.9945536899997,1978.9945536899997,1978.9945536899997,,,,,,,,,,,,,,,,,,,,,,,,,,,,,,,,,,,,,,,01,005,2022-09-23_10h28.53.571,test2,2022.2.4,59.811744686767156,
0,0,0,0,53,0,53,0,1978.9945536899997,1978.9945536899997,1978.9945536899997,1978.9945536899997,1978.9945536899997,1978.9945536899997,1978.9945536899997,-1,1,azul,1,['N_A'],1981.8140512490002,1981.8140512490002,1981.8140512490002,1981.8140512490002,1983.849631317,1983.849631317,1983.849631317,1983.849631317,1983.849631317,1983.849631317,1983.849631317,1983.849631317,1985.88537178,1985.88537178,1985.88537178,1985.88537178,,,,,,,,,,,,,,,,,,,,,,,,,,,,,,,,,,,,,,,01,005,2022-09-23_10h28.53.571,test2,2022.2.4,59.811744686767156,
0,0,0,0,54,0,54,0,1985.88537178,1985.88537178,1985.88537178,1985.88537178,1985.88537178,1985.88537178,1985.88537178,1,-1,rojo,1,['N_A'],1989.0053201449998,1989.0053201449998,1989.0053201449998,1989.0053201449998,1991.041852699,1991.041852699,1991.041852699,1991.041852699,1991.041852699,1991.041852699,1991.041852699,1991.041852699,1993.0772142939998,1993.0772142939998,1993.0772142939998,1993.0772142939998,,,,,,,,,,,,,,,,,,,,,,,,,,,,,,,,,,,,,,,01,005,2022-09-23_10h28.53.571,test2,2022.2.4,59.811744686767156,
0,0,0,0,55,0,55,0,1993.0772142939998,1993.0772142939998,1993.0772142939998,1993.0772142939998,1993.0772142939998,1993.0772142939998,1993.0772142939998,1,-1,rojo,0,['N_B'],1995.095923399,1995.095923399,1995.095923399,1995.095923399,1997.1311846649999,1997.1311846649999,1997.1311846649999,1997.1311846649999,1997.1311846649999,1997.1311846649999,1997.1311846649999,1997.1311846649999,1999.166643417,1999.166643417,1999.166643417,1999.166643417,,,,,,,,,,,,,,,,,,,,,,,,,,,,,,,,,,,,,,,01,005,2022-09-23_10h28.53.571,test2,2022.2.4,59.811744686767156,
0,0,0,0,56,0,56,0,1999.166643417,1999.166643417,1999.166643417,1999.166643417,1999.166643417,1999.166643417,1999.166643417,1,-1,azul,1,['N_B'],2000.617771554,2000.617771554,2000.617771554,2000.617771554,2002.654285886,2002.654285886,2002.654285886,2002.654285886,2002.654285886,2002.654285886,2002.654285886,2002.654285886,2004.6897225760001,2004.6897225760001,2004.6897225760001,2004.6897225760001,,,,,,,,,,,,,,,,,,,,,,,,,,,,,,,,,,,,,,,01,005,2022-09-23_10h28.53.571,test2,2022.2.4,59.811744686767156,
0,0,0,0,57,0,57,0,2004.6897225760001,2004.6897225760001,2004.6897225760001,2004.6897225760001,2004.6897225760001,2004.6897225760001,2004.6897225760001,1,1,azul,1,['N_B'],2006.157662285,2006.157662285,2006.157662285,2006.157662285,2008.19346784,2008.19346784,2008.19346784,2008.19346784,2008.19346784,2008.19346784,2008.19346784,2008.19346784,2010.228602253,2010.228602253,2010.228602253,2010.228602253,,,,,,,,,,,,,,,,,,,,,,,,,,,,,,,,,,,,,,,01,005,2022-09-23_10h28.53.571,test2,2022.2.4,59.811744686767156,
0,0,0,0,58,0,58,0,2010.228602253,2010.228602253,2010.228602253,2010.228602253,2010.228602253,2010.228602253,2010.228602253,1,-1,azul,0,['N_A'],2012.147454098,2012.147454098,2012.147454098,2012.147454098,2014.1833102469998,2014.1833102469998,2014.1833102469998,2014.1833102469998,2014.1833102469998,2014.1833102469998,2014.1833102469998,2014.1833102469998,2016.218357474,2016.218357474,2016.218357474,2016.218357474,,,,,,,,,,,,,,,,,,,,,,,,,,,,,,,,,,,,,,,01,005,2022-09-23_10h28.53.571,test2,2022.2.4,59.811744686767156,
0,0,0,0,59,0,59,0,2016.218357474,2016.218357474,2016.218357474,2016.218357474,2016.218357474,2016.218357474,2016.218357474,-1,-1,azul,1,['N_A'],2017.68771463,2017.68771463,2017.68771463,2017.68771463,2019.7234246340001,2019.7234246340001,2019.7234246340001,2019.7234246340001,2019.7234246340001,2019.7234246340001,2019.7234246340001,2019.7234246340001,2021.7582996150002,2021.7582996150002,2021.7582996150002,2021.7582996150002,,,,,,,,,,,,,,,,,,,,,,,,,,,,,,,,,,,,,,,01,005,2022-09-23_10h28.53.571,test2,2022.2.4,59.811744686767156,
0,0,0,0,60,0,60,0,2021.7582996150002,2021.7582996150002,2021.7582996150002,2021.7582996150002,2021.7582996150002,2021.7582996150002,2021.7582996150002,1,-1,rojo,0,['N_B'],2023.526467769,2023.526467769,2023.526467769,2023.526467769,2025.5628314379999,2025.5628314379999,2025.5628314379999,2025.5628314379999,2025.5628314379999,2025.5628314379999,2025.5628314379999,2025.5628314379999,2027.5979667119998,2027.5979667119998,2027.5979667119998,2027.5979667119998,,,,,,,,,,,,,,,,,,,,,,,,,,,,,,,,,,,,,,,01,005,2022-09-23_10h28.53.571,test2,2022.2.4,59.811744686767156,
0,0,0,0,61,0,61,0,2027.5979667119998,2027.5979667119998,2027.5979667119998,2027.5979667119998,2027.5979667119998,2027.5979667119998,2027.5979667119998,1,1,azul,1,['N_B'],2029.0499801409999,2029.0499801409999,2029.0499801409999,2029.0499801409999,2031.067584954,2031.067584954,2031.067584954,2031.067584954,2031.067584954,2031.067584954,2031.067584954,2031.067584954,2033.1039514329998,2033.1039514329998,2033.1039514329998,2033.1039514329998,,,,,,,,,,,,,,,,,,,,,,,,,,,,,,,,,,,,,,,01,005,2022-09-23_10h28.53.571,test2,2022.2.4,59.811744686767156,
0,0,0,0,62,0,62,0,2033.1039514329998,2033.1039514329998,2033.1039514329998,2033.1039514329998,2033.1039514329998,2033.1039514329998,2033.1039514329998,1,1,azul,1,['N_B'],2034.556176804,2034.556176804,2034.556176804,2034.556176804,2036.591753898,2036.591753898,2036.591753898,2036.591753898,2036.591753898,2036.591753898,2036.591753898,2036.591753898,2038.626754259,2038.626754259,2038.626754259,2038.626754259,,,,,,,,,,,,,,,,,,,,,,,,,,,,,,,,,,,,,,,01,005,2022-09-23_10h28.53.571,test2,2022.2.4,59.811744686767156,
0,0,0,0,63,0,63,0,2038.626754259,2038.626754259,2038.626754259,2038.626754259,2038.626754259,2038.626754259,2038.626754259,-1,-1,rojo,0,['N_A'],2040.229192396,2040.229192396,2040.229192396,2040.229192396,2042.2635334620002,2042.2635334620002,2042.2635334620002,2042.2635334620002,2042.2635334620002,2042.2635334620002,2042.2635334620002,2042.2635334620002,2044.300218791,2044.300218791,2044.300218791,2044.300218791,,,,,,,,,,,,,,,,,,,,,,,,,,,,,,,,,,,,,,,01,005,2022-09-23_10h28.53.571,test2,2022.2.4,59.811744686767156,
0,0,0,0,64,0,64,0,2044.300218791,2044.300218791,2044.300218791,2044.300218791,2044.300218791,2044.300218791,2044.300218791,1,-1,rojo,1,['N_A'],2045.7515016280001,2045.7515016280001,2045.7515016280001,2045.7515016280001,2047.787384778,2047.787384778,2047.787384778,2047.787384778,2047.787384778,2047.787384778,2047.787384778,2047.787384778,2049.822669648,2049.822669648,2049.822669648,2049.822669648,,,,,,,,,,,,,,,,,,,,,,,,,,,,,,,,,,,,,,,01,005,2022-09-23_10h28.53.571,test2,2022.2.4,59.811744686767156,
0,0,0,0,65,0,65,0,2049.822669648,2049.822669648,2049.822669648,2049.822669648,2049.822669648,2049.822669648,2049.822669648,1,-1,rojo,0,['N_B'],2052.008614504,2052.008614504,2052.008614504,2052.008614504,2054.044605131,2054.044605131,2054.044605131,2054.044605131,2054.044605131,2054.044605131,2054.044605131,2054.044605131,2056.0790712380003,2056.0790712380003,2056.0790712380003,2056.0790712380003,,,,,,,,,,,,,,,,,,,,,,,,,,,,,,,,,,,,,,,01,005,2022-09-23_10h28.53.571,test2,2022.2.4,59.811744686767156,
0,0,0,0,66,0,66,0,2056.0790712380003,2056.0790712380003,2056.0790712380003,2056.0790712380003,2056.0790712380003,2056.0790712380003,2056.0790712380003,1,-1,azul,1,['N_B'],2057.747634267,2057.747634267,2057.747634267,2057.747634267,2059.783748536,2059.783748536,2059.783748536,2059.783748536,2059.783748536,2059.783748536,2059.783748536,2059.783748536,2061.818752637,2061.818752637,2061.818752637,2061.818752637,,,,,,,,,,,,,,,,,,,,,,,,,,,,,,,,,,,,,,,01,005,2022-09-23_10h28.53.571,test2,2022.2.4,59.811744686767156,
0,0,0,0,67,0,67,0,2061.818752637,2061.818752637,2061.818752637,2061.818752637,2061.818752637,2061.818752637,2061.818752637,-1,1,rojo,1,['N_B'],2063.237464394,2063.237464394,2063.237464394,2063.237464394,2065.273220935,2065.273220935,2065.273220935,2065.273220935,2065.273220935,2065.273220935,2065.273220935,2065.273220935,2067.3082573310003,2067.3082573310003,2067.3082573310003,2067.3082573310003,,,,,,,,,,,,,,,,,,,,,,,,,,,,,,,,,,,,,,,01,005,2022-09-23_10h28.53.571,test2,2022.2.4,59.811744686767156,
0,0,0,0,68,0,68,0,2067.3082573310003,2067.3082573310003,2067.3082573310003,2067.3082573310003,2067.3082573310003,2067.3082573310003,2067.3082573310003,1,-1,azul,0,['N_A'],2069.027437661,2069.027437661,2069.027437661,2069.027437661,2071.062924886,2071.062924886,2071.062924886,2071.062924886,2071.062924886,2071.062924886,2071.062924886,2071.062924886,2073.097881318,2073.097881318,2073.097881318,2073.097881318,,,,,,,,,,,,,,,,,,,,,,,,,,,,,,,,,,,,,,,01,005,2022-09-23_10h28.53.571,test2,2022.2.4,59.811744686767156,
0,0,0,0,69,0,69,0,2073.097881318,2073.097881318,2073.097881318,2073.097881318,2073.097881318,2073.097881318,2073.097881318,1,-1,rojo,1,['N_A'],2074.816583403,2074.816583403,2074.816583403,2074.816583403,2076.8525867330004,2076.8525867330004,2076.8525867330004,2076.8525867330004,2076.8525867330004,2076.8525867330004,2076.8525867330004,2076.8525867330004,2078.8884615230004,2078.8884615230004,2078.8884615230004,2078.8884615230004,,,,,,,,,,,,,,,,,,,,,,,,,,,,,,,,,,,,,,,01,005,2022-09-23_10h28.53.571,test2,2022.2.4,59.811744686767156,
0,0,0,0,70,0,70,0,2078.8884615230004,2078.8884615230004,2078.8884615230004,2078.8884615230004,2078.8884615230004,2078.8884615230004,2078.8884615230004,1,-1,rojo,0,['N_B'],2080.7402568390003,2080.7402568390003,2080.7402568390003,2080.7402568390003,2082.776387541,2082.776387541,2082.776387541,2082.776387541,2082.776387541,2082.776387541,2082.776387541,2082.776387541,2084.8110848580004,2084.8110848580004,2084.8110848580004,2084.8110848580004,,,,,,,,,,,,,,,,,,,,,,,,,,,,,,,,,,,,,,,01,005,2022-09-23_10h28.53.571,test2,2022.2.4,59.811744686767156,
0,0,0,0,71,0,71,0,2084.8110848580004,2084.8110848580004,2084.8110848580004,2084.8110848580004,2084.8110848580004,2084.8110848580004,2084.8110848580004,1,-1,azul,1,['N_B'],2088.432322358,2088.432322358,2088.432322358,2088.432322358,2090.4674646340004,2090.4674646340004,2090.4674646340004,2090.4674646340004,2090.4674646340004,2090.4674646340004,2090.4674646340004,2090.4674646340004,2092.502547805,2092.502547805,2092.502547805,2092.502547805,,,,,,,,,,,,,,,,,,,,,,,,,,,,,,,,,,,,,,,01,005,2022-09-23_10h28.53.571,test2,2022.2.4,59.811744686767156,
0,0,0,0,72,0,72,0,2092.502547805,2092.502547805,2092.502547805,2092.502547805,2092.502547805,2092.502547805,2092.502547805,-1,-1,rojo,0,['N_A'],2095.7233154590003,2095.7233154590003,2095.7233154590003,2095.7233154590003,2097.759056534,2097.759056534,2097.759056534,2097.759056534,2097.759056534,2097.759056534,2097.759056534,2097.759056534,2099.793940383,2099.793940383,2099.793940383,2099.793940383,,,,,,,,,,,,,,,,,,,,,,,,,,,,,,,,,,,,,,,01,005,2022-09-23_10h28.53.571,test2,2022.2.4,59.811744686767156,
0,0,0,0,73,0,73,0,2099.793940383,2099.793940383,2099.793940383,2099.793940383,2099.793940383,2099.793940383,2099.793940383,1,-1,rojo,1,['N_A'],2101.680344415,2101.680344415,2101.680344415,2101.680344415,2103.7153541380003,2103.7153541380003,2103.7153541380003,2103.7153541380003,2103.7153541380003,2103.7153541380003,2103.7153541380003,2103.7153541380003,2105.750745971,2105.750745971,2105.750745971,2105.750745971,,,,,,,,,,,,,,,,,,,,,,,,,,,,,,,,,,,,,,,01,005,2022-09-23_10h28.53.571,test2,2022.2.4,59.811744686767156,
0,0,0,0,74,0,74,0,2105.750745971,2105.750745971,2105.750745971,2105.750745971,2105.750745971,2105.750745971,2105.750745971,1,-1,rojo,0,['N_B'],2107.6357121200003,2107.6357121200003,2107.6357121200003,2107.6357121200003,2109.672500398,2109.672500398,2109.672500398,2109.672500398,2109.672500398,2109.672500398,2109.672500398,2109.672500398,2111.707629765,2111.707629765,2111.707629765,2111.707629765,,,,,,,,,,,,,,,,,,,,,,,,,,,,,,,,,,,,,,,01,005,2022-09-23_10h28.53.571,test2,2022.2.4,59.811744686767156,
0,0,0,0,75,0,75,0,2111.707629765,2111.707629765,2111.707629765,2111.707629765,2111.707629765,2111.707629765,2111.707629765,1,1,azul,1,['N_B'],2114.2605171190003,2114.2605171190003,2114.2605171190003,2114.2605171190003,2116.296092778,2116.296092778,2116.296092778,2116.296092778,2116.296092778,2116.296092778,2116.296092778,2116.296092778,2118.3313354740003,2118.3313354740003,2118.3313354740003,2118.3313354740003,,,,,,,,,,,,,,,,,,,,,,,,,,,,,,,,,,,,,,,01,005,2022-09-23_10h28.53.571,test2,2022.2.4,59.811744686767156,
0,0,0,0,76,0,76,0,2118.3313354740003,2118.3313354740003,2118.3313354740003,2118.3313354740003,2118.3313354740003,2118.3313354740003,2118.3313354740003,1,-1,azul,0,['N_A'],2124.0383668430004,2124.0383668430004,2124.0383668430004,2124.0383668430004,2126.073656865,2126.073656865,2126.073656865,2126.073656865,2126.073656865,2126.073656865,2126.073656865,2126.073656865,2128.109314411,2128.109314411,2128.109314411,2128.109314411,,,,,,,,,,,,,,,,,,,,,,,,,,,,,,,,,,,,,,,01,005,2022-09-23_10h28.53.571,test2,2022.2.4,59.811744686767156,
0,0,0,0,77,0,77,0,2128.109314411,2128.109314411,2128.109314411,2128.109314411,2128.109314411,2128.109314411,2128.109314411,1,1,rojo,1,['N_A'],2129.561003994,2129.561003994,2129.561003994,2129.561003994,2131.596803789,2131.596803789,2131.596803789,2131.596803789,2131.596803789,2131.596803789,2131.596803789,2131.596803789,2133.6315366500003,2133.6315366500003,2133.6315366500003,2133.6315366500003,,,,,,,,,,,,,,,,,,,,,,,,,,,,,,,,,,,,,,,01,005,2022-09-23_10h28.53.571,test2,2022.2.4,59.811744686767156,
0,0,0,0,78,0,78,0,2133.6315366500003,2133.6315366500003,2133.6315366500003,2133.6315366500003,2133.6315366500003,2133.6315366500003,2133.6315366500003,1,-1,rojo,0,['N_B'],2135.383563545,2135.383563545,2135.383563545,2135.383563545,2137.4187297070002,2137.4187297070002,2137.4187297070002,2137.4187297070002,2137.4187297070002,2137.4187297070002,2137.4187297070002,2137.4187297070002,2139.454703622,2139.454703622,2139.454703622,2139.454703622,,,,,,,,,,,,,,,,,,,,,,,,,,,,,,,,,,,,,,,01,005,2022-09-23_10h28.53.571,test2,2022.2.4,59.811744686767156,
0,0,0,0,79,0,79,0,2139.454703622,2139.454703622,2139.454703622,2139.454703622,2139.454703622,2139.454703622,2139.454703622,1,-1,azul,1,['N_B'],2140.989938093,2140.989938093,2140.989938093,2140.989938093,2143.0262171480003,2143.0262171480003,2143.0262171480003,2143.0262171480003,2143.0262171480003,2143.0262171480003,2143.0262171480003,2143.0262171480003,2145.0615432920004,2145.0615432920004,2145.0615432920004,2145.0615432920004,,,,,,,,,,,,,,,,,,,,,,,,,,,,,,,,,,,,,,,01,005,2022-09-23_10h28.53.571,test2,2022.2.4,59.811744686767156,
0,0,0,0,80,0,80,0,2145.0615432920004,2145.0615432920004,2145.0615432920004,2145.0615432920004,2145.0615432920004,2145.0615432920004,2145.0615432920004,-1,-1,rojo,0,['N_A'],2148.248047161,2148.248047161,2148.248047161,2148.248047161,2150.284069277,2150.284069277,2150.284069277,2150.284069277,2150.284069277,2150.284069277,2150.284069277,2150.284069277,2152.318281611,2152.318281611,2152.318281611,2152.318281611,,,,,,,,,,,,,,,,,,,,,,,,,,,,,,,,,,,,,,,01,005,2022-09-23_10h28.53.571,test2,2022.2.4,59.811744686767156,
0,0,0,0,81,0,81,0,2152.318281611,2152.318281611,2152.318281611,2152.318281611,2152.318281611,2152.318281611,2152.318281611,-1,-1,azul,1,['N_A'],2155.239268525,2155.239268525,2155.239268525,2155.239268525,2157.274873878,2157.274873878,2157.274873878,2157.274873878,2157.274873878,2157.274873878,2157.274873878,2157.274873878,2159.3099595810004,2159.3099595810004,2159.3099595810004,2159.3099595810004,,,,,,,,,,,,,,,,,,,,,,,,,,,,,,,,,,,,,,,01,005,2022-09-23_10h28.53.571,test2,2022.2.4,59.811744686767156,
0,0,0,0,82,0,82,0,2159.3099595810004,2159.3099595810004,2159.3099595810004,2159.3099595810004,2159.3099595810004,2159.3099595810004,2159.3099595810004,1,1,rojo,1,['N_A'],2160.9453546540003,2160.9453546540003,2160.9453546540003,2160.9453546540003,2162.981395528,2162.981395528,2162.981395528,2162.981395528,2162.981395528,2162.981395528,2162.981395528,2162.981395528,2165.0160844710003,2165.0160844710003,2165.0160844710003,2165.0160844710003,,,,,,,,,,,,,,,,,,,,,,,,,,,,,,,,,,,,,,,01,005,2022-09-23_10h28.53.571,test2,2022.2.4,59.811744686767156,
0,0,0,0,83,0,83,0,2165.0160844710003,2165.0160844710003,2165.0160844710003,2165.0160844710003,2165.0160844710003,2165.0160844710003,2165.0160844710003,1,-1,rojo,0,['N_B'],2166.9353122260004,2166.9353122260004,2166.9353122260004,2166.9353122260004,2168.9716274400002,2168.9716274400002,2168.9716274400002,2168.9716274400002,2168.9716274400002,2168.9716274400002,2168.9716274400002,2168.9716274400002,2171.0067229680003,2171.0067229680003,2171.0067229680003,2171.0067229680003,,,,,,,,,,,,,,,,,,,,,,,,,,,,,,,,,,,,,,,01,005,2022-09-23_10h28.53.571,test2,2022.2.4,59.811744686767156,
0,0,0,0,84,0,84,0,2171.0067229680003,2171.0067229680003,2171.0067229680003,2171.0067229680003,2171.0067229680003,2171.0067229680003,2171.0067229680003,1,-1,azul,1,['N_B'],2172.9418661540003,2172.9418661540003,2172.9418661540003,2172.9418661540003,2174.978120021,2174.978120021,2174.978120021,2174.978120021,2174.978120021,2174.978120021,2174.978120021,2174.978120021,2177.0125491470003,2177.0125491470003,2177.0125491470003,2177.0125491470003,,,,,,,,,,,,,,,,,,,,,,,,,,,,,,,,,,,,,,,01,005,2022-09-23_10h28.53.571,test2,2022.2.4,59.811744686767156,
0,0,0,0,85,0,85,0,2177.0125491470003,2177.0125491470003,2177.0125491470003,2177.0125491470003,2177.0125491470003,2177.0125491470003,2177.0125491470003,-1,-1,rojo,0,['N_A'],2179.833128476,2179.833128476,2179.833128476,2179.833128476,2181.8688210150003,2181.8688210150003,2181.8688210150003,2181.8688210150003,2181.8688210150003,2181.8688210150003,2181.8688210150003,2181.8688210150003,2183.9038334660004,2183.9038334660004,2183.9038334660004,2183.9038334660004,,,,,,,,,,,,,,,,,,,,,,,,,,,,,,,,,,,,,,,01,005,2022-09-23_10h28.53.571,test2,2022.2.4,59.811744686767156,
0,0,0,0,86,0,86,0,2183.9038334660004,2183.9038334660004,2183.9038334660004,2183.9038334660004,2183.9038334660004,2183.9038334660004,2183.9038334660004,-1,1,azul,1,['N_A'],2185.5061284430003,2185.5061284430003,2185.5061284430003,2185.5061284430003,2187.5249937070002,2187.5249937070002,2187.5249937070002,2187.5249937070002,2187.5249937070002,2187.5249937070002,2187.5249937070002,2187.5249937070002,2189.560655454,2189.560655454,2189.560655454,2189.560655454,,,,,,,,,,,,,,,,,,,,,,,,,,,,,,,,,,,,,,,01,005,2022-09-23_10h28.53.571,test2,2022.2.4,59.811744686767156,
0,0,0,0,87,0,87,0,2189.560655454,2189.560655454,2189.560655454,2189.560655454,2189.560655454,2189.560655454,2189.560655454,-1,1,azul,1,['N_A'],2191.145756764,2191.145756764,2191.145756764,2191.145756764,2193.1810470590003,2193.1810470590003,2193.1810470590003,2193.1810470590003,2193.1810470590003,2193.1810470590003,2193.1810470590003,2193.1810470590003,2195.216675611,2195.216675611,2195.216675611,2195.216675611,,,,,,,,,,,,,,,,,,,,,,,,,,,,,,,,,,,,,,,01,005,2022-09-23_10h28.53.571,test2,2022.2.4,59.811744686767156,
0,0,0,0,88,0,88,0,2195.216675611,2195.216675611,2195.216675611,2195.216675611,2195.216675611,2195.216675611,2195.216675611,-1,-1,azul,0,['N_B'],2197.269142677,2197.269142677,2197.269142677,2197.269142677,2199.30504443,2199.30504443,2199.30504443,2199.30504443,2199.30504443,2199.30504443,2199.30504443,2199.30504443,2201.34034191,2201.34034191,2201.34034191,2201.34034191,,,,,,,,,,,,,,,,,,,,,,,,,,,,,,,,,,,,,,,01,005,2022-09-23_10h28.53.571,test2,2022.2.4,59.811744686767156,
0,0,0,0,89,0,89,0,2201.34034191,2201.34034191,2201.34034191,2201.34034191,2201.34034191,2201.34034191,2201.34034191,-1,-1,rojo,1,['N_B'],2202.657628498,2202.657628498,2202.657628498,2202.657628498,2204.694452918,2204.694452918,2204.694452918,2204.694452918,2204.694452918,2204.694452918,2204.694452918,2204.694452918,2206.7290251870004,2206.7290251870004,2206.7290251870004,2206.7290251870004,,,,,,,,,,,,,,,,,,,,,,,,,,,,,,,,,,,,,,,01,005,2022-09-23_10h28.53.571,test2,2022.2.4,59.811744686767156,
0,0,0,0,90,0,90,0,2206.7290251870004,2206.7290251870004,2206.7290251870004,2206.7290251870004,2206.7290251870004,2206.7290251870004,2206.7290251870004,-1,-1,rojo,0,['N_A'],2208.5143309,2208.5143309,2208.5143309,2208.5143309,2210.550661948,2210.550661948,2210.550661948,2210.550661948,2210.550661948,2210.550661948,2210.550661948,2210.550661948,2212.585178826,2212.585178826,2212.585178826,2212.585178826,,,,,,,,,,,,,,,,,,,,,,,,,,,,,,,,,,,,,,,01,005,2022-09-23_10h28.53.571,test2,2022.2.4,59.811744686767156,
0,0,0,0,91,0,91,0,2212.585178826,2212.585178826,2212.585178826,2212.585178826,2212.585178826,2212.585178826,2212.585178826,1,-1,rojo,1,['N_A'],2214.0876843610004,2214.0876843610004,2214.0876843610004,2214.0876843610004,2216.1228322310003,2216.1228322310003,2216.1228322310003,2216.1228322310003,2216.1228322310003,2216.1228322310003,2216.1228322310003,2216.1228322310003,2218.158479392,2218.158479392,2218.158479392,2218.158479392,,,,,,,,,,,,,,,,,,,,,,,,,,,,,,,,,,,,,,,01,005,2022-09-23_10h28.53.571,test2,2022.2.4,59.811744686767156,
0,0,0,0,92,0,92,0,2218.158479392,2218.158479392,2218.158479392,2218.158479392,2218.158479392,2218.158479392,2218.158479392,1,1,rojo,0,['N_B'],2225.4499797010003,2225.4499797010003,2225.4499797010003,2225.4499797010003,2227.484329458,2227.484329458,2227.484329458,2227.484329458,2227.484329458,2227.484329458,2227.484329458,2227.484329458,2229.520788796,2229.520788796,2229.520788796,2229.520788796,,,,,,,,,,,,,,,,,,,,,,,,,,,,,,,,,,,,,,,01,005,2022-09-23_10h28.53.571,test2,2022.2.4,59.811744686767156,
0,0,0,0,93,0,93,0,2229.520788796,2229.520788796,2229.520788796,2229.520788796,2229.520788796,2229.520788796,2229.520788796,1,-1,azul,0,['N_A'],2233.7426218560004,2233.7426218560004,2233.7426218560004,2233.7426218560004,2235.777726704,2235.777726704,2235.777726704,2235.777726704,2235.777726704,2235.777726704,2235.777726704,2235.777726704,2237.813396068,2237.813396068,2237.813396068,2237.813396068,,,,,,,,,,,,,,,,,,,,,,,,,,,,,,,,,,,,,,,01,005,2022-09-23_10h28.53.571,test2,2022.2.4,59.811744686767156,
0,0,0,0,94,0,94,0,2237.813396068,2237.813396068,2237.813396068,2237.813396068,2237.813396068,2237.813396068,2237.813396068,1,1,rojo,1,['N_A'],2239.16476718,2239.16476718,2239.16476718,2239.16476718,2241.2009389460004,2241.2009389460004,2241.2009389460004,2241.2009389460004,2241.2009389460004,2241.2009389460004,2241.2009389460004,2241.2009389460004,2243.236426156,2243.236426156,2243.236426156,2243.236426156,,,,,,,,,,,,,,,,,,,,,,,,,,,,,,,,,,,,,,,01,005,2022-09-23_10h28.53.571,test2,2022.2.4,59.811744686767156,
0,0,0,0,95,0,95,0,2243.236426156,2243.236426156,2243.236426156,2243.236426156,2243.236426156,2243.236426156,2243.236426156,1,-1,rojo,0,['N_B'],2244.671206253,2244.671206253,2244.671206253,2244.671206253,2246.706452365,2246.706452365,2246.706452365,2246.706452365,2246.706452365,2246.706452365,2246.706452365,2246.706452365,2248.7419651610003,2248.7419651610003,2248.7419651610003,2248.7419651610003,,,,,,,,,,,,,,,,,,,,,,,,,,,,,,,,,,,,,,,01,005,2022-09-23_10h28.53.571,test2,2022.2.4,59.811744686767156,
0,0,0,0,96,0,96,0,2248.7419651610003,2248.7419651610003,2248.7419651610003,2248.7419651610003,2248.7419651610003,2248.7419651610003,2248.7419651610003,1,1,azul,1,['N_B'],2250.827402232,2250.827402232,2250.827402232,2250.827402232,2252.846747769,2252.846747769,2252.846747769,2252.846747769,2252.846747769,2252.846747769,2252.846747769,2252.846747769,2254.8819159520003,2254.8819159520003,2254.8819159520003,2254.8819159520003,,,,,,,,,,,,,,,,,,,,,,,,,,,,,,,,,,,,,,,01,005,2022-09-23_10h28.53.571,test2,2022.2.4,59.811744686767156,
0,0,0,0,97,0,97,0,2254.8819159520003,2254.8819159520003,2254.8819159520003,2254.8819159520003,2254.8819159520003,2254.8819159520003,2254.8819159520003,1,1,azul,1,['N_B'],2257.4345003040003,2257.4345003040003,2257.4345003040003,2257.4345003040003,2259.454079008,2259.454079008,2259.454079008,2259.454079008,2259.454079008,2259.454079008,2259.454079008,2259.454079008,2261.489397533,2261.489397533,2261.489397533,2261.489397533,,,,,,,,,,,,,,,,,,,,,,,,,,,,,,,,,,,,,,,01,005,2022-09-23_10h28.53.571,test2,2022.2.4,59.811744686767156,
0,0,0,0,98,0,98,0,2261.489397533,2261.489397533,2261.489397533,2261.489397533,2261.489397533,2261.489397533,2261.489397533,1,1,azul,1,['N_B'],2263.4414761840003,2263.4414761840003,2263.4414761840003,2263.4414761840003,2265.4770032250003,2265.4770032250003,2265.4770032250003,2265.4770032250003,2265.4770032250003,2265.4770032250003,2265.4770032250003,2265.4770032250003,2267.512671926,2267.512671926,2267.512671926,2267.512671926,,,,,,,,,,,,,,,,,,,,,,,,,,,,,,,,,,,,,,,01,005,2022-09-23_10h28.53.571,test2,2022.2.4,59.811744686767156,
0,0,0,0,99,0,99,0,2267.512671926,2267.512671926,2267.512671926,2267.512671926,2267.512671926,2267.512671926,2267.512671926,1,-1,azul,0,['N_A'],2270.1993365410003,2270.1993365410003,2270.1993365410003,2270.1993365410003,2272.234733702,2272.234733702,2272.234733702,2272.234733702,2272.234733702,2272.234733702,2272.234733702,2272.234733702,2274.2698293480003,2274.2698293480003,2274.2698293480003,2274.2698293480003,,,,,,,,,,,,,,,,,,,,,,,,,,,,,,,,,,,,,,,01,005,2022-09-23_10h28.53.571,test2,2022.2.4,59.811744686767156,
0,0,0,0,100,0,100,0,2274.2698293480003,2274.2698293480003,2274.2698293480003,2274.2698293480003,2274.2698293480003,2274.2698293480003,2274.2698293480003,1,-1,rojo,1,['N_A'],2276.4563367260002,2276.4563367260002,2276.4563367260002,2276.4563367260002,2278.49160591,2278.49160591,2278.49160591,2278.49160591,2278.49160591,2278.49160591,2278.49160591,2278.49160591,2280.5272135140003,2280.5272135140003,2280.5272135140003,2280.5272135140003,,,,,,,,,,,,,,,,,,,,,,,,,,,,,,,,,,,,,,,01,005,2022-09-23_10h28.53.571,test2,2022.2.4,59.811744686767156,
0,0,0,0,101,0,101,0,2280.5272135140003,2280.5272135140003,2280.5272135140003,2280.5272135140003,2280.5272135140003,2280.5272135140003,2280.5272135140003,1,-1,rojo,0,['N_B'],2283.046419669,2283.046419669,2283.046419669,2283.046419669,2285.0823191940003,2285.0823191940003,2285.0823191940003,2285.0823191940003,2285.0823191940003,2285.0823191940003,2285.0823191940003,2285.0823191940003,2287.117589166,2287.117589166,2287.117589166,2287.117589166,,,,,,,,,,,,,,,,,,,,,,,,,,,,,,,,,,,,,,,01,005,2022-09-23_10h28.53.571,test2,2022.2.4,59.811744686767156,
0,0,0,0,102,0,102,0,2287.117589166,2287.117589166,2287.117589166,2287.117589166,2287.117589166,2287.117589166,2287.117589166,1,1,azul,1,['N_B'],2289.0696049370003,2289.0696049370003,2289.0696049370003,2289.0696049370003,2291.10599903,2291.10599903,2291.10599903,2291.10599903,2291.10599903,2291.10599903,2291.10599903,2291.10599903,2293.140788647,2293.140788647,2293.140788647,2293.140788647,,,,,,,,,,,,,,,,,,,,,,,,,,,,,,,,,,,,,,,01,005,2022-09-23_10h28.53.571,test2,2022.2.4,59.811744686767156,
0,0,0,0,103,0,103,0,2293.140788647,2293.140788647,2293.140788647,2293.140788647,2293.140788647,2293.140788647,2293.140788647,1,-1,azul,0,['N_A'],2296.527859954,2296.527859954,2296.527859954,2296.527859954,2298.564319697,2298.564319697,2298.564319697,2298.564319697,2298.564319697,2298.564319697,2298.564319697,2298.564319697,2300.59940907,2300.59940907,2300.59940907,2300.59940907,,,,,,,,,,,,,,,,,,,,,,,,,,,,,,,,,,,,,,,01,005,2022-09-23_10h28.53.571,test2,2022.2.4,59.811744686767156,
0,0,0,0,104,0,104,0,2300.59940907,2300.59940907,2300.59940907,2300.59940907,2300.59940907,2300.59940907,2300.59940907,1,-1,rojo,1,['N_A'],2303.8532345520002,2303.8532345520002,2303.8532345520002,2303.8532345520002,2305.88844099,2305.88844099,2305.88844099,2305.88844099,2305.88844099,2305.88844099,2305.88844099,2305.88844099,2307.924214349,2307.924214349,2307.924214349,2307.924214349,,,,,,,,,,,,,,,,,,,,,,,,,,,,,,,,,,,,,,,01,005,2022-09-23_10h28.53.571,test2,2022.2.4,59.811744686767156,
0,0,0,0,105,0,105,0,2307.924214349,2307.924214349,2307.924214349,2307.924214349,2307.924214349,2307.924214349,2307.924214349,1,1,rojo,0,['N_B'],2313.313353841,2313.313353841,2313.313353841,2313.313353841,2315.3488494760004,2315.3488494760004,2315.3488494760004,2315.3488494760004,2315.3488494760004,2315.3488494760004,2315.3488494760004,2315.3488494760004,2317.3847031940004,2317.3847031940004,2317.3847031940004,2317.3847031940004,,,,,,,,,,,,,,,,,,,,,,,,,,,,,,,,,,,,,,,01,005,2022-09-23_10h28.53.571,test2,2022.2.4,59.811744686767156,
0,0,0,0,106,0,106,0,2317.3847031940004,2317.3847031940004,2317.3847031940004,2317.3847031940004,2317.3847031940004,2317.3847031940004,2317.3847031940004,1,-1,azul,1,['N_B'],2319.0030749750003,2319.0030749750003,2319.0030749750003,2319.0030749750003,2321.0393120810004,2321.0393120810004,2321.0393120810004,2321.0393120810004,2321.0393120810004,2321.0393120810004,2321.0393120810004,2321.0393120810004,2323.0746514690004,2323.0746514690004,2323.0746514690004,2323.0746514690004,,,,,,,,,,,,,,,,,,,,,,,,,,,,,,,,,,,,,,,01,005,2022-09-23_10h28.53.571,test2,2022.2.4,59.811744686767156,
0,0,0,0,107,0,107,0,2323.0746514690004,2323.0746514690004,2323.0746514690004,2323.0746514690004,2323.0746514690004,2323.0746514690004,2323.0746514690004,1,1,azul,1,['N_B'],2324.4919213390003,2324.4919213390003,2324.4919213390003,2324.4919213390003,2326.510768525,2326.510768525,2326.510768525,2326.510768525,2326.510768525,2326.510768525,2326.510768525,2326.510768525,2328.5466480950004,2328.5466480950004,2328.5466480950004,2328.5466480950004,,,,,,,,,,,,,,,,,,,,,,,,,,,,,,,,,,,,,,,01,005,2022-09-23_10h28.53.571,test2,2022.2.4,59.811744686767156,
0,0,0,0,108,0,108,0,2328.5466480950004,2328.5466480950004,2328.5466480950004,2328.5466480950004,2328.5466480950004,2328.5466480950004,2328.5466480950004,1,1,azul,1,['N_B'],2332.0170027080003,2332.0170027080003,2332.0170027080003,2332.0170027080003,2334.0366003880004,2334.0366003880004,2334.0366003880004,2334.0366003880004,2334.0366003880004,2334.0366003880004,2334.0366003880004,2334.0366003880004,2336.071919495,2336.071919495,2336.071919495,2336.071919495,,,,,,,,,,,,,,,,,,,,,,,,,,,,,,,,,,,,,,,01,005,2022-09-23_10h28.53.571,test2,2022.2.4,59.811744686767156,
0,0,0,0,109,0,109,0,2336.071919495,2336.071919495,2336.071919495,2336.071919495,2336.071919495,2336.071919495,2336.071919495,1,1,azul,1,['N_B'],2337.5902076770003,2337.5902076770003,2337.5902076770003,2337.5902076770003,2339.625498496,2339.625498496,2339.625498496,2339.625498496,2339.625498496,2339.625498496,2339.625498496,2339.625498496,2341.66097939,2341.66097939,2341.66097939,2341.66097939,,,,,,,,,,,,,,,,,,,,,,,,,,,,,,,,,,,,,,,01,005,2022-09-23_10h28.53.571,test2,2022.2.4,59.811744686767156,
0,0,0,0,110,0,110,0,2341.66097939,2341.66097939,2341.66097939,2341.66097939,2341.66097939,2341.66097939,2341.66097939,-1,-1,rojo,0,['N_A'],2343.21330442,2343.21330442,2343.21330442,2343.21330442,2345.248365592,2345.248365592,2345.248365592,2345.248365592,2345.248365592,2345.248365592,2345.248365592,2345.248365592,2347.284133472,2347.284133472,2347.284133472,2347.284133472,,,,,,,,,,,,,,,,,,,,,,,,,,,,,,,,,,,,,,,01,005,2022-09-23_10h28.53.571,test2,2022.2.4,59.811744686767156,
0,0,0,0,111,0,111,0,2347.284133472,2347.284133472,2347.284133472,2347.284133472,2347.284133472,2347.284133472,2347.284133472,-1,-1,azul,1,['N_A'],2349.5701276190002,2349.5701276190002,2349.5701276190002,2349.5701276190002,2351.6053262080004,2351.6053262080004,2351.6053262080004,2351.6053262080004,2351.6053262080004,2351.6053262080004,2351.6053262080004,2351.6053262080004,2353.6411169860003,2353.6411169860003,2353.6411169860003,2353.6411169860003,,,,,,,,,,,,,,,,,,,,,,,,,,,,,,,,,,,,,,,01,005,2022-09-23_10h28.53.571,test2,2022.2.4,59.811744686767156,
0,0,0,0,112,0,112,0,2353.6411169860003,2353.6411169860003,2353.6411169860003,2353.6411169860003,2353.6411169860003,2353.6411169860003,2353.6411169860003,1,-1,rojo,1,['N_A'],2358.112766742,2358.112766742,2358.112766742,2358.112766742,2360.148951637,2360.148951637,2360.148951637,2360.148951637,2360.148951637,2360.148951637,2360.148951637,2360.148951637,2362.183652016,2362.183652016,2362.183652016,2362.183652016,,,,,,,,,,,,,,,,,,,,,,,,,,,,,,,,,,,,,,,01,005,2022-09-23_10h28.53.571,test2,2022.2.4,59.811744686767156,
0,0,0,0,113,0,113,0,2362.183652016,2362.183652016,2362.183652016,2362.183652016,2362.183652016,2362.183652016,2362.183652016,1,-1,rojo,1,['N_A'],2364.83655235,2364.83655235,2364.83655235,2364.83655235,2366.8726118920004,2366.8726118920004,2366.8726118920004,2366.8726118920004,2366.8726118920004,2366.8726118920004,2366.8726118920004,2366.8726118920004,2368.9082110000004,2368.9082110000004,2368.9082110000004,2368.9082110000004,,,,,,,,,,,,,,,,,,,,,,,,,,,,,,,,,,,,,,,01,005,2022-09-23_10h28.53.571,test2,2022.2.4,59.811744686767156,
0,0,0,0,114,0,114,0,2368.9082110000004,2368.9082110000004,2368.9082110000004,2368.9082110000004,2368.9082110000004,2368.9082110000004,2368.9082110000004,1,-1,rojo,0,['N_B'],2370.409659019,2370.409659019,2370.409659019,2370.409659019,2372.4462916740003,2372.4462916740003,2372.4462916740003,2372.4462916740003,2372.4462916740003,2372.4462916740003,2372.4462916740003,2372.4462916740003,2374.4812622040004,2374.4812622040004,2374.4812622040004,2374.4812622040004,,,,,,,,,,,,,,,,,,,,,,,,,,,,,,,,,,,,,,,01,005,2022-09-23_10h28.53.571,test2,2022.2.4,59.811744686767156,
0,0,0,0,115,0,115,0,2374.4812622040004,2374.4812622040004,2374.4812622040004,2374.4812622040004,2374.4812622040004,2374.4812622040004,2374.4812622040004,1,-1,azul,1,['N_B'],2376.249403925,2376.249403925,2376.249403925,2376.249403925,2378.285790421,2378.285790421,2378.285790421,2378.285790421,2378.285790421,2378.285790421,2378.285790421,2378.285790421,2380.32093639,2380.32093639,2380.32093639,2380.32093639,,,,,,,,,,,,,,,,,,,,,,,,,,,,,,,,,,,,,,,01,005,2022-09-23_10h28.53.571,test2,2022.2.4,59.811744686767156,
0,0,0,0,116,0,116,0,2380.32093639,2380.32093639,2380.32093639,2380.32093639,2380.32093639,2380.32093639,2380.32093639,1,-1,azul,0,['N_A'],2382.272358527,2382.272358527,2382.272358527,2382.272358527,2384.3079095830003,2384.3079095830003,2384.3079095830003,2384.3079095830003,2384.3079095830003,2384.3079095830003,2384.3079095830003,2384.3079095830003,2386.3436589020002,2386.3436589020002,2386.3436589020002,2386.3436589020002,,,,,,,,,,,,,,,,,,,,,,,,,,,,,,,,,,,,,,,01,005,2022-09-23_10h28.53.571,test2,2022.2.4,59.811744686767156,
0,0,0,0,117,0,117,0,2386.3436589020002,2386.3436589020002,2386.3436589020002,2386.3436589020002,2386.3436589020002,2386.3436589020002,2386.3436589020002,1,-1,rojo,1,['N_A'],2387.779182023,2387.779182023,2387.779182023,2387.779182023,2389.8144710760002,2389.8144710760002,2389.8144710760002,2389.8144710760002,2389.8144710760002,2389.8144710760002,2389.8144710760002,2389.8144710760002,2391.8501070690004,2391.8501070690004,2391.8501070690004,2391.8501070690004,,,,,,,,,,,,,,,,,,,,,,,,,,,,,,,,,,,,,,,01,005,2022-09-23_10h28.53.571,test2,2022.2.4,59.811744686767156,
0,0,0,0,118,0,118,0,2391.8501070690004,2391.8501070690004,2391.8501070690004,2391.8501070690004,2391.8501070690004,2391.8501070690004,2391.8501070690004,1,-1,rojo,0,['N_B'],2393.4018725610003,2393.4018725610003,2393.4018725610003,2393.4018725610003,2395.437216133,2395.437216133,2395.437216133,2395.437216133,2395.437216133,2395.437216133,2395.437216133,2395.437216133,2397.4733604400003,2397.4733604400003,2397.4733604400003,2397.4733604400003,,,,,,,,,,,,,,,,,,,,,,,,,,,,,,,,,,,,,,,01,005,2022-09-23_10h28.53.571,test2,2022.2.4,59.811744686767156,
0,0,0,0,119,0,119,0,2397.4733604400003,2397.4733604400003,2397.4733604400003,2397.4733604400003,2397.4733604400003,2397.4733604400003,2397.4733604400003,1,-1,azul,1,['N_B'],2399.425137442,2399.425137442,2399.425137442,2399.425137442,2401.4607458150003,2401.4607458150003,2401.4607458150003,2401.4607458150003,2401.4607458150003,2401.4607458150003,2401.4607458150003,2401.4607458150003,2403.4958642340002,2403.4958642340002,2403.4958642340002,2403.4958642340002,,,,,,,,,,,,,,,,,,,,,,,,,,,,,,,,,,,,,,,01,005,2022-09-23_10h28.53.571,test2,2022.2.4,59.811744686767156,
0,0,0,0,120,0,120,0,2403.4958642340002,2403.4958642340002,2403.4958642340002,2403.4958642340002,2403.4958642340002,2403.4958642340002,2403.4958642340002,-1,-1,rojo,0,['N_A'],2405.2817274850004,2405.2817274850004,2405.2817274850004,2405.2817274850004,2407.3170254200004,2407.3170254200004,2407.3170254200004,2407.3170254200004,2407.3170254200004,2407.3170254200004,2407.3170254200004,2407.3170254200004,2409.352513285,2409.352513285,2409.352513285,2409.352513285,,,,,,,,,,,,,,,,,,,,,,,,,,,,,,,,,,,,,,,01,005,2022-09-23_10h28.53.571,test2,2022.2.4,59.811744686767156,
0,0,0,0,121,0,121,0,2409.352513285,2409.352513285,2409.352513285,2409.352513285,2409.352513285,2409.352513285,2409.352513285,1,-1,rojo,1,['N_A'],2410.771340045,2410.771340045,2410.771340045,2410.771340045,2412.806660837,2412.806660837,2412.806660837,2412.806660837,2412.806660837,2412.806660837,2412.806660837,2412.806660837,2414.8418383450003,2414.8418383450003,2414.8418383450003,2414.8418383450003,,,,,,,,,,,,,,,,,,,,,,,,,,,,,,,,,,,,,,,01,005,2022-09-23_10h28.53.571,test2,2022.2.4,59.811744686767156,
0,0,0,0,122,0,122,0,2414.8418383450003,2414.8418383450003,2414.8418383450003,2414.8418383450003,2414.8418383450003,2414.8418383450003,2414.8418383450003,1,-1,rojo,0,['N_B'],2416.393433642,2416.393433642,2416.393433642,2416.393433642,2418.4299430590004,2418.4299430590004,2418.4299430590004,2418.4299430590004,2418.4299430590004,2418.4299430590004,2418.4299430590004,2418.4299430590004,2420.4645414650004,2420.4645414650004,2420.4645414650004,2420.4645414650004,,,,,,,,,,,,,,,,,,,,,,,,,,,,,,,,,,,,,,,01,005,2022-09-23_10h28.53.571,test2,2022.2.4,59.811744686767156,
0,0,0,0,123,0,123,0,2420.4645414650004,2420.4645414650004,2420.4645414650004,2420.4645414650004,2420.4645414650004,2420.4645414650004,2420.4645414650004,1,-1,azul,1,['N_B'],2422.6336178270003,2422.6336178270003,2422.6336178270003,2422.6336178270003,2424.6700854590003,2424.6700854590003,2424.6700854590003,2424.6700854590003,2424.6700854590003,2424.6700854590003,2424.6700854590003,2424.6700854590003,2426.704908956,2426.704908956,2426.704908956,2426.704908956,,,,,,,,,,,,,,,,,,,,,,,,,,,,,,,,,,,,,,,01,005,2022-09-23_10h28.53.571,test2,2022.2.4,59.811744686767156,
0,0,0,0,124,0,124,0,2426.704908956,2426.704908956,2426.704908956,2426.704908956,2426.704908956,2426.704908956,2426.704908956,1,-1,azul,0,['N_A'],2429.1574988310003,2429.1574988310003,2429.1574988310003,2429.1574988310003,2431.1930018460002,2431.1930018460002,2431.1930018460002,2431.1930018460002,2431.1930018460002,2431.1930018460002,2431.1930018460002,2431.1930018460002,2433.2287198900003,2433.2287198900003,2433.2287198900003,2433.2287198900003,,,,,,,,,,,,,,,,,,,,,,,,,,,,,,,,,,,,,,,01,005,2022-09-23_10h28.53.571,test2,2022.2.4,59.811744686767156,
0,0,0,0,125,0,125,0,2433.2287198900003,2433.2287198900003,2433.2287198900003,2433.2287198900003,2433.2287198900003,2433.2287198900003,2433.2287198900003,1,1,rojo,1,['N_A'],2434.647290231,2434.647290231,2434.647290231,2434.647290231,2436.666329897,2436.666329897,2436.666329897,2436.666329897,2436.666329897,2436.666329897,2436.666329897,2436.666329897,2438.701502236,2438.701502236,2438.701502236,2438.701502236,,,,,,,,,,,,,,,,,,,,,,,,,,,,,,,,,,,,,,,01,005,2022-09-23_10h28.53.571,test2,2022.2.4,59.811744686767156,
0,0,0,0,126,0,126,0,2438.701502236,2438.701502236,2438.701502236,2438.701502236,2438.701502236,2438.701502236,2438.701502236,1,1,rojo,1,['N_A'],2442.5893780270003,2442.5893780270003,2442.5893780270003,2442.5893780270003,2444.6255873580003,2444.6255873580003,2444.6255873580003,2444.6255873580003,2444.6255873580003,2444.6255873580003,2444.6255873580003,2444.6255873580003,2446.6601388830004,2446.6601388830004,2446.6601388830004,2446.6601388830004,,,,,,,,,,,,,,,,,,,,,,,,,,,,,,,,,,,,,,,01,005,2022-09-23_10h28.53.571,test2,2022.2.4,59.811744686767156,
0,0,0,0,127,0,127,0,2446.6601388830004,2446.6601388830004,2446.6601388830004,2446.6601388830004,2446.6601388830004,2446.6601388830004,2446.6601388830004,-1,-1,azul,0,['N_B'],2450.113979084,2450.113979084,2450.113979084,2450.113979084,2452.1493250040003,2452.1493250040003,2452.1493250040003,2452.1493250040003,2452.1493250040003,2452.1493250040003,2452.1493250040003,2452.1493250040003,2454.185880627,2454.185880627,2454.185880627,2454.185880627,,,,,,,,,,,,,,,,,,,,,,,,,,,,,,,,,,,,,,,01,005,2022-09-23_10h28.53.571,test2,2022.2.4,59.811744686767156,
0,0,0,0,128,0,128,0,2454.185880627,2454.185880627,2454.185880627,2454.185880627,2454.185880627,2454.185880627,2454.185880627,-1,1,rojo,1,['N_B'],2455.836830095,2455.836830095,2455.836830095,2455.836830095,2457.8559967670003,2457.8559967670003,2457.8559967670003,2457.8559967670003,2457.8559967670003,2457.8559967670003,2457.8559967670003,2457.8559967670003,2459.8918038320003,2459.8918038320003,2459.8918038320003,2459.8918038320003,,,,,,,,,,,,,,,,,,,,,,,,,,,,,,,,,,,,,,,01,005,2022-09-23_10h28.53.571,test2,2022.2.4,59.811744686767156,
0,0,0,0,129,0,129,0,2459.8918038320003,2459.8918038320003,2459.8918038320003,2459.8918038320003,2459.8918038320003,2459.8918038320003,2459.8918038320003,1,1,azul,1,['N_B'],2461.994510165,2461.994510165,2461.994510165,2461.994510165,2464.012652895,2464.012652895,2464.012652895,2464.012652895,2464.012652895,2464.012652895,2464.012652895,2464.012652895,2466.048096328,2466.048096328,2466.048096328,2466.048096328,,,,,,,,,,,,,,,,,,,,,,,,,,,,,,,,,,,,,,,01,005,2022-09-23_10h28.53.571,test2,2022.2.4,59.811744686767156,
0,0,0,0,130,0,130,0,2466.048096328,2466.048096328,2466.048096328,2466.048096328,2466.048096328,2466.048096328,2466.048096328,-1,1,rojo,1,['N_B'],2468.3679785000004,2468.3679785000004,2468.3679785000004,2468.3679785000004,2470.387123771,2470.387123771,2470.387123771,2470.387123771,2470.387123771,2470.387123771,2470.387123771,2470.387123771,2472.4228180150003,2472.4228180150003,2472.4228180150003,2472.4228180150003,,,,,,,,,,,,,,,,,,,,,,,,,,,,,,,,,,,,,,,01,005,2022-09-23_10h28.53.571,test2,2022.2.4,59.811744686767156,
0,0,0,0,131,0,131,0,2472.4228180150003,2472.4228180150003,2472.4228180150003,2472.4228180150003,2472.4228180150003,2472.4228180150003,2472.4228180150003,-1,1,rojo,1,['N_B'],2474.107872812,2474.107872812,2474.107872812,2474.107872812,2476.1430990950003,2476.1430990950003,2476.1430990950003,2476.1430990950003,2476.1430990950003,2476.1430990950003,2476.1430990950003,2476.1430990950003,2478.178112372,2478.178112372,2478.178112372,2478.178112372,,,,,,,,,,,,,,,,,,,,,,,,,,,,,,,,,,,,,,,01,005,2022-09-23_10h28.53.571,test2,2022.2.4,59.811744686767156,
0,0,0,0,132,0,132,0,2478.178112372,2478.178112372,2478.178112372,2478.178112372,2478.178112372,2478.178112372,2478.178112372,1,-1,azul,0,['N_A'],2479.863600615,2479.863600615,2479.863600615,2479.863600615,2481.8999755150003,2481.8999755150003,2481.8999755150003,2481.8999755150003,2481.8999755150003,2481.8999755150003,2481.8999755150003,2481.8999755150003,2483.935405138,2483.935405138,2483.935405138,2483.935405138,,,,,,,,,,,,,,,,,,,,,,,,,,,,,,,,,,,,,,,01,005,2022-09-23_10h28.53.571,test2,2022.2.4,59.811744686767156,
0,0,0,0,133,0,133,0,2483.935405138,2483.935405138,2483.935405138,2483.935405138,2483.935405138,2483.935405138,2483.935405138,1,-1,rojo,1,['N_A'],2485.3197762130003,2485.3197762130003,2485.3197762130003,2485.3197762130003,2487.3560892970004,2487.3560892970004,2487.3560892970004,2487.3560892970004,2487.3560892970004,2487.3560892970004,2487.3560892970004,2487.3560892970004,2489.390771546,2489.390771546,2489.390771546,2489.390771546,,,,,,,,,,,,,,,,,,,,,,,,,,,,,,,,,,,,,,,01,005,2022-09-23_10h28.53.571,test2,2022.2.4,59.811744686767156,
0,0,0,0,134,0,134,0,2489.390771546,2489.390771546,2489.390771546,2489.390771546,2489.390771546,2489.390771546,2489.390771546,-1,-1,azul,0,['N_B'],2490.7928803590003,2490.7928803590003,2490.7928803590003,2490.7928803590003,2492.8284868160003,2492.8284868160003,2492.8284868160003,2492.8284868160003,2492.8284868160003,2492.8284868160003,2492.8284868160003,2492.8284868160003,2494.863833979,2494.863833979,2494.863833979,2494.863833979,,,,,,,,,,,,,,,,,,,,,,,,,,,,,,,,,,,,,,,01,005,2022-09-23_10h28.53.571,test2,2022.2.4,59.811744686767156,
0,0,0,0,135,0,135,0,2494.863833979,2494.863833979,2494.863833979,2494.863833979,2494.863833979,2494.863833979,2494.863833979,1,-1,azul,1,['N_B'],2496.2818754560003,2496.2818754560003,2496.2818754560003,2496.2818754560003,2498.317590384,2498.317590384,2498.317590384,2498.317590384,2498.317590384,2498.317590384,2498.317590384,2498.317590384,2500.352875506,2500.352875506,2500.352875506,2500.352875506,,,,,,,,,,,,,,,,,,,,,,,,,,,,,,,,,,,,,,,01,005,2022-09-23_10h28.53.571,test2,2022.2.4,59.811744686767156,
0,0,0,0,136,0,136,0,2500.352875506,2500.352875506,2500.352875506,2500.352875506,2500.352875506,2500.352875506,2500.352875506,-1,-1,rojo,0,['N_A'],2510.897955067,2510.897955067,2510.897955067,2510.897955067,2512.9340227710004,2512.9340227710004,2512.9340227710004,2512.9340227710004,2512.9340227710004,2512.9340227710004,2512.9340227710004,2512.9340227710004,2514.969202317,2514.969202317,2514.969202317,2514.969202317,,,,,,,,,,,,,,,,,,,,,,,,,,,,,,,,,,,,,,,01,005,2022-09-23_10h28.53.571,test2,2022.2.4,59.811744686767156,
0,0,0,0,137,0,137,0,2514.969202317,2514.969202317,2514.969202317,2514.969202317,2514.969202317,2514.969202317,2514.969202317,-1,-1,azul,1,['N_A'],2517.3214447620003,2517.3214447620003,2517.3214447620003,2517.3214447620003,2519.357380424,2519.357380424,2519.357380424,2519.357380424,2519.357380424,2519.357380424,2519.357380424,2519.357380424,2521.3932684260003,2521.3932684260003,2521.3932684260003,2521.3932684260003,,,,,,,,,,,,,,,,,,,,,,,,,,,,,,,,,,,,,,,01,005,2022-09-23_10h28.53.571,test2,2022.2.4,59.811744686767156,
0,0,0,0,138,0,138,0,2521.3932684260003,2521.3932684260003,2521.3932684260003,2521.3932684260003,2521.3932684260003,2521.3932684260003,2521.3932684260003,1,-1,rojo,0,['N_B'],2523.5452216870003,2523.5452216870003,2523.5452216870003,2523.5452216870003,2525.5812509740003,2525.5812509740003,2525.5812509740003,2525.5812509740003,2525.5812509740003,2525.5812509740003,2525.5812509740003,2525.5812509740003,2527.6171834360002,2527.6171834360002,2527.6171834360002,2527.6171834360002,,,,,,,,,,,,,,,,,,,,,,,,,,,,,,,,,,,,,,,01,005,2022-09-23_10h28.53.571,test2,2022.2.4,59.811744686767156,
0,0,0,0,139,0,139,0,2527.6171834360002,2527.6171834360002,2527.6171834360002,2527.6171834360002,2527.6171834360002,2527.6171834360002,2527.6171834360002,-1,-1,rojo,1,['N_B'],2530.1530905890004,2530.1530905890004,2530.1530905890004,2530.1530905890004,2532.1880361040003,2532.1880361040003,2532.1880361040003,2532.1880361040003,2532.1880361040003,2532.1880361040003,2532.1880361040003,2532.1880361040003,2534.224162468,2534.224162468,2534.224162468,2534.224162468,,,,,,,,,,,,,,,,,,,,,,,,,,,,,,,,,,,,,,,01,005,2022-09-23_10h28.53.571,test2,2022.2.4,59.811744686767156,
0,0,0,0,140,0,140,0,2534.224162468,2534.224162468,2534.224162468,2534.224162468,2534.224162468,2534.224162468,2534.224162468,1,1,azul,1,['N_B'],2536.192021447,2536.192021447,2536.192021447,2536.192021447,2538.228284497,2538.228284497,2538.228284497,2538.228284497,2538.228284497,2538.228284497,2538.228284497,2538.228284497,2540.263516674,2540.263516674,2540.263516674,2540.263516674,,,,,,,,,,,,,,,,,,,,,,,,,,,,,,,,,,,,,,,01,005,2022-09-23_10h28.53.571,test2,2022.2.4,59.811744686767156,
0,0,0,0,141,0,141,0,2540.263516674,2540.263516674,2540.263516674,2540.263516674,2540.263516674,2540.263516674,2540.263516674,1,-1,azul,0,['N_A'],2542.0161044320002,2542.0161044320002,2542.0161044320002,2542.0161044320002,2544.0511137450003,2544.0511137450003,2544.0511137450003,2544.0511137450003,2544.0511137450003,2544.0511137450003,2544.0511137450003,2544.0511137450003,2546.0866482650003,2546.0866482650003,2546.0866482650003,2546.0866482650003,,,,,,,,,,,,,,,,,,,,,,,,,,,,,,,,,,,,,,,01,005,2022-09-23_10h28.53.571,test2,2022.2.4,59.811744686767156,
0,0,0,0,142,0,142,0,2546.0866482650003,2546.0866482650003,2546.0866482650003,2546.0866482650003,2546.0866482650003,2546.0866482650003,2546.0866482650003,1,-1,rojo,1,['N_A'],2547.739063428,2547.739063428,2547.739063428,2547.739063428,2549.7744020960004,2549.7744020960004,2549.7744020960004,2549.7744020960004,2549.7744020960004,2549.7744020960004,2549.7744020960004,2549.7744020960004,2551.8099377380004,2551.8099377380004,2551.8099377380004,2551.8099377380004,,,,,,,,,,,,,,,,,,,,,,,,,,,,,,,,,,,,,,,01,005,2022-09-23_10h28.53.571,test2,2022.2.4,59.811744686767156,
0,0,0,0,143,0,143,0,2551.8099377380004,2551.8099377380004,2551.8099377380004,2551.8099377380004,2551.8099377380004,2551.8099377380004,2551.8099377380004,1,-1,rojo,0,['N_B'],2553.878805701,2553.878805701,2553.878805701,2553.878805701,2555.9140810880003,2555.9140810880003,2555.9140810880003,2555.9140810880003,2555.9140810880003,2555.9140810880003,2555.9140810880003,2555.9140810880003,2557.950097017,2557.950097017,2557.950097017,2557.950097017,,,,,,,,,,,,,,,,,,,,,,,,,,,,,,,,,,,,,,,01,005,2022-09-23_10h28.53.571,test2,2022.2.4,59.811744686767156,
0,0,0,0,144,0,144,0,2557.950097017,2557.950097017,2557.950097017,2557.950097017,2557.950097017,2557.950097017,2557.950097017,1,-1,azul,1,['N_B'],2559.668501303,2559.668501303,2559.668501303,2559.668501303,2561.7045029570004,2561.7045029570004,2561.7045029570004,2561.7045029570004,2561.7045029570004,2561.7045029570004,2561.7045029570004,2561.7045029570004,2563.7391160800003,2563.7391160800003,2563.7391160800003,2563.7391160800003,,,,,,,,,,,,,,,,,,,,,,,,,,,,,,,,,,,,,,,01,005,2022-09-23_10h28.53.571,test2,2022.2.4,59.811744686767156,
0,0,0,0,145,0,145,0,2563.7391160800003,2563.7391160800003,2563.7391160800003,2563.7391160800003,2563.7391160800003,2563.7391160800003,2563.7391160800003,1,-1,azul,0,['N_A'],2565.20840309,2565.20840309,2565.20840309,2565.20840309,2567.2436896080003,2567.2436896080003,2567.2436896080003,2567.2436896080003,2567.2436896080003,2567.2436896080003,2567.2436896080003,2567.2436896080003,2569.279179136,2569.279179136,2569.279179136,2569.279179136,,,,,,,,,,,,,,,,,,,,,,,,,,,,,,,,,,,,,,,01,005,2022-09-23_10h28.53.571,test2,2022.2.4,59.811744686767156,
0,0,0,0,146,0,146,0,2569.279179136,2569.279179136,2569.279179136,2569.279179136,2569.279179136,2569.279179136,2569.279179136,1,1,rojo,1,['N_A'],2571.6484771230002,2571.6484771230002,2571.6484771230002,2571.6484771230002,2573.666198233,2573.666198233,2573.666198233,2573.666198233,2573.666198233,2573.666198233,2573.666198233,2573.666198233,2575.702781381,2575.702781381,2575.702781381,2575.702781381,,,,,,,,,,,,,,,,,,,,,,,,,,,,,,,,,,,,,,,01,005,2022-09-23_10h28.53.571,test2,2022.2.4,59.811744686767156,
0,0,0,0,147,0,147,0,2575.702781381,2575.702781381,2575.702781381,2575.702781381,2575.702781381,2575.702781381,2575.702781381,1,1,rojo,1,['N_A'],2582.860802647,2582.860802647,2582.860802647,2582.860802647,2584.8799260110004,2584.8799260110004,2584.8799260110004,2584.8799260110004,2584.8799260110004,2584.8799260110004,2584.8799260110004,2584.8799260110004,2586.915746742,2586.915746742,2586.915746742,2586.915746742,,,,,,,,,,,,,,,,,,,,,,,,,,,,,,,,,,,,,,,01,005,2022-09-23_10h28.53.571,test2,2022.2.4,59.811744686767156,
0,0,0,0,148,0,148,0,2586.915746742,2586.915746742,2586.915746742,2586.915746742,2586.915746742,2586.915746742,2586.915746742,1,1,rojo,1,['N_A'],2588.8502617070003,2588.8502617070003,2588.8502617070003,2588.8502617070003,2590.8866813540003,2590.8866813540003,2590.8866813540003,2590.8866813540003,2590.8866813540003,2590.8866813540003,2590.8866813540003,2590.8866813540003,2592.9216449110004,2592.9216449110004,2592.9216449110004,2592.9216449110004,,,,,,,,,,,,,,,,,,,,,,,,,,,,,,,,,,,,,,,01,005,2022-09-23_10h28.53.571,test2,2022.2.4,59.811744686767156,
0,0,0,0,149,0,149,0,2592.9216449110004,2592.9216449110004,2592.9216449110004,2592.9216449110004,2592.9216449110004,2592.9216449110004,2592.9216449110004,1,-1,rojo,0,['N_B'],2607.454727439,2607.454727439,2607.454727439,2607.454727439,2609.489925578,2609.489925578,2609.489925578,2609.489925578,2609.489925578,2609.489925578,2609.489925578,2609.489925578,2611.525131506,2611.525131506,2611.525131506,2611.525131506,,,,,,,,,,,,,,,,,,,,,,,,,,,,,,,,,,,,,,,01,005,2022-09-23_10h28.53.571,test2,2022.2.4,59.811744686767156,
0,0,0,0,150,0,150,0,2611.525131506,2611.525131506,2611.525131506,2611.525131506,2611.525131506,2611.525131506,2611.525131506,-1,1,rojo,1,['N_B'],2613.7119960070004,2613.7119960070004,2613.7119960070004,2613.7119960070004,2615.729596173,2615.729596173,2615.729596173,2615.729596173,2615.729596173,2615.729596173,2615.729596173,2615.729596173,2617.7663536500004,2617.7663536500004,2617.7663536500004,2617.7663536500004,,,,,,,,,,,,,,,,,,,,,,,,,,,,,,,,,,,,,,,01,005,2022-09-23_10h28.53.571,test2,2022.2.4,59.811744686767156,
0,0,0,0,151,0,151,0,2617.7663536500004,2617.7663536500004,2617.7663536500004,2617.7663536500004,2617.7663536500004,2617.7663536500004,2617.7663536500004,1,1,azul,1,['N_B'],2623.8227404090003,2623.8227404090003,2623.8227404090003,2623.8227404090003,2625.858578707,2625.858578707,2625.858578707,2625.858578707,2625.858578707,2625.858578707,2625.858578707,2625.858578707,2627.893836651,2627.893836651,2627.893836651,2627.893836651,,,,,,,,,,,,,,,,,,,,,,,,,,,,,,,,,,,,,,,01,005,2022-09-23_10h28.53.571,test2,2022.2.4,59.811744686767156,
0,0,0,0,152,0,152,0,2627.893836651,2627.893836651,2627.893836651,2627.893836651,2627.893836651,2627.893836651,2627.893836651,1,-1,azul,0,['N_A'],2629.3618768160004,2629.3618768160004,2629.3618768160004,2629.3618768160004,2631.3984545900003,2631.3984545900003,2631.3984545900003,2631.3984545900003,2631.3984545900003,2631.3984545900003,2631.3984545900003,2631.3984545900003,2633.4333539440004,2633.4333539440004,2633.4333539440004,2633.4333539440004,,,,,,,,,,,,,,,,,,,,,,,,,,,,,,,,,,,,,,,01,005,2022-09-23_10h28.53.571,test2,2022.2.4,59.811744686767156,
0,0,0,0,153,0,153,0,2633.4333539440004,2633.4333539440004,2633.4333539440004,2633.4333539440004,2633.4333539440004,2633.4333539440004,2633.4333539440004,1,-1,rojo,1,['N_A'],2636.602926801,2636.602926801,2636.602926801,2636.602926801,2638.638541313,2638.638541313,2638.638541313,2638.638541313,2638.638541313,2638.638541313,2638.638541313,2638.638541313,2640.6746834560004,2640.6746834560004,2640.6746834560004,2640.6746834560004,,,,,,,,,,,,,,,,,,,,,,,,,,,,,,,,,,,,,,,01,005,2022-09-23_10h28.53.571,test2,2022.2.4,59.811744686767156,
0,0,0,0,154,0,154,0,2640.6746834560004,2640.6746834560004,2640.6746834560004,2640.6746834560004,2640.6746834560004,2640.6746834560004,2640.6746834560004,1,1,rojo,1,['N_A'],2642.6267338730004,2642.6267338730004,2642.6267338730004,2642.6267338730004,2644.6452848850004,2644.6452848850004,2644.6452848850004,2644.6452848850004,2644.6452848850004,2644.6452848850004,2644.6452848850004,2644.6452848850004,2646.680912923,2646.680912923,2646.680912923,2646.680912923,,,,,,,,,,,,,,,,,,,,,,,,,,,,,,,,,,,,,,,01,005,2022-09-23_10h28.53.571,test2,2022.2.4,59.811744686767156,
0,0,0,0,155,0,155,0,2646.680912923,2646.680912923,2646.680912923,2646.680912923,2646.680912923,2646.680912923,2646.680912923,1,1,rojo,1,['N_A'],2648.19934064,2648.19934064,2648.19934064,2648.19934064,2650.2170579030003,2650.2170579030003,2650.2170579030003,2650.2170579030003,2650.2170579030003,2650.2170579030003,2650.2170579030003,2650.2170579030003,2652.2535484970003,2652.2535484970003,2652.2535484970003,2652.2535484970003,,,,,,,,,,,,,,,,,,,,,,,,,,,,,,,,,,,,,,,01,005,2022-09-23_10h28.53.571,test2,2022.2.4,59.811744686767156,
0,0,0,0,156,0,156,0,2652.2535484970003,2652.2535484970003,2652.2535484970003,2652.2535484970003,2652.2535484970003,2652.2535484970003,2652.2535484970003,1,1,rojo,1,['N_A'],2657.0090003090004,2657.0090003090004,2657.0090003090004,2657.0090003090004,2659.045599415,2659.045599415,2659.045599415,2659.045599415,2659.045599415,2659.045599415,2659.045599415,2659.045599415,2661.0800904790003,2661.0800904790003,2661.0800904790003,2661.0800904790003,,,,,,,,,,,,,,,,,,,,,,,,,,,,,,,,,,,,,,,01,005,2022-09-23_10h28.53.571,test2,2022.2.4,59.811744686767156,
0,0,0,0,157,0,157,0,2661.0800904790003,2661.0800904790003,2661.0800904790003,2661.0800904790003,2661.0800904790003,2661.0800904790003,2661.0800904790003,1,-1,rojo,0,['N_B'],2664.067141863,2664.067141863,2664.067141863,2664.067141863,2666.102515001,2666.102515001,2666.102515001,2666.102515001,2666.102515001,2666.102515001,2666.102515001,2666.102515001,2668.138449602,2668.138449602,2668.138449602,2668.138449602,,,,,,,,,,,,,,,,,,,,,,,,,,,,,,,,,,,,,,,01,005,2022-09-23_10h28.53.571,test2,2022.2.4,59.811744686767156,
0,0,0,0,158,0,158,0,2668.138449602,2668.138449602,2668.138449602,2668.138449602,2668.138449602,2668.138449602,2668.138449602,1,1,azul,1,['N_B'],2677.0316779610002,2677.0316779610002,2677.0316779610002,2677.0316779610002,2679.0672110650003,2679.0672110650003,2679.0672110650003,2679.0672110650003,2679.0672110650003,2679.0672110650003,2679.0672110650003,2679.0672110650003,2681.1025507080003,2681.1025507080003,2681.1025507080003,2681.1025507080003,,,,,,,,,,,,,,,,,,,,,,,,,,,,,,,,,,,,,,,01,005,2022-09-23_10h28.53.571,test2,2022.2.4,59.811744686767156,
0,0,0,0,159,0,159,0,2681.1025507080003,2681.1025507080003,2681.1025507080003,2681.1025507080003,2681.1025507080003,2681.1025507080003,2681.1025507080003,1,-1,azul,0,['N_A'],2688.0600002230003,2688.0600002230003,2688.0600002230003,2688.0600002230003,2690.0954871520003,2690.0954871520003,2690.0954871520003,2690.0954871520003,2690.0954871520003,2690.0954871520003,2690.0954871520003,2690.0954871520003,2692.1318831380004,2692.1318831380004,2692.1318831380004,2692.1318831380004,,,,,,,,,,,,,,,,,,,,,,,,,,,,,,,,,,,,,,,01,005,2022-09-23_10h28.53.571,test2,2022.2.4,59.811744686767156,
0,0,0,0,160,0,160,0,2692.1318831380004,2692.1318831380004,2692.1318831380004,2692.1318831380004,2692.1318831380004,2692.1318831380004,2692.1318831380004,1,-1,rojo,1,['N_A'],2694.40014882,2694.40014882,2694.40014882,2694.40014882,2696.436736741,2696.436736741,2696.436736741,2696.436736741,2696.436736741,2696.436736741,2696.436736741,2696.436736741,2698.4712354050002,2698.4712354050002,2698.4712354050002,2698.4712354050002,,,,,,,,,,,,,,,,,,,,,,,,,,,,,,,,,,,,,,,01,005,2022-09-23_10h28.53.571,test2,2022.2.4,59.811744686767156,
0,0,0,0,161,0,161,0,2698.4712354050002,2698.4712354050002,2698.4712354050002,2698.4712354050002,2698.4712354050002,2698.4712354050002,2698.4712354050002,1,1,rojo,1,['N_A'],2700.757664059,2700.757664059,2700.757664059,2700.757664059,2702.793241714,2702.793241714,2702.793241714,2702.793241714,2702.793241714,2702.793241714,2702.793241714,2702.793241714,2704.8285741490004,2704.8285741490004,2704.8285741490004,2704.8285741490004,,,,,,,,,,,,,,,,,,,,,,,,,,,,,,,,,,,,,,,01,005,2022-09-23_10h28.53.571,test2,2022.2.4,59.811744686767156,
0,0,0,0,162,0,162,0,2704.8285741490004,2704.8285741490004,2704.8285741490004,2704.8285741490004,2704.8285741490004,2704.8285741490004,2704.8285741490004,1,-1,rojo,0,['N_B'],2706.713750442,2706.713750442,2706.713750442,2706.713750442,2708.7492967470002,2708.7492967470002,2708.7492967470002,2708.7492967470002,2708.7492967470002,2708.7492967470002,2708.7492967470002,2708.7492967470002,2710.785107571,2710.785107571,2710.785107571,2710.785107571,,,,,,,,,,,,,,,,,,,,,,,,,,,,,,,,,,,,,,,01,005,2022-09-23_10h28.53.571,test2,2022.2.4,59.811744686767156,
0,0,0,0,163,0,163,0,2710.785107571,2710.785107571,2710.785107571,2710.785107571,2710.785107571,2710.785107571,2710.785107571,1,1,azul,1,['N_B'],2712.420595634,2712.420595634,2712.420595634,2712.420595634,2714.4558740250004,2714.4558740250004,2714.4558740250004,2714.4558740250004,2714.4558740250004,2714.4558740250004,2714.4558740250004,2714.4558740250004,2716.491804147,2716.491804147,2716.491804147,2716.491804147,,,,,,,,,,,,,,,,,,,,,,,,,,,,,,,,,,,,,,,01,005,2022-09-23_10h28.53.571,test2,2022.2.4,59.811744686767156,
0,0,0,0,164,0,164,0,2716.491804147,2716.491804147,2716.491804147,2716.491804147,2716.491804147,2716.491804147,2716.491804147,1,-1,azul,0,['N_A'],2718.910630246,2718.910630246,2718.910630246,2718.910630246,2720.946232667,2720.946232667,2720.946232667,2720.946232667,2720.946232667,2720.946232667,2720.946232667,2720.946232667,2722.9829540270002,2722.9829540270002,2722.9829540270002,2722.9829540270002,,,,,,,,,,,,,,,,,,,,,,,,,,,,,,,,,,,,,,,01,005,2022-09-23_10h28.53.571,test2,2022.2.4,59.811744686767156,
0,0,0,0,165,0,165,0,2722.9829540270002,2722.9829540270002,2722.9829540270002,2722.9829540270002,2722.9829540270002,2722.9829540270002,2722.9829540270002,1,1,rojo,1,['N_A'],2724.4664160820003,2724.4664160820003,2724.4664160820003,2724.4664160820003,2726.502319316,2726.502319316,2726.502319316,2726.502319316,2726.502319316,2726.502319316,2726.502319316,2726.502319316,2728.5381309420004,2728.5381309420004,2728.5381309420004,2728.5381309420004,,,,,,,,,,,,,,,,,,,,,,,,,,,,,,,,,,,,,,,01,005,2022-09-23_10h28.53.571,test2,2022.2.4,59.811744686767156,
0,0,0,0,166,0,166,0,2728.5381309420004,2728.5381309420004,2728.5381309420004,2728.5381309420004,2728.5381309420004,2728.5381309420004,2728.5381309420004,1,-1,rojo,0,['N_B'],2729.9227391010004,2729.9227391010004,2729.9227391010004,2729.9227391010004,2731.9591845100003,2731.9591845100003,2731.9591845100003,2731.9591845100003,2731.9591845100003,2731.9591845100003,2731.9591845100003,2731.9591845100003,2733.993821544,2733.993821544,2733.993821544,2733.993821544,,,,,,,,,,,,,,,,,,,,,,,,,,,,,,,,,,,,,,,01,005,2022-09-23_10h28.53.571,test2,2022.2.4,59.811744686767156,
0,0,0,0,167,0,167,0,2733.993821544,2733.993821544,2733.993821544,2733.993821544,2733.993821544,2733.993821544,2733.993821544,1,1,azul,1,['N_B'],2735.3622798260003,2735.3622798260003,2735.3622798260003,2735.3622798260003,2737.39797355,2737.39797355,2737.39797355,2737.39797355,2737.39797355,2737.39797355,2737.39797355,2737.39797355,2739.433064019,2739.433064019,2739.433064019,2739.433064019,,,,,,,,,,,,,,,,,,,,,,,,,,,,,,,,,,,,,,,01,005,2022-09-23_10h28.53.571,test2,2022.2.4,59.811744686767156,
0,0,0,0,168,0,168,0,2739.433064019,2739.433064019,2739.433064019,2739.433064019,2739.433064019,2739.433064019,2739.433064019,1,-1,azul,0,['N_A'],2740.818666767,2740.818666767,2740.818666767,2740.818666767,2742.853695049,2742.853695049,2742.853695049,2742.853695049,2742.853695049,2742.853695049,2742.853695049,2742.853695049,2744.889029371,2744.889029371,2744.889029371,2744.889029371,,,,,,,,,,,,,,,,,,,,,,,,,,,,,,,,,,,,,,,01,005,2022-09-23_10h28.53.571,test2,2022.2.4,59.811744686767156,
0,0,0,0,169,0,169,0,2744.889029371,2744.889029371,2744.889029371,2744.889029371,2744.889029371,2744.889029371,2744.889029371,-1,1,azul,1,['N_A'],2746.657870165,2746.657870165,2746.657870165,2746.657870165,2748.6937234270004,2748.6937234270004,2748.6937234270004,2748.6937234270004,2748.6937234270004,2748.6937234270004,2748.6937234270004,2748.6937234270004,2750.728867455,2750.728867455,2750.728867455,2750.728867455,,,,,,,,,,,,,,,,,,,,,,,,,,,,,,,,,,,,,,,01,005,2022-09-23_10h28.53.571,test2,2022.2.4,59.811744686767156,
0,0,0,0,170,0,170,0,2750.728867455,2750.728867455,2750.728867455,2750.728867455,2750.728867455,2750.728867455,2750.728867455,-1,-1,azul,0,['N_B'],2752.147535518,2752.147535518,2752.147535518,2752.147535518,2754.183444818,2754.183444818,2754.183444818,2754.183444818,2754.183444818,2754.183444818,2754.183444818,2754.183444818,2756.2182810510003,2756.2182810510003,2756.2182810510003,2756.2182810510003,,,,,,,,,,,,,,,,,,,,,,,,,,,,,,,,,,,,,,,01,005,2022-09-23_10h28.53.571,test2,2022.2.4,59.811744686767156,
0,0,0,0,171,0,171,0,2756.2182810510003,2756.2182810510003,2756.2182810510003,2756.2182810510003,2756.2182810510003,2756.2182810510003,2756.2182810510003,1,-1,azul,0,['N_A'],2758.1041290030003,2758.1041290030003,2758.1041290030003,2758.1041290030003,2760.139669872,2760.139669872,2760.139669872,2760.139669872,2760.139669872,2760.139669872,2760.139669872,2760.139669872,2762.175257415,2762.175257415,2762.175257415,2762.175257415,,,,,,,,,,,,,,,,,,,,,,,,,,,,,,,,,,,,,,,01,005,2022-09-23_10h28.53.571,test2,2022.2.4,59.811744686767156,
0,0,0,0,172,0,172,0,2762.175257415,2762.175257415,2762.175257415,2762.175257415,2762.175257415,2762.175257415,2762.175257415,-1,-1,azul,0,['N_B'],2764.862028937,2764.862028937,2764.862028937,2764.862028937,2766.897554598,2766.897554598,2766.897554598,2766.897554598,2766.897554598,2766.897554598,2766.897554598,2766.897554598,2768.932441896,2768.932441896,2768.932441896,2768.932441896,,,,,,,,,,,,,,,,,,,,,,,,,,,,,,,,,,,,,,,01,005,2022-09-23_10h28.53.571,test2,2022.2.4,59.811744686767156,
0,0,0,0,173,0,173,0,2768.932441896,2768.932441896,2768.932441896,2768.932441896,2768.932441896,2768.932441896,2768.932441896,1,-1,azul,0,['N_A'],2771.118899031,2771.118899031,2771.118899031,2771.118899031,2773.154695824,2773.154695824,2773.154695824,2773.154695824,2773.154695824,2773.154695824,2773.154695824,2773.154695824,2775.189271102,2775.189271102,2775.189271102,2775.189271102,,,,,,,,,,,,,,,,,,,,,,,,,,,,,,,,,,,,,,,01,005,2022-09-23_10h28.53.571,test2,2022.2.4,59.811744686767156,
0,0,0,0,174,0,174,0,2775.189271102,2775.189271102,2775.189271102,2775.189271102,2775.189271102,2775.189271102,2775.189271102,1,-1,rojo,1,['N_A'],2776.8084449460002,2776.8084449460002,2776.8084449460002,2776.8084449460002,2778.843543428,2778.843543428,2778.843543428,2778.843543428,2778.843543428,2778.843543428,2778.843543428,2778.843543428,2780.8790710370004,2780.8790710370004,2780.8790710370004,2780.8790710370004,,,,,,,,,,,,,,,,,,,,,,,,,,,,,,,,,,,,,,,01,005,2022-09-23_10h28.53.571,test2,2022.2.4,59.811744686767156,
0,0,0,0,175,0,175,0,2780.8790710370004,2780.8790710370004,2780.8790710370004,2780.8790710370004,2780.8790710370004,2780.8790710370004,2780.8790710370004,-1,1,azul,1,['N_A'],2782.363667354,2782.363667354,2782.363667354,2782.363667354,2784.400210964,2784.400210964,2784.400210964,2784.400210964,2784.400210964,2784.400210964,2784.400210964,2784.400210964,2786.435051074,2786.435051074,2786.435051074,2786.435051074,,,,,,,,,,,,,,,,,,,,,,,,,,,,,,,,,,,,,,,01,005,2022-09-23_10h28.53.571,test2,2022.2.4,59.811744686767156,
0,0,0,0,176,0,176,0,2786.435051074,2786.435051074,2786.435051074,2786.435051074,2786.435051074,2786.435051074,2786.435051074,1,-1,rojo,0,['N_B'],2788.921355465,2788.921355465,2788.921355465,2788.921355465,2790.9567717980003,2790.9567717980003,2790.9567717980003,2790.9567717980003,2790.9567717980003,2790.9567717980003,2790.9567717980003,2790.9567717980003,2792.9928839900003,2792.9928839900003,2792.9928839900003,2792.9928839900003,,,,,,,,,,,,,,,,,,,,,,,,,,,,,,,,,,,,,,,01,005,2022-09-23_10h28.53.571,test2,2022.2.4,59.811744686767156,
0,0,0,0,177,0,177,0,2792.9928839900003,2792.9928839900003,2792.9928839900003,2792.9928839900003,2792.9928839900003,2792.9928839900003,2792.9928839900003,1,1,azul,1,['N_B'],2794.911070211,2794.911070211,2794.911070211,2794.911070211,2796.947203482,2796.947203482,2796.947203482,2796.947203482,2796.947203482,2796.947203482,2796.947203482,2796.947203482,2798.982137473,2798.982137473,2798.982137473,2798.982137473,,,,,,,,,,,,,,,,,,,,,,,,,,,,,,,,,,,,,,,01,005,2022-09-23_10h28.53.571,test2,2022.2.4,59.811744686767156,
0,0,0,0,178,0,178,0,2798.982137473,2798.982137473,2798.982137473,2798.982137473,2798.982137473,2798.982137473,2798.982137473,1,-1,azul,0,['N_A'],2800.4006036600003,2800.4006036600003,2800.4006036600003,2800.4006036600003,2802.4363054160003,2802.4363054160003,2802.4363054160003,2802.4363054160003,2802.4363054160003,2802.4363054160003,2802.4363054160003,2802.4363054160003,2804.471660129,2804.471660129,2804.471660129,2804.471660129,,,,,,,,,,,,,,,,,,,,,,,,,,,,,,,,,,,,,,,01,005,2022-09-23_10h28.53.571,test2,2022.2.4,59.811744686767156,
0,0,0,0,179,0,179,0,2804.471660129,2804.471660129,2804.471660129,2804.471660129,2804.471660129,2804.471660129,2804.471660129,1,-1,rojo,1,['N_A'],2805.8901077640003,2805.8901077640003,2805.8901077640003,2805.8901077640003,2807.9264121210003,2807.9264121210003,2807.9264121210003,2807.9264121210003,2807.9264121210003,2807.9264121210003,2807.9264121210003,2807.9264121210003,2809.9611183770003,2809.9611183770003,2809.9611183770003,2809.9611183770003,,,,,,,,,,,,,,,,,,,,,,,,,,,,,,,,,,,,,,,01,005,2022-09-23_10h28.53.571,test2,2022.2.4,59.811744686767156,
0,0,0,0,180,0,180,0,2809.9611183770003,2809.9611183770003,2809.9611183770003,2809.9611183770003,2809.9611183770003,2809.9611183770003,2809.9611183770003,1,1,rojo,1,['N_A'],2811.4798373090002,2811.4798373090002,2811.4798373090002,2811.4798373090002,2813.497928495,2813.497928495,2813.497928495,2813.497928495,2813.497928495,2813.497928495,2813.497928495,2813.497928495,2815.5341011620003,2815.5341011620003,2815.5341011620003,2815.5341011620003,,,,,,,,,,,,,,,,,,,,,,,,,,,,,,,,,,,,,,,01,005,2022-09-23_10h28.53.571,test2,2022.2.4,59.811744686767156,
0,0,0,0,181,0,181,0,2815.5341011620003,2815.5341011620003,2815.5341011620003,2815.5341011620003,2815.5341011620003,2815.5341011620003,2815.5341011620003,1,1,rojo,1,['N_A'],2817.035622762,2817.035622762,2817.035622762,2817.035622762,2819.0540499060003,2819.0540499060003,2819.0540499060003,2819.0540499060003,2819.0540499060003,2819.0540499060003,2819.0540499060003,2819.0540499060003,2821.089980908,2821.089980908,2821.089980908,2821.089980908,,,,,,,,,,,,,,,,,,,,,,,,,,,,,,,,,,,,,,,01,005,2022-09-23_10h28.53.571,test2,2022.2.4,59.811744686767156,
0,0,0,0,182,0,182,0,2821.089980908,2821.089980908,2821.089980908,2821.089980908,2821.089980908,2821.089980908,2821.089980908,1,1,rojo,1,['N_A'],2822.608463089,2822.608463089,2822.608463089,2822.608463089,2824.6442612580004,2824.6442612580004,2824.6442612580004,2824.6442612580004,2824.6442612580004,2824.6442612580004,2824.6442612580004,2824.6442612580004,2826.679582357,2826.679582357,2826.679582357,2826.679582357,,,,,,,,,,,,,,,,,,,,,,,,,,,,,,,,,,,,,,,01,005,2022-09-23_10h28.53.571,test2,2022.2.4,59.811744686767156,
0,0,0,0,183,0,183,0,2826.679582357,2826.679582357,2826.679582357,2826.679582357,2826.679582357,2826.679582357,2826.679582357,1,-1,rojo,0,['N_B'],2829.166507163,2829.166507163,2829.166507163,2829.166507163,2831.201539128,2831.201539128,2831.201539128,2831.201539128,2831.201539128,2831.201539128,2831.201539128,2831.201539128,2833.2369677710003,2833.2369677710003,2833.2369677710003,2833.2369677710003,,,,,,,,,,,,,,,,,,,,,,,,,,,,,,,,,,,,,,,01,005,2022-09-23_10h28.53.571,test2,2022.2.4,59.811744686767156,
0,0,0,0,184,0,184,0,2833.2369677710003,2833.2369677710003,2833.2369677710003,2833.2369677710003,2833.2369677710003,2833.2369677710003,2833.2369677710003,1,-1,azul,1,['N_B'],2835.0224878980002,2835.0224878980002,2835.0224878980002,2835.0224878980002,2837.05827458,2837.05827458,2837.05827458,2837.05827458,2837.05827458,2837.05827458,2837.05827458,2837.05827458,2839.0942605100004,2839.0942605100004,2839.0942605100004,2839.0942605100004,,,,,,,,,,,,,,,,,,,,,,,,,,,,,,,,,,,,,,,01,005,2022-09-23_10h28.53.571,test2,2022.2.4,59.811744686767156,
0,0,0,0,185,0,185,0,2839.0942605100004,2839.0942605100004,2839.0942605100004,2839.0942605100004,2839.0942605100004,2839.0942605100004,2839.0942605100004,-1,-1,rojo,0,['N_A'],2840.911616656,2840.911616656,2840.911616656,2840.911616656,2842.947295809,2842.947295809,2842.947295809,2842.947295809,2842.947295809,2842.947295809,2842.947295809,2842.947295809,2844.9830582100003,2844.9830582100003,2844.9830582100003,2844.9830582100003,,,,,,,,,,,,,,,,,,,,,,,,,,,,,,,,,,,,,,,01,005,2022-09-23_10h28.53.571,test2,2022.2.4,59.811744686767156,
