trials_2.thisRepN,trials_2.thisTrialN,trials_2.thisN,trials_2.thisIndex,trials.thisRepN,trials.thisTrialN,trials.thisN,trials.thisIndex,Instrucción2.started,N_A_4.started,N_B_4.started,Exitos_3.started,Dias_3.started,Stimuli_1.started,Stimuli_2.started,Transitions,Rewards,Mode,Stay,Neighbour,Stimuli_3.started,Modo.started,Dias2.started,Exitos2.started,Stimuli_3.stopped,Modo.stopped,Dias2.stopped,Exitos2.stopped,Reward.started,Stimuli_reward.started,Exitos3.started,Dias3.started,Reward.stopped,Stimuli_reward.stopped,Exitos3.stopped,Dias3.stopped,Cue_text.started,Stimuli_4.started,Exitos4.started,Dias4.started,Stimuli_3_3.started,Stimuli_2_3.started,Instrucción.started,N_A.started,N_B.started,N_C.started,Exitos_2.started,Dias_2.started,Stimuli_1_3.started,Stimuli_3_2.started,Stimuli_2_2.started,Pregunta.started,N_A_2.started,N_B_2.started,N_C_2.started,Exitos5.started,Dias5.started,Stimuli_1_2.started,Resp_final_1,Modo2.started,Modo1.started,Pregunta_4.started,Modo3.started,Exitos7.started,Dias6.started,Resp_final_2,Modo1_2.started,Pregunta_3.started,Modo2_2.started,Exitos8.started,Dias7.started,Resp_final_3,Mensaje_Final2.started,Exitos6.started,participant,session,date,expName,psychopyVersion,frameRate,
0,0,0,0,0,0,0,0,432.70220459400025,432.70220459400025,432.70220459400025,432.70220459400025,432.70220459400025,432.70220459400025,432.70220459400025,0,0,0,0,['N_A'],444.7985879890002,444.7985879890002,444.7985879890002,444.7985879890002,446.8340416660003,446.8340416660003,446.8340416660003,446.8340416660003,446.8340416660003,446.8340416660003,446.8340416660003,446.8340416660003,448.8703885270006,448.8703885270006,448.8703885270006,448.8703885270006,,,,,,,,,,,,,,,,,,,,,,,,,,,,,,,,,,,,,,,03,006,2022-09-23_11h44.53.692,test2,2022.2.4,59.82780027509361,
0,0,0,0,1,0,1,0,448.8703885270006,448.8703885270006,448.8703885270006,448.8703885270006,448.8703885270006,448.8703885270006,448.8703885270006,-1,1,azul,1,['N_A'],457.8291440640005,457.8291440640005,457.8291440640005,457.8291440640005,459.8655997980004,459.8655997980004,459.8655997980004,459.8655997980004,459.8655997980004,459.8655997980004,459.8655997980004,459.8655997980004,461.90038475300025,461.90038475300025,461.90038475300025,461.90038475300025,,,,,,,,,,,,,,,,,,,,,,,,,,,,,,,,,,,,,,,03,006,2022-09-23_11h44.53.692,test2,2022.2.4,59.82780027509361,
0,0,0,0,2,0,2,0,461.90038475300025,461.90038475300025,461.90038475300025,461.90038475300025,461.90038475300025,461.90038475300025,461.90038475300025,1,-1,rojo,1,['N_A'],468.6581437550003,468.6581437550003,468.6581437550003,468.6581437550003,470.6939635630006,470.6939635630006,470.6939635630006,470.6939635630006,470.6939635630006,470.6939635630006,470.6939635630006,470.6939635630006,472.7293618350004,472.7293618350004,472.7293618350004,472.7293618350004,,,,,,,,,,,,,,,,,,,,,,,,,,,,,,,,,,,,,,,03,006,2022-09-23_11h44.53.692,test2,2022.2.4,59.82780027509361,
0,0,0,0,3,0,3,0,472.7293618350004,472.7293618350004,472.7293618350004,472.7293618350004,472.7293618350004,472.7293618350004,472.7293618350004,1,1,rojo,1,['N_A'],474.61520977800046,474.61520977800046,474.61520977800046,474.61520977800046,476.634302683,476.634302683,476.634302683,476.634302683,476.634302683,476.634302683,476.634302683,476.634302683,478.66927869200026,478.66927869200026,478.66927869200026,478.66927869200026,,,,,,,,,,,,,,,,,,,,,,,,,,,,,,,,,,,,,,,03,006,2022-09-23_11h44.53.692,test2,2022.2.4,59.82780027509361,
0,0,0,0,4,0,4,0,478.66927869200026,478.66927869200026,478.66927869200026,478.66927869200026,478.66927869200026,478.66927869200026,478.66927869200026,1,1,rojo,1,['N_A'],481.0550444600003,481.0550444600003,481.0550444600003,481.0550444600003,483.0912645240005,483.0912645240005,483.0912645240005,483.0912645240005,483.0912645240005,483.0912645240005,483.0912645240005,483.0912645240005,485.1259007429999,485.1259007429999,485.1259007429999,485.1259007429999,,,,,,,,,,,,,,,,,,,,,,,,,,,,,,,,,,,,,,,03,006,2022-09-23_11h44.53.692,test2,2022.2.4,59.82780027509361,
0,0,0,0,5,0,5,0,485.1259007429999,485.1259007429999,485.1259007429999,485.1259007429999,485.1259007429999,485.1259007429999,485.1259007429999,1,-1,rojo,1,['N_A'],486.9446432929999,486.9446432929999,486.9446432929999,486.9446432929999,488.98114735800027,488.98114735800027,488.98114735800027,488.98114735800027,488.98114735800027,488.98114735800027,488.98114735800027,488.98114735800027,491.0158219240002,491.0158219240002,491.0158219240002,491.0158219240002,,,,,,,,,,,,,,,,,,,,,,,,,,,,,,,,,,,,,,,03,006,2022-09-23_11h44.53.692,test2,2022.2.4,59.82780027509361,
0,0,0,0,6,0,6,0,491.0158219240002,491.0158219240002,491.0158219240002,491.0158219240002,491.0158219240002,491.0158219240002,491.0158219240002,1,-1,rojo,1,['N_A'],495.5547373420004,495.5547373420004,495.5547373420004,495.5547373420004,497.5907154740007,497.5907154740007,497.5907154740007,497.5907154740007,497.5907154740007,497.5907154740007,497.5907154740007,497.5907154740007,499.62526064099984,499.62526064099984,499.62526064099984,499.62526064099984,,,,,,,,,,,,,,,,,,,,,,,,,,,,,,,,,,,,,,,03,006,2022-09-23_11h44.53.692,test2,2022.2.4,59.82780027509361,
0,0,0,0,7,0,7,0,499.62526064099984,499.62526064099984,499.62526064099984,499.62526064099984,499.62526064099984,499.62526064099984,499.62526064099984,1,-1,rojo,1,['N_A'],501.3276515870002,501.3276515870002,501.3276515870002,501.3276515870002,503.36374992499987,503.36374992499987,503.36374992499987,503.36374992499987,503.36374992499987,503.36374992499987,503.36374992499987,503.36374992499987,505.39861103900057,505.39861103900057,505.39861103900057,505.39861103900057,,,,,,,,,,,,,,,,,,,,,,,,,,,,,,,,,,,,,,,03,006,2022-09-23_11h44.53.692,test2,2022.2.4,59.82780027509361,
0,0,0,0,8,0,8,0,505.39861103900057,505.39861103900057,505.39861103900057,505.39861103900057,505.39861103900057,505.39861103900057,505.39861103900057,-1,1,azul,1,['N_A'],507.6683945949999,507.6683945949999,507.6683945949999,507.6683945949999,509.7038568140006,509.7038568140006,509.7038568140006,509.7038568140006,509.7038568140006,509.7038568140006,509.7038568140006,509.7038568140006,511.73888298600014,511.73888298600014,511.73888298600014,511.73888298600014,,,,,,,,,,,,,,,,,,,,,,,,,,,,,,,,,,,,,,,03,006,2022-09-23_11h44.53.692,test2,2022.2.4,59.82780027509361,
0,0,0,0,9,0,9,0,511.73888298600014,511.73888298600014,511.73888298600014,511.73888298600014,511.73888298600014,511.73888298600014,511.73888298600014,-1,-1,azul,1,['N_A'],513.4239575010006,513.4239575010006,513.4239575010006,513.4239575010006,515.4594856610001,515.4594856610001,515.4594856610001,515.4594856610001,515.4594856610001,515.4594856610001,515.4594856610001,515.4594856610001,517.4955266690004,517.4955266690004,517.4955266690004,517.4955266690004,,,,,,,,,,,,,,,,,,,,,,,,,,,,,,,,,,,,,,,03,006,2022-09-23_11h44.53.692,test2,2022.2.4,59.82780027509361,
0,0,0,0,10,0,10,0,517.4955266690004,517.4955266690004,517.4955266690004,517.4955266690004,517.4955266690004,517.4955266690004,517.4955266690004,1,1,rojo,1,['N_A'],523.5191270969999,523.5191270969999,523.5191270969999,523.5191270969999,525.5551428050003,525.5551428050003,525.5551428050003,525.5551428050003,525.5551428050003,525.5551428050003,525.5551428050003,525.5551428050003,527.5898085260005,527.5898085260005,527.5898085260005,527.5898085260005,,,,,,,,,,,,,,,,,,,,,,,,,,,,,,,,,,,,,,,03,006,2022-09-23_11h44.53.692,test2,2022.2.4,59.82780027509361,
0,0,0,0,11,0,11,0,527.5898085260005,527.5898085260005,527.5898085260005,527.5898085260005,527.5898085260005,527.5898085260005,527.5898085260005,1,-1,rojo,0,['N_B'],529.60840672,529.60840672,529.60840672,529.60840672,531.6452136190001,531.6452136190001,531.6452136190001,531.6452136190001,531.6452136190001,531.6452136190001,531.6452136190001,531.6452136190001,533.6803656540005,533.6803656540005,533.6803656540005,533.6803656540005,,,,,,,,,,,,,,,,,,,,,,,,,,,,,,,,,,,,,,,03,006,2022-09-23_11h44.53.692,test2,2022.2.4,59.82780027509361,
0,0,0,0,12,0,12,0,533.6803656540005,533.6803656540005,533.6803656540005,533.6803656540005,533.6803656540005,533.6803656540005,533.6803656540005,-1,1,rojo,1,['N_B'],535.4324300730004,535.4324300730004,535.4324300730004,535.4324300730004,537.4669942910004,537.4669942910004,537.4669942910004,537.4669942910004,537.4669942910004,537.4669942910004,537.4669942910004,537.4669942910004,539.503272125,539.503272125,539.503272125,539.503272125,,,,,,,,,,,,,,,,,,,,,,,,,,,,,,,,,,,,,,,03,006,2022-09-23_11h44.53.692,test2,2022.2.4,59.82780027509361,
0,0,0,0,13,0,13,0,539.503272125,539.503272125,539.503272125,539.503272125,539.503272125,539.503272125,539.503272125,1,-1,azul,1,['N_B'],541.6214969160001,541.6214969160001,541.6214969160001,541.6214969160001,543.6575938290007,543.6575938290007,543.6575938290007,543.6575938290007,543.6575938290007,543.6575938290007,543.6575938290007,543.6575938290007,545.6932555390003,545.6932555390003,545.6932555390003,545.6932555390003,,,,,,,,,,,,,,,,,,,,,,,,,,,,,,,,,,,,,,,03,006,2022-09-23_11h44.53.692,test2,2022.2.4,59.82780027509361,
0,0,0,0,14,0,14,0,545.6932555390003,545.6932555390003,545.6932555390003,545.6932555390003,545.6932555390003,545.6932555390003,545.6932555390003,-1,-1,rojo,1,['N_B'],549.74727059,549.74727059,549.74727059,549.74727059,551.7828000540003,551.7828000540003,551.7828000540003,551.7828000540003,551.7828000540003,551.7828000540003,551.7828000540003,551.7828000540003,553.8189948360005,553.8189948360005,553.8189948360005,553.8189948360005,,,,,,,,,,,,,,,,,,,,,,,,,,,,,,,,,,,,,,,03,006,2022-09-23_11h44.53.692,test2,2022.2.4,59.82780027509361,
0,0,0,0,15,0,15,0,553.8189948360005,553.8189948360005,553.8189948360005,553.8189948360005,553.8189948360005,553.8189948360005,553.8189948360005,1,-1,azul,0,['N_A'],555.5709902859999,555.5709902859999,555.5709902859999,555.5709902859999,557.606986838,557.606986838,557.606986838,557.606986838,557.606986838,557.606986838,557.606986838,557.606986838,559.6415512829999,559.6415512829999,559.6415512829999,559.6415512829999,,,,,,,,,,,,,,,,,,,,,,,,,,,,,,,,,,,,,,,03,006,2022-09-23_11h44.53.692,test2,2022.2.4,59.82780027509361,
0,0,0,0,16,0,16,0,559.6415512829999,559.6415512829999,559.6415512829999,559.6415512829999,559.6415512829999,559.6415512829999,559.6415512829999,1,1,rojo,1,['N_A'],561.0598674700004,561.0598674700004,561.0598674700004,561.0598674700004,563.095981075,563.095981075,563.095981075,563.095981075,563.095981075,563.095981075,563.095981075,563.095981075,565.131522742,565.131522742,565.131522742,565.131522742,,,,,,,,,,,,,,,,,,,,,,,,,,,,,,,,,,,,,,,03,006,2022-09-23_11h44.53.692,test2,2022.2.4,59.82780027509361,
0,0,0,0,17,0,17,0,565.131522742,565.131522742,565.131522742,565.131522742,565.131522742,565.131522742,565.131522742,-1,-1,azul,1,['N_A'],566.5829728380004,566.5829728380004,566.5829728380004,566.5829728380004,568.6178809660005,568.6178809660005,568.6178809660005,568.6178809660005,568.6178809660005,568.6178809660005,568.6178809660005,568.6178809660005,570.654002839,570.654002839,570.654002839,570.654002839,,,,,,,,,,,,,,,,,,,,,,,,,,,,,,,,,,,,,,,03,006,2022-09-23_11h44.53.692,test2,2022.2.4,59.82780027509361,
0,0,0,0,18,0,18,0,570.654002839,570.654002839,570.654002839,570.654002839,570.654002839,570.654002839,570.654002839,1,-1,rojo,1,['N_A'],572.3228717390002,572.3228717390002,572.3228717390002,572.3228717390002,574.3576771040007,574.3576771040007,574.3576771040007,574.3576771040007,574.3576771040007,574.3576771040007,574.3576771040007,574.3576771040007,576.3938737480003,576.3938737480003,576.3938737480003,576.3938737480003,,,,,,,,,,,,,,,,,,,,,,,,,,,,,,,,,,,,,,,03,006,2022-09-23_11h44.53.692,test2,2022.2.4,59.82780027509361,
0,0,0,0,19,0,19,0,576.3938737480003,576.3938737480003,576.3938737480003,576.3938737480003,576.3938737480003,576.3938737480003,576.3938737480003,-1,1,azul,1,['N_A'],577.8791406549999,577.8791406549999,577.8791406549999,577.8791406549999,579.9143901220004,579.9143901220004,579.9143901220004,579.9143901220004,579.9143901220004,579.9143901220004,579.9143901220004,579.9143901220004,581.9503579850007,581.9503579850007,581.9503579850007,581.9503579850007,,,,,,,,,,,,,,,,,,,,,,,,,,,,,,,,,,,,,,,03,006,2022-09-23_11h44.53.692,test2,2022.2.4,59.82780027509361,
0,0,0,0,20,0,20,0,581.9503579850007,581.9503579850007,581.9503579850007,581.9503579850007,581.9503579850007,581.9503579850007,581.9503579850007,1,-1,rojo,1,['N_A'],583.3684950400002,583.3684950400002,583.3684950400002,583.3684950400002,585.4034234780001,585.4034234780001,585.4034234780001,585.4034234780001,585.4034234780001,585.4034234780001,585.4034234780001,585.4034234780001,587.4393721269998,587.4393721269998,587.4393721269998,587.4393721269998,,,,,,,,,,,,,,,,,,,,,,,,,,,,,,,,,,,,,,,03,006,2022-09-23_11h44.53.692,test2,2022.2.4,59.82780027509361,
0,0,0,0,21,0,21,0,587.4393721269998,587.4393721269998,587.4393721269998,587.4393721269998,587.4393721269998,587.4393721269998,587.4393721269998,1,1,rojo,1,['N_A'],589.0081165420006,589.0081165420006,589.0081165420006,589.0081165420006,591.0437023820004,591.0437023820004,591.0437023820004,591.0437023820004,591.0437023820004,591.0437023820004,591.0437023820004,591.0437023820004,593.079035148,593.079035148,593.079035148,593.079035148,,,,,,,,,,,,,,,,,,,,,,,,,,,,,,,,,,,,,,,03,006,2022-09-23_11h44.53.692,test2,2022.2.4,59.82780027509361,
0,0,0,0,22,0,22,0,593.079035148,593.079035148,593.079035148,593.079035148,593.079035148,593.079035148,593.079035148,1,-1,rojo,1,['N_A'],594.5309834670006,594.5309834670006,594.5309834670006,594.5309834670006,596.5659251080006,596.5659251080006,596.5659251080006,596.5659251080006,596.5659251080006,596.5659251080006,596.5659251080006,596.5659251080006,598.6018119320006,598.6018119320006,598.6018119320006,598.6018119320006,,,,,,,,,,,,,,,,,,,,,,,,,,,,,,,,,,,,,,,03,006,2022-09-23_11h44.53.692,test2,2022.2.4,59.82780027509361,
0,0,0,0,23,0,23,0,598.6018119320006,598.6018119320006,598.6018119320006,598.6018119320006,598.6018119320006,598.6018119320006,598.6018119320006,-1,-1,azul,0,['N_B'],602.0550375310004,602.0550375310004,602.0550375310004,602.0550375310004,604.0915223110005,604.0915223110005,604.0915223110005,604.0915223110005,604.0915223110005,604.0915223110005,604.0915223110005,604.0915223110005,606.1263187109998,606.1263187109998,606.1263187109998,606.1263187109998,,,,,,,,,,,,,,,,,,,,,,,,,,,,,,,,,,,,,,,03,006,2022-09-23_11h44.53.692,test2,2022.2.4,59.82780027509361,
0,0,0,0,24,0,24,0,606.1263187109998,606.1263187109998,606.1263187109998,606.1263187109998,606.1263187109998,606.1263187109998,606.1263187109998,1,1,azul,1,['N_B'],607.6784902580002,607.6784902580002,607.6784902580002,607.6784902580002,609.7139046330003,609.7139046330003,609.7139046330003,609.7139046330003,609.7139046330003,609.7139046330003,609.7139046330003,609.7139046330003,611.7493927790001,611.7493927790001,611.7493927790001,611.7493927790001,,,,,,,,,,,,,,,,,,,,,,,,,,,,,,,,,,,,,,,03,006,2022-09-23_11h44.53.692,test2,2022.2.4,59.82780027509361,
0,0,0,0,25,0,25,0,611.7493927790001,611.7493927790001,611.7493927790001,611.7493927790001,611.7493927790001,611.7493927790001,611.7493927790001,-1,-1,rojo,1,['N_B'],613.2337408940002,613.2337408940002,613.2337408940002,613.2337408940002,615.2698916939999,615.2698916939999,615.2698916939999,615.2698916939999,615.2698916939999,615.2698916939999,615.2698916939999,615.2698916939999,617.3057519160002,617.3057519160002,617.3057519160002,617.3057519160002,,,,,,,,,,,,,,,,,,,,,,,,,,,,,,,,,,,,,,,03,006,2022-09-23_11h44.53.692,test2,2022.2.4,59.82780027509361,
0,0,0,0,26,0,26,0,617.3057519160002,617.3057519160002,617.3057519160002,617.3057519160002,617.3057519160002,617.3057519160002,617.3057519160002,1,-1,azul,0,['N_A'],620.2253373120002,620.2253373120002,620.2253373120002,620.2253373120002,622.2609913010001,622.2609913010001,622.2609913010001,622.2609913010001,622.2609913010001,622.2609913010001,622.2609913010001,622.2609913010001,624.2961396549999,624.2961396549999,624.2961396549999,624.2961396549999,,,,,,,,,,,,,,,,,,,,,,,,,,,,,,,,,,,,,,,03,006,2022-09-23_11h44.53.692,test2,2022.2.4,59.82780027509361,
0,0,0,0,27,0,27,0,624.2961396549999,624.2961396549999,624.2961396549999,624.2961396549999,624.2961396549999,624.2961396549999,624.2961396549999,1,-1,rojo,1,['N_A'],626.1155603650004,626.1155603650004,626.1155603650004,626.1155603650004,628.1515623390005,628.1515623390005,628.1515623390005,628.1515623390005,628.1515623390005,628.1515623390005,628.1515623390005,628.1515623390005,630.1867989950006,630.1867989950006,630.1867989950006,630.1867989950006,,,,,,,,,,,,,,,,,,,,,,,,,,,,,,,,,,,,,,,03,006,2022-09-23_11h44.53.692,test2,2022.2.4,59.82780027509361,
0,0,0,0,28,0,28,0,630.1867989950006,630.1867989950006,630.1867989950006,630.1867989950006,630.1867989950006,630.1867989950006,630.1867989950006,1,-1,rojo,1,['N_A'],631.9221410119999,631.9221410119999,631.9221410119999,631.9221410119999,633.9581697650001,633.9581697650001,633.9581697650001,633.9581697650001,633.9581697650001,633.9581697650001,633.9581697650001,633.9581697650001,635.9932235370006,635.9932235370006,635.9932235370006,635.9932235370006,,,,,,,,,,,,,,,,,,,,,,,,,,,,,,,,,,,,,,,03,006,2022-09-23_11h44.53.692,test2,2022.2.4,59.82780027509361,
0,0,0,0,29,0,29,0,635.9932235370006,635.9932235370006,635.9932235370006,635.9932235370006,635.9932235370006,635.9932235370006,635.9932235370006,1,-1,rojo,0,['N_B'],641.0149261910001,641.0149261910001,641.0149261910001,641.0149261910001,643.0507057660006,643.0507057660006,643.0507057660006,643.0507057660006,643.0507057660006,643.0507057660006,643.0507057660006,643.0507057660006,645.0863992180002,645.0863992180002,645.0863992180002,645.0863992180002,,,,,,,,,,,,,,,,,,,,,,,,,,,,,,,,,,,,,,,03,006,2022-09-23_11h44.53.692,test2,2022.2.4,59.82780027509361,
0,0,0,0,30,0,30,0,645.0863992180002,645.0863992180002,645.0863992180002,645.0863992180002,645.0863992180002,645.0863992180002,645.0863992180002,1,1,azul,1,['N_B'],655.765121253,655.765121253,655.765121253,655.765121253,657.7837585570005,657.7837585570005,657.7837585570005,657.7837585570005,657.7837585570005,657.7837585570005,657.7837585570005,657.7837585570005,659.8192157060003,659.8192157060003,659.8192157060003,659.8192157060003,,,,,,,,,,,,,,,,,,,,,,,,,,,,,,,,,,,,,,,03,006,2022-09-23_11h44.53.692,test2,2022.2.4,59.82780027509361,
0,0,0,0,31,0,31,0,659.8192157060003,659.8192157060003,659.8192157060003,659.8192157060003,659.8192157060003,659.8192157060003,659.8192157060003,1,1,azul,1,['N_B'],662.1387998549999,662.1387998549999,662.1387998549999,662.1387998549999,664.174212549,664.174212549,664.174212549,664.174212549,664.174212549,664.174212549,664.174212549,664.174212549,666.2089129120004,666.2089129120004,666.2089129120004,666.2089129120004,,,,,,,,,,,,,,,,,,,,,,,,,,,,,,,,,,,,,,,03,006,2022-09-23_11h44.53.692,test2,2022.2.4,59.82780027509361,
0,0,0,0,32,0,32,0,666.2089129120004,666.2089129120004,666.2089129120004,666.2089129120004,666.2089129120004,666.2089129120004,666.2089129120004,1,-1,azul,1,['N_B'],667.8278717540006,667.8278717540006,667.8278717540006,667.8278717540006,669.8639335450007,669.8639335450007,669.8639335450007,669.8639335450007,669.8639335450007,669.8639335450007,669.8639335450007,669.8639335450007,671.8994814130001,671.8994814130001,671.8994814130001,671.8994814130001,,,,,,,,,,,,,,,,,,,,,,,,,,,,,,,,,,,,,,,03,006,2022-09-23_11h44.53.692,test2,2022.2.4,59.82780027509361,
0,0,0,0,33,0,33,0,671.8994814130001,671.8994814130001,671.8994814130001,671.8994814130001,671.8994814130001,671.8994814130001,671.8994814130001,1,-1,azul,1,['N_B'],673.5845282110004,673.5845282110004,673.5845282110004,673.5845282110004,675.6193779980003,675.6193779980003,675.6193779980003,675.6193779980003,675.6193779980003,675.6193779980003,675.6193779980003,675.6193779980003,677.655780135,677.655780135,677.655780135,677.655780135,,,,,,,,,,,,,,,,,,,,,,,,,,,,,,,,,,,,,,,03,006,2022-09-23_11h44.53.692,test2,2022.2.4,59.82780027509361,
0,0,0,0,34,0,34,0,677.655780135,677.655780135,677.655780135,677.655780135,677.655780135,677.655780135,677.655780135,1,1,azul,1,['N_B'],679.5079352319999,679.5079352319999,679.5079352319999,679.5079352319999,681.5428701260007,681.5428701260007,681.5428701260007,681.5428701260007,681.5428701260007,681.5428701260007,681.5428701260007,681.5428701260007,683.5782902720002,683.5782902720002,683.5782902720002,683.5782902720002,,,,,,,,,,,,,,,,,,,,,,,,,,,,,,,,,,,,,,,03,006,2022-09-23_11h44.53.692,test2,2022.2.4,59.82780027509361,
0,0,0,0,35,0,35,0,683.5782902720002,683.5782902720002,683.5782902720002,683.5782902720002,683.5782902720002,683.5782902720002,683.5782902720002,1,-1,azul,1,['N_B'],686.1314511250002,686.1314511250002,686.1314511250002,686.1314511250002,688.1673875080005,688.1673875080005,688.1673875080005,688.1673875080005,688.1673875080005,688.1673875080005,688.1673875080005,688.1673875080005,690.2027691580006,690.2027691580006,690.2027691580006,690.2027691580006,,,,,,,,,,,,,,,,,,,,,,,,,,,,,,,,,,,,,,,03,006,2022-09-23_11h44.53.692,test2,2022.2.4,59.82780027509361,
0,0,0,0,36,0,36,0,690.2027691580006,690.2027691580006,690.2027691580006,690.2027691580006,690.2027691580006,690.2027691580006,690.2027691580006,-1,-1,rojo,0,['N_A'],691.9210994340001,691.9210994340001,691.9210994340001,691.9210994340001,693.9564739750003,693.9564739750003,693.9564739750003,693.9564739750003,693.9564739750003,693.9564739750003,693.9564739750003,693.9564739750003,695.9927599769999,695.9927599769999,695.9927599769999,695.9927599769999,,,,,,,,,,,,,,,,,,,,,,,,,,,,,,,,,,,,,,,03,006,2022-09-23_11h44.53.692,test2,2022.2.4,59.82780027509361,
0,0,0,0,37,0,37,0,695.9927599769999,695.9927599769999,695.9927599769999,695.9927599769999,695.9927599769999,695.9927599769999,695.9927599769999,1,-1,rojo,1,['N_A'],697.5770991240006,697.5770991240006,697.5770991240006,697.5770991240006,699.6130035730002,699.6130035730002,699.6130035730002,699.6130035730002,699.6130035730002,699.6130035730002,699.6130035730002,699.6130035730002,701.6487257899998,701.6487257899998,701.6487257899998,701.6487257899998,,,,,,,,,,,,,,,,,,,,,,,,,,,,,,,,,,,,,,,03,006,2022-09-23_11h44.53.692,test2,2022.2.4,59.82780027509361,
0,0,0,0,38,0,38,0,701.6487257899998,701.6487257899998,701.6487257899998,701.6487257899998,701.6487257899998,701.6487257899998,701.6487257899998,1,1,rojo,0,['N_B'],703.8175872370002,703.8175872370002,703.8175872370002,703.8175872370002,705.8537938469999,705.8537938469999,705.8537938469999,705.8537938469999,705.8537938469999,705.8537938469999,705.8537938469999,705.8537938469999,707.888390141,707.888390141,707.888390141,707.888390141,,,,,,,,,,,,,,,,,,,,,,,,,,,,,,,,,,,,,,,03,006,2022-09-23_11h44.53.692,test2,2022.2.4,59.82780027509361,
0,0,0,0,39,0,39,0,707.888390141,707.888390141,707.888390141,707.888390141,707.888390141,707.888390141,707.888390141,1,-1,azul,0,['N_A'],709.7404245690004,709.7404245690004,709.7404245690004,709.7404245690004,711.7768140819999,711.7768140819999,711.7768140819999,711.7768140819999,711.7768140819999,711.7768140819999,711.7768140819999,711.7768140819999,713.8123940149999,713.8123940149999,713.8123940149999,713.8123940149999,,,,,,,,,,,,,,,,,,,,,,,,,,,,,,,,,,,,,,,03,006,2022-09-23_11h44.53.692,test2,2022.2.4,59.82780027509361,
0,0,0,0,40,0,40,0,713.8123940149999,713.8123940149999,713.8123940149999,713.8123940149999,713.8123940149999,713.8123940149999,713.8123940149999,1,1,rojo,1,['N_A'],716.4644831550004,716.4644831550004,716.4644831550004,716.4644831550004,718.4839343829999,718.4839343829999,718.4839343829999,718.4839343829999,718.4839343829999,718.4839343829999,718.4839343829999,718.4839343829999,720.5198036050006,720.5198036050006,720.5198036050006,720.5198036050006,,,,,,,,,,,,,,,,,,,,,,,,,,,,,,,,,,,,,,,03,006,2022-09-23_11h44.53.692,test2,2022.2.4,59.82780027509361,
0,0,0,0,41,0,41,0,720.5198036050006,720.5198036050006,720.5198036050006,720.5198036050006,720.5198036050006,720.5198036050006,720.5198036050006,-1,1,azul,1,['N_A'],727.3773124460004,727.3773124460004,727.3773124460004,727.3773124460004,729.3955526090003,729.3955526090003,729.3955526090003,729.3955526090003,729.3955526090003,729.3955526090003,729.3955526090003,729.3955526090003,731.4318032890005,731.4318032890005,731.4318032890005,731.4318032890005,,,,,,,,,,,,,,,,,,,,,,,,,,,,,,,,,,,,,,,03,006,2022-09-23_11h44.53.692,test2,2022.2.4,59.82780027509361,
0,0,0,0,42,0,42,0,731.4318032890005,731.4318032890005,731.4318032890005,731.4318032890005,731.4318032890005,731.4318032890005,731.4318032890005,1,1,rojo,1,['N_A'],733.4833447410001,733.4833447410001,733.4833447410001,733.4833447410001,735.5025444760004,735.5025444760004,735.5025444760004,735.5025444760004,735.5025444760004,735.5025444760004,735.5025444760004,735.5025444760004,737.5376360979999,737.5376360979999,737.5376360979999,737.5376360979999,,,,,,,,,,,,,,,,,,,,,,,,,,,,,,,,,,,,,,,03,006,2022-09-23_11h44.53.692,test2,2022.2.4,59.82780027509361,
0,0,0,0,43,0,43,0,737.5376360979999,737.5376360979999,737.5376360979999,737.5376360979999,737.5376360979999,737.5376360979999,737.5376360979999,1,1,rojo,1,['N_A'],739.1895077910003,739.1895077910003,739.1895077910003,739.1895077910003,741.2248807770002,741.2248807770002,741.2248807770002,741.2248807770002,741.2248807770002,741.2248807770002,741.2248807770002,741.2248807770002,743.2608768440004,743.2608768440004,743.2608768440004,743.2608768440004,,,,,,,,,,,,,,,,,,,,,,,,,,,,,,,,,,,,,,,03,006,2022-09-23_11h44.53.692,test2,2022.2.4,59.82780027509361,
0,0,0,0,44,0,44,0,743.2608768440004,743.2608768440004,743.2608768440004,743.2608768440004,743.2608768440004,743.2608768440004,743.2608768440004,1,-1,rojo,1,['N_A'],755.6579972770005,755.6579972770005,755.6579972770005,755.6579972770005,757.6933685510003,757.6933685510003,757.6933685510003,757.6933685510003,757.6933685510003,757.6933685510003,757.6933685510003,757.6933685510003,759.7290027890003,759.7290027890003,759.7290027890003,759.7290027890003,,,,,,,,,,,,,,,,,,,,,,,,,,,,,,,,,,,,,,,03,006,2022-09-23_11h44.53.692,test2,2022.2.4,59.82780027509361,
0,0,0,0,45,0,45,0,759.7290027890003,759.7290027890003,759.7290027890003,759.7290027890003,759.7290027890003,759.7290027890003,759.7290027890003,1,-1,rojo,0,['N_B'],761.4482933570007,761.4482933570007,761.4482933570007,761.4482933570007,763.4835797250007,763.4835797250007,763.4835797250007,763.4835797250007,763.4835797250007,763.4835797250007,763.4835797250007,763.4835797250007,765.5190041169999,765.5190041169999,765.5190041169999,765.5190041169999,,,,,,,,,,,,,,,,,,,,,,,,,,,,,,,,,,,,,,,03,006,2022-09-23_11h44.53.692,test2,2022.2.4,59.82780027509361,
0,0,0,0,46,0,46,0,765.5190041169999,765.5190041169999,765.5190041169999,765.5190041169999,765.5190041169999,765.5190041169999,765.5190041169999,1,-1,azul,1,['N_B'],767.7217158890007,767.7217158890007,767.7217158890007,767.7217158890007,769.7573503620006,769.7573503620006,769.7573503620006,769.7573503620006,769.7573503620006,769.7573503620006,769.7573503620006,769.7573503620006,771.792389659,771.792389659,771.792389659,771.792389659,,,,,,,,,,,,,,,,,,,,,,,,,,,,,,,,,,,,,,,03,006,2022-09-23_11h44.53.692,test2,2022.2.4,59.82780027509361,
0,0,0,0,47,0,47,0,771.792389659,771.792389659,771.792389659,771.792389659,771.792389659,771.792389659,771.792389659,-1,-1,rojo,0,['N_A'],773.4777782730007,773.4777782730007,773.4777782730007,773.4777782730007,775.5139999580006,775.5139999580006,775.5139999580006,775.5139999580006,775.5139999580006,775.5139999580006,775.5139999580006,775.5139999580006,777.5492628990005,777.5492628990005,777.5492628990005,777.5492628990005,,,,,,,,,,,,,,,,,,,,,,,,,,,,,,,,,,,,,,,03,006,2022-09-23_11h44.53.692,test2,2022.2.4,59.82780027509361,
0,0,0,0,48,0,48,0,777.5492628990005,777.5492628990005,777.5492628990005,777.5492628990005,777.5492628990005,777.5492628990005,777.5492628990005,-1,1,azul,1,['N_A'],779.0169505660006,779.0169505660006,779.0169505660006,779.0169505660006,781.0526027280002,781.0526027280002,781.0526027280002,781.0526027280002,781.0526027280002,781.0526027280002,781.0526027280002,781.0526027280002,783.0879316600003,783.0879316600003,783.0879316600003,783.0879316600003,,,,,,,,,,,,,,,,,,,,,,,,,,,,,,,,,,,,,,,03,006,2022-09-23_11h44.53.692,test2,2022.2.4,59.82780027509361,
0,0,0,0,49,0,49,0,783.0879316600003,783.0879316600003,783.0879316600003,783.0879316600003,783.0879316600003,783.0879316600003,783.0879316600003,1,-1,rojo,1,['N_A'],784.7405134090004,784.7405134090004,784.7405134090004,784.7405134090004,786.7758219810003,786.7758219810003,786.7758219810003,786.7758219810003,786.7758219810003,786.7758219810003,786.7758219810003,786.7758219810003,788.8108560050005,788.8108560050005,788.8108560050005,788.8108560050005,,,,,,,,,,,,,,,,,,,,,,,,,,,,,,,,,,,,,,,03,006,2022-09-23_11h44.53.692,test2,2022.2.4,59.82780027509361,
0,0,0,0,50,0,50,0,788.8108560050005,788.8108560050005,788.8108560050005,788.8108560050005,788.8108560050005,788.8108560050005,788.8108560050005,1,-1,rojo,0,['N_B'],795.1346641800001,795.1346641800001,795.1346641800001,795.1346641800001,797.170305097,797.170305097,797.170305097,797.170305097,797.170305097,797.170305097,797.170305097,797.170305097,799.2063435489999,799.2063435489999,799.2063435489999,799.2063435489999,,,,,,,,,,,,,,,,,,,,,,,,,,,,,,,,,,,,,,,03,006,2022-09-23_11h44.53.692,test2,2022.2.4,59.82780027509361,
0,0,0,0,51,0,51,0,799.2063435489999,799.2063435489999,799.2063435489999,799.2063435489999,799.2063435489999,799.2063435489999,799.2063435489999,1,-1,azul,0,['N_A'],801.2249306980002,801.2249306980002,801.2249306980002,801.2249306980002,803.2605937080007,803.2605937080007,803.2605937080007,803.2605937080007,803.2605937080007,803.2605937080007,803.2605937080007,803.2605937080007,805.2965145600001,805.2965145600001,805.2965145600001,805.2965145600001,,,,,,,,,,,,,,,,,,,,,,,,,,,,,,,,,,,,,,,03,006,2022-09-23_11h44.53.692,test2,2022.2.4,59.82780027509361,
0,0,0,0,52,0,52,0,805.2965145600001,805.2965145600001,805.2965145600001,805.2965145600001,805.2965145600001,805.2965145600001,805.2965145600001,1,-1,rojo,1,['N_A'],806.7140121560005,806.7140121560005,806.7140121560005,806.7140121560005,808.7507971040004,808.7507971040004,808.7507971040004,808.7507971040004,808.7507971040004,808.7507971040004,808.7507971040004,808.7507971040004,810.7851287600006,810.7851287600006,810.7851287600006,810.7851287600006,,,,,,,,,,,,,,,,,,,,,,,,,,,,,,,,,,,,,,,03,006,2022-09-23_11h44.53.692,test2,2022.2.4,59.82780027509361,
0,0,0,0,53,0,53,0,810.7851287600006,810.7851287600006,810.7851287600006,810.7851287600006,810.7851287600006,810.7851287600006,810.7851287600006,1,1,rojo,1,['N_A'],812.2869154690006,812.2869154690006,812.2869154690006,812.2869154690006,814.3061981580004,814.3061981580004,814.3061981580004,814.3061981580004,814.3061981580004,814.3061981580004,814.3061981580004,814.3061981580004,816.3415834570005,816.3415834570005,816.3415834570005,816.3415834570005,,,,,,,,,,,,,,,,,,,,,,,,,,,,,,,,,,,,,,,03,006,2022-09-23_11h44.53.692,test2,2022.2.4,59.82780027509361,
0,0,0,0,54,0,54,0,816.3415834570005,816.3415834570005,816.3415834570005,816.3415834570005,816.3415834570005,816.3415834570005,816.3415834570005,1,1,rojo,1,['N_A'],817.9604304350005,817.9604304350005,817.9604304350005,817.9604304350005,819.9788155229999,819.9788155229999,819.9788155229999,819.9788155229999,819.9788155229999,819.9788155229999,819.9788155229999,819.9788155229999,822.015192156,822.015192156,822.015192156,822.015192156,,,,,,,,,,,,,,,,,,,,,,,,,,,,,,,,,,,,,,,03,006,2022-09-23_11h44.53.692,test2,2022.2.4,59.82780027509361,
0,0,0,0,55,0,55,0,822.015192156,822.015192156,822.015192156,822.015192156,822.015192156,822.015192156,822.015192156,-1,1,azul,1,['N_A'],823.7498697629999,823.7498697629999,823.7498697629999,823.7498697629999,825.7695362320001,825.7695362320001,825.7695362320001,825.7695362320001,825.7695362320001,825.7695362320001,825.7695362320001,825.7695362320001,827.8047773620001,827.8047773620001,827.8047773620001,827.8047773620001,,,,,,,,,,,,,,,,,,,,,,,,,,,,,,,,,,,,,,,03,006,2022-09-23_11h44.53.692,test2,2022.2.4,59.82780027509361,
0,0,0,0,56,0,56,0,827.8047773620001,827.8047773620001,827.8047773620001,827.8047773620001,827.8047773620001,827.8047773620001,827.8047773620001,1,1,rojo,1,['N_A'],829.6894863770003,829.6894863770003,829.6894863770003,829.6894863770003,831.7078406500004,831.7078406500004,831.7078406500004,831.7078406500004,831.7078406500004,831.7078406500004,831.7078406500004,831.7078406500004,833.7441286030007,833.7441286030007,833.7441286030007,833.7441286030007,,,,,,,,,,,,,,,,,,,,,,,,,,,,,,,,,,,,,,,03,006,2022-09-23_11h44.53.692,test2,2022.2.4,59.82780027509361,
0,0,0,0,57,0,57,0,833.7441286030007,833.7441286030007,833.7441286030007,833.7441286030007,833.7441286030007,833.7441286030007,833.7441286030007,1,1,rojo,1,['N_A'],835.5461942450002,835.5461942450002,835.5461942450002,835.5461942450002,837.5813629720005,837.5813629720005,837.5813629720005,837.5813629720005,837.5813629720005,837.5813629720005,837.5813629720005,837.5813629720005,839.616862461,839.616862461,839.616862461,839.616862461,,,,,,,,,,,,,,,,,,,,,,,,,,,,,,,,,,,,,,,03,006,2022-09-23_11h44.53.692,test2,2022.2.4,59.82780027509361,
0,0,0,0,58,0,58,0,839.616862461,839.616862461,839.616862461,839.616862461,839.616862461,839.616862461,839.616862461,1,-1,rojo,1,['N_A'],841.2360433029999,841.2360433029999,841.2360433029999,841.2360433029999,843.2709233210007,843.2709233210007,843.2709233210007,843.2709233210007,843.2709233210007,843.2709233210007,843.2709233210007,843.2709233210007,845.3069580649999,845.3069580649999,845.3069580649999,845.3069580649999,,,,,,,,,,,,,,,,,,,,,,,,,,,,,,,,,,,,,,,03,006,2022-09-23_11h44.53.692,test2,2022.2.4,59.82780027509361,
0,0,0,0,59,0,59,0,845.3069580649999,845.3069580649999,845.3069580649999,845.3069580649999,845.3069580649999,845.3069580649999,845.3069580649999,-1,-1,azul,1,['N_A'],846.9426938400002,846.9426938400002,846.9426938400002,846.9426938400002,848.9770674820002,848.9770674820002,848.9770674820002,848.9770674820002,848.9770674820002,848.9770674820002,848.9770674820002,848.9770674820002,851.013648354,851.013648354,851.013648354,851.013648354,,,,,,,,,,,,,,,,,,,,,,,,,,,,,,,,,,,,,,,03,006,2022-09-23_11h44.53.692,test2,2022.2.4,59.82780027509361,
0,0,0,0,60,0,60,0,851.013648354,851.013648354,851.013648354,851.013648354,851.013648354,851.013648354,851.013648354,1,-1,rojo,0,['N_B'],852.5654679190002,852.5654679190002,852.5654679190002,852.5654679190002,854.5999893329999,854.5999893329999,854.5999893329999,854.5999893329999,854.5999893329999,854.5999893329999,854.5999893329999,854.5999893329999,856.6364905480004,856.6364905480004,856.6364905480004,856.6364905480004,,,,,,,,,,,,,,,,,,,,,,,,,,,,,,,,,,,,,,,03,006,2022-09-23_11h44.53.692,test2,2022.2.4,59.82780027509361,
0,0,0,0,61,0,61,0,856.6364905480004,856.6364905480004,856.6364905480004,856.6364905480004,856.6364905480004,856.6364905480004,856.6364905480004,1,1,azul,1,['N_B'],858.1550113000003,858.1550113000003,858.1550113000003,858.1550113000003,860.1898065599999,860.1898065599999,860.1898065599999,860.1898065599999,860.1898065599999,860.1898065599999,860.1898065599999,860.1898065599999,862.2261294210002,862.2261294210002,862.2261294210002,862.2261294210002,,,,,,,,,,,,,,,,,,,,,,,,,,,,,,,,,,,,,,,03,006,2022-09-23_11h44.53.692,test2,2022.2.4,59.82780027509361,
0,0,0,0,62,0,62,0,862.2261294210002,862.2261294210002,862.2261294210002,862.2261294210002,862.2261294210002,862.2261294210002,862.2261294210002,1,-1,azul,1,['N_B'],863.9444182990001,863.9444182990001,863.9444182990001,863.9444182990001,865.9800334259999,865.9800334259999,865.9800334259999,865.9800334259999,865.9800334259999,865.9800334259999,865.9800334259999,865.9800334259999,868.0159812230004,868.0159812230004,868.0159812230004,868.0159812230004,,,,,,,,,,,,,,,,,,,,,,,,,,,,,,,,,,,,,,,03,006,2022-09-23_11h44.53.692,test2,2022.2.4,59.82780027509361,
0,0,0,0,63,0,63,0,868.0159812230004,868.0159812230004,868.0159812230004,868.0159812230004,868.0159812230004,868.0159812230004,868.0159812230004,1,-1,azul,0,['N_A'],869.5006469760001,869.5006469760001,869.5006469760001,869.5006469760001,871.5363216140004,871.5363216140004,871.5363216140004,871.5363216140004,871.5363216140004,871.5363216140004,871.5363216140004,871.5363216140004,873.5711821510004,873.5711821510004,873.5711821510004,873.5711821510004,,,,,,,,,,,,,,,,,,,,,,,,,,,,,,,,,,,,,,,03,006,2022-09-23_11h44.53.692,test2,2022.2.4,59.82780027509361,
0,0,0,0,64,0,64,0,873.5711821510004,873.5711821510004,873.5711821510004,873.5711821510004,873.5711821510004,873.5711821510004,873.5711821510004,1,1,rojo,1,['N_A'],875.0236862840002,875.0236862840002,875.0236862840002,875.0236862840002,877.0414313090005,877.0414313090005,877.0414313090005,877.0414313090005,877.0414313090005,877.0414313090005,877.0414313090005,877.0414313090005,879.0778938840003,879.0778938840003,879.0778938840003,879.0778938840003,,,,,,,,,,,,,,,,,,,,,,,,,,,,,,,,,,,,,,,03,006,2022-09-23_11h44.53.692,test2,2022.2.4,59.82780027509361,
0,0,0,0,65,0,65,0,879.0778938840003,879.0778938840003,879.0778938840003,879.0778938840003,879.0778938840003,879.0778938840003,879.0778938840003,1,1,rojo,1,['N_A'],880.6293071870004,880.6293071870004,880.6293071870004,880.6293071870004,882.6651446860005,882.6651446860005,882.6651446860005,882.6651446860005,882.6651446860005,882.6651446860005,882.6651446860005,882.6651446860005,884.7002403060005,884.7002403060005,884.7002403060005,884.7002403060005,,,,,,,,,,,,,,,,,,,,,,,,,,,,,,,,,,,,,,,03,006,2022-09-23_11h44.53.692,test2,2022.2.4,59.82780027509361,
0,0,0,0,66,0,66,0,884.7002403060005,884.7002403060005,884.7002403060005,884.7002403060005,884.7002403060005,884.7002403060005,884.7002403060005,1,-1,rojo,1,['N_A'],886.2187477770003,886.2187477770003,886.2187477770003,886.2187477770003,888.2546307910006,888.2546307910006,888.2546307910006,888.2546307910006,888.2546307910006,888.2546307910006,888.2546307910006,888.2546307910006,890.289777938,890.289777938,890.289777938,890.289777938,,,,,,,,,,,,,,,,,,,,,,,,,,,,,,,,,,,,,,,03,006,2022-09-23_11h44.53.692,test2,2022.2.4,59.82780027509361,
0,0,0,0,67,0,67,0,890.289777938,890.289777938,890.289777938,890.289777938,890.289777938,890.289777938,890.289777938,1,1,rojo,1,['N_A'],892.209054979,892.209054979,892.209054979,892.209054979,894.2284590670006,894.2284590670006,894.2284590670006,894.2284590670006,894.2284590670006,894.2284590670006,894.2284590670006,894.2284590670006,896.2638749580001,896.2638749580001,896.2638749580001,896.2638749580001,,,,,,,,,,,,,,,,,,,,,,,,,,,,,,,,,,,,,,,03,006,2022-09-23_11h44.53.692,test2,2022.2.4,59.82780027509361,
0,0,0,0,68,0,68,0,896.2638749580001,896.2638749580001,896.2638749580001,896.2638749580001,896.2638749580001,896.2638749580001,896.2638749580001,1,1,rojo,1,['N_A'],897.9151908520007,897.9151908520007,897.9151908520007,897.9151908520007,899.950989549,899.950989549,899.950989549,899.950989549,899.950989549,899.950989549,899.950989549,899.950989549,901.9865569600006,901.9865569600006,901.9865569600006,901.9865569600006,,,,,,,,,,,,,,,,,,,,,,,,,,,,,,,,,,,,,,,03,006,2022-09-23_11h44.53.692,test2,2022.2.4,59.82780027509361,
0,0,0,0,69,0,69,0,901.9865569600006,901.9865569600006,901.9865569600006,901.9865569600006,901.9865569600006,901.9865569600006,901.9865569600006,-1,-1,azul,1,['N_A'],903.7715036670006,903.7715036670006,903.7715036670006,903.7715036670006,905.8073830500007,905.8073830500007,905.8073830500007,905.8073830500007,905.8073830500007,905.8073830500007,905.8073830500007,905.8073830500007,907.8430581270004,907.8430581270004,907.8430581270004,907.8430581270004,,,,,,,,,,,,,,,,,,,,,,,,,,,,,,,,,,,,,,,03,006,2022-09-23_11h44.53.692,test2,2022.2.4,59.82780027509361,
0,0,0,0,70,0,70,0,907.8430581270004,907.8430581270004,907.8430581270004,907.8430581270004,907.8430581270004,907.8430581270004,907.8430581270004,1,-1,rojo,0,['N_B'],909.9951153490001,909.9951153490001,909.9951153490001,909.9951153490001,912.0313214480002,912.0313214480002,912.0313214480002,912.0313214480002,912.0313214480002,912.0313214480002,912.0313214480002,912.0313214480002,914.0664860140005,914.0664860140005,914.0664860140005,914.0664860140005,,,,,,,,,,,,,,,,,,,,,,,,,,,,,,,,,,,,,,,03,006,2022-09-23_11h44.53.692,test2,2022.2.4,59.82780027509361,
0,0,0,0,71,0,71,0,914.0664860140005,914.0664860140005,914.0664860140005,914.0664860140005,914.0664860140005,914.0664860140005,914.0664860140005,-1,1,rojo,1,['N_B'],915.5508408510004,915.5508408510004,915.5508408510004,915.5508408510004,917.5866341250003,917.5866341250003,917.5866341250003,917.5866341250003,917.5866341250003,917.5866341250003,917.5866341250003,917.5866341250003,919.6219639770006,919.6219639770006,919.6219639770006,919.6219639770006,,,,,,,,,,,,,,,,,,,,,,,,,,,,,,,,,,,,,,,03,006,2022-09-23_11h44.53.692,test2,2022.2.4,59.82780027509361,
0,0,0,0,72,0,72,0,919.6219639770006,919.6219639770006,919.6219639770006,919.6219639770006,919.6219639770006,919.6219639770006,919.6219639770006,1,-1,azul,1,['N_B'],921.8411505310005,921.8411505310005,921.8411505310005,921.8411505310005,923.8778312750001,923.8778312750001,923.8778312750001,923.8778312750001,923.8778312750001,923.8778312750001,923.8778312750001,923.8778312750001,925.9123789570003,925.9123789570003,925.9123789570003,925.9123789570003,,,,,,,,,,,,,,,,,,,,,,,,,,,,,,,,,,,,,,,03,006,2022-09-23_11h44.53.692,test2,2022.2.4,59.82780027509361,
0,0,0,0,73,0,73,0,925.9123789570003,925.9123789570003,925.9123789570003,925.9123789570003,925.9123789570003,925.9123789570003,925.9123789570003,-1,1,rojo,1,['N_B'],927.4982770619999,927.4982770619999,927.4982770619999,927.4982770619999,929.515884685,929.515884685,929.515884685,929.515884685,929.515884685,929.515884685,929.515884685,929.515884685,931.5524440560002,931.5524440560002,931.5524440560002,931.5524440560002,,,,,,,,,,,,,,,,,,,,,,,,,,,,,,,,,,,,,,,03,006,2022-09-23_11h44.53.692,test2,2022.2.4,59.82780027509361,
0,0,0,0,74,0,74,0,931.5524440560002,931.5524440560002,931.5524440560002,931.5524440560002,931.5524440560002,931.5524440560002,931.5524440560002,1,1,azul,1,['N_B'],933.3039275850006,933.3039275850006,933.3039275850006,933.3039275850006,935.3401173330003,935.3401173330003,935.3401173330003,935.3401173330003,935.3401173330003,935.3401173330003,935.3401173330003,935.3401173330003,937.3747680240003,937.3747680240003,937.3747680240003,937.3747680240003,,,,,,,,,,,,,,,,,,,,,,,,,,,,,,,,,,,,,,,03,006,2022-09-23_11h44.53.692,test2,2022.2.4,59.82780027509361,
0,0,0,0,75,0,75,0,937.3747680240003,937.3747680240003,937.3747680240003,937.3747680240003,937.3747680240003,937.3747680240003,937.3747680240003,1,-1,azul,1,['N_B'],940.2275582850007,940.2275582850007,940.2275582850007,940.2275582850007,942.2642634620006,942.2642634620006,942.2642634620006,942.2642634620006,942.2642634620006,942.2642634620006,942.2642634620006,942.2642634620006,944.2998355620002,944.2998355620002,944.2998355620002,944.2998355620002,,,,,,,,,,,,,,,,,,,,,,,,,,,,,,,,,,,,,,,03,006,2022-09-23_11h44.53.692,test2,2022.2.4,59.82780027509361,
0,0,0,0,76,0,76,0,944.2998355620002,944.2998355620002,944.2998355620002,944.2998355620002,944.2998355620002,944.2998355620002,944.2998355620002,-1,1,rojo,1,['N_B'],945.9185529510005,945.9185529510005,945.9185529510005,945.9185529510005,947.9367913160004,947.9367913160004,947.9367913160004,947.9367913160004,947.9367913160004,947.9367913160004,947.9367913160004,947.9367913160004,949.9724533580002,949.9724533580002,949.9724533580002,949.9724533580002,,,,,,,,,,,,,,,,,,,,,,,,,,,,,,,,,,,,,,,03,006,2022-09-23_11h44.53.692,test2,2022.2.4,59.82780027509361,
0,0,0,0,77,0,77,0,949.9724533580002,949.9724533580002,949.9724533580002,949.9724533580002,949.9724533580002,949.9724533580002,949.9724533580002,-1,1,rojo,1,['N_B'],951.5575032260003,951.5575032260003,951.5575032260003,951.5575032260003,953.5769637419999,953.5769637419999,953.5769637419999,953.5769637419999,953.5769637419999,953.5769637419999,953.5769637419999,953.5769637419999,955.6117444680003,955.6117444680003,955.6117444680003,955.6117444680003,,,,,,,,,,,,,,,,,,,,,,,,,,,,,,,,,,,,,,,03,006,2022-09-23_11h44.53.692,test2,2022.2.4,59.82780027509361,
0,0,0,0,78,0,78,0,955.6117444680003,955.6117444680003,955.6117444680003,955.6117444680003,955.6117444680003,955.6117444680003,955.6117444680003,1,1,azul,1,['N_B'],957.2805589270001,957.2805589270001,957.2805589270001,957.2805589270001,959.2989431610004,959.2989431610004,959.2989431610004,959.2989431610004,959.2989431610004,959.2989431610004,959.2989431610004,959.2989431610004,961.3353222940004,961.3353222940004,961.3353222940004,961.3353222940004,,,,,,,,,,,,,,,,,,,,,,,,,,,,,,,,,,,,,,,03,006,2022-09-23_11h44.53.692,test2,2022.2.4,59.82780027509361,
0,0,0,0,79,0,79,0,961.3353222940004,961.3353222940004,961.3353222940004,961.3353222940004,961.3353222940004,961.3353222940004,961.3353222940004,1,1,azul,1,['N_B'],963.054041757,963.054041757,963.054041757,963.054041757,965.0724285320002,965.0724285320002,965.0724285320002,965.0724285320002,965.0724285320002,965.0724285320002,965.0724285320002,965.0724285320002,967.1082670209998,967.1082670209998,967.1082670209998,967.1082670209998,,,,,,,,,,,,,,,,,,,,,,,,,,,,,,,,,,,,,,,03,006,2022-09-23_11h44.53.692,test2,2022.2.4,59.82780027509361,
0,0,0,0,80,0,80,0,967.1082670209998,967.1082670209998,967.1082670209998,967.1082670209998,967.1082670209998,967.1082670209998,967.1082670209998,1,1,azul,1,['N_B'],968.8597023140001,968.8597023140001,968.8597023140001,968.8597023140001,970.8789125860003,970.8789125860003,970.8789125860003,970.8789125860003,970.8789125860003,970.8789125860003,970.8789125860003,970.8789125860003,972.9146656950006,972.9146656950006,972.9146656950006,972.9146656950006,,,,,,,,,,,,,,,,,,,,,,,,,,,,,,,,,,,,,,,03,006,2022-09-23_11h44.53.692,test2,2022.2.4,59.82780027509361,
0,0,0,0,81,0,81,0,972.9146656950006,972.9146656950006,972.9146656950006,972.9146656950006,972.9146656950006,972.9146656950006,972.9146656950006,1,1,azul,1,['N_B'],974.699855713,974.699855713,974.699855713,974.699855713,976.717702633,976.717702633,976.717702633,976.717702633,976.717702633,976.717702633,976.717702633,976.717702633,978.7537790659999,978.7537790659999,978.7537790659999,978.7537790659999,,,,,,,,,,,,,,,,,,,,,,,,,,,,,,,,,,,,,,,03,006,2022-09-23_11h44.53.692,test2,2022.2.4,59.82780027509361,
0,0,0,0,82,0,82,0,978.7537790659999,978.7537790659999,978.7537790659999,978.7537790659999,978.7537790659999,978.7537790659999,978.7537790659999,1,1,azul,1,['N_B'],980.8731472360005,980.8731472360005,980.8731472360005,980.8731472360005,982.8923811670002,982.8923811670002,982.8923811670002,982.8923811670002,982.8923811670002,982.8923811670002,982.8923811670002,982.8923811670002,984.9276534540004,984.9276534540004,984.9276534540004,984.9276534540004,,,,,,,,,,,,,,,,,,,,,,,,,,,,,,,,,,,,,,,03,006,2022-09-23_11h44.53.692,test2,2022.2.4,59.82780027509361,
0,0,0,0,83,0,83,0,984.9276534540004,984.9276534540004,984.9276534540004,984.9276534540004,984.9276534540004,984.9276534540004,984.9276534540004,-1,1,rojo,1,['N_B'],987.0303493649999,987.0303493649999,987.0303493649999,987.0303493649999,989.0650568740002,989.0650568740002,989.0650568740002,989.0650568740002,989.0650568740002,989.0650568740002,989.0650568740002,989.0650568740002,991.1008875309999,991.1008875309999,991.1008875309999,991.1008875309999,,,,,,,,,,,,,,,,,,,,,,,,,,,,,,,,,,,,,,,03,006,2022-09-23_11h44.53.692,test2,2022.2.4,59.82780027509361,
0,0,0,0,84,0,84,0,991.1008875309999,991.1008875309999,991.1008875309999,991.1008875309999,991.1008875309999,991.1008875309999,991.1008875309999,-1,-1,rojo,1,['N_B'],993.320332585,993.320332585,993.320332585,993.320332585,995.3557040680007,995.3557040680007,995.3557040680007,995.3557040680007,995.3557040680007,995.3557040680007,995.3557040680007,995.3557040680007,997.3913820470007,997.3913820470007,997.3913820470007,997.3913820470007,,,,,,,,,,,,,,,,,,,,,,,,,,,,,,,,,,,,,,,03,006,2022-09-23_11h44.53.692,test2,2022.2.4,59.82780027509361,
0,0,0,0,85,0,85,0,997.3913820470007,997.3913820470007,997.3913820470007,997.3913820470007,997.3913820470007,997.3913820470007,997.3913820470007,1,1,azul,1,['N_B'],999.6102677210001,999.6102677210001,999.6102677210001,999.6102677210001,1001.629347731,1001.629347731,1001.629347731,1001.629347731,1001.629347731,1001.629347731,1001.629347731,1001.629347731,1003.6648792960004,1003.6648792960004,1003.6648792960004,1003.6648792960004,,,,,,,,,,,,,,,,,,,,,,,,,,,,,,,,,,,,,,,03,006,2022-09-23_11h44.53.692,test2,2022.2.4,59.82780027509361,
0,0,0,0,86,0,86,0,1003.6648792960004,1003.6648792960004,1003.6648792960004,1003.6648792960004,1003.6648792960004,1003.6648792960004,1003.6648792960004,1,1,azul,1,['N_B'],1006.2509139000003,1006.2509139000003,1006.2509139000003,1006.2509139000003,1008.2875831210004,1008.2875831210004,1008.2875831210004,1008.2875831210004,1008.2875831210004,1008.2875831210004,1008.2875831210004,1008.2875831210004,1010.3213550300006,1010.3213550300006,1010.3213550300006,1010.3213550300006,,,,,,,,,,,,,,,,,,,,,,,,,,,,,,,,,,,,,,,03,006,2022-09-23_11h44.53.692,test2,2022.2.4,59.82780027509361,
0,0,0,0,87,0,87,0,1010.3213550300006,1010.3213550300006,1010.3213550300006,1010.3213550300006,1010.3213550300006,1010.3213550300006,1010.3213550300006,-1,-1,rojo,1,['N_B'],1011.8402973480006,1011.8402973480006,1011.8402973480006,1011.8402973480006,1013.8765190120002,1013.8765190120002,1013.8765190120002,1013.8765190120002,1013.8765190120002,1013.8765190120002,1013.8765190120002,1013.8765190120002,1015.9119668100002,1015.9119668100002,1015.9119668100002,1015.9119668100002,,,,,,,,,,,,,,,,,,,,,,,,,,,,,,,,,,,,,,,03,006,2022-09-23_11h44.53.692,test2,2022.2.4,59.82780027509361,
0,0,0,0,88,0,88,0,1015.9119668100002,1015.9119668100002,1015.9119668100002,1015.9119668100002,1015.9119668100002,1015.9119668100002,1015.9119668100002,1,1,azul,1,['N_B'],1017.763753151,1017.763753151,1017.763753151,1017.763753151,1019.7819711400007,1019.7819711400007,1019.7819711400007,1019.7819711400007,1019.7819711400007,1019.7819711400007,1019.7819711400007,1019.7819711400007,1021.8181870170001,1021.8181870170001,1021.8181870170001,1021.8181870170001,,,,,,,,,,,,,,,,,,,,,,,,,,,,,,,,,,,,,,,03,006,2022-09-23_11h44.53.692,test2,2022.2.4,59.82780027509361,
0,0,0,0,89,0,89,0,1021.8181870170001,1021.8181870170001,1021.8181870170001,1021.8181870170001,1021.8181870170001,1021.8181870170001,1021.8181870170001,-1,1,rojo,1,['N_B'],1024.0045305540007,1024.0045305540007,1024.0045305540007,1024.0045305540007,1026.023323759,1026.023323759,1026.023323759,1026.023323759,1026.023323759,1026.023323759,1026.023323759,1026.023323759,1028.0590766680007,1028.0590766680007,1028.0590766680007,1028.0590766680007,,,,,,,,,,,,,,,,,,,,,,,,,,,,,,,,,,,,,,,03,006,2022-09-23_11h44.53.692,test2,2022.2.4,59.82780027509361,
0,0,0,0,90,0,90,0,1028.0590766680007,1028.0590766680007,1028.0590766680007,1028.0590766680007,1028.0590766680007,1028.0590766680007,1028.0590766680007,1,1,azul,1,['N_B'],1029.6938801840006,1029.6938801840006,1029.6938801840006,1029.6938801840006,1031.7120742570005,1031.7120742570005,1031.7120742570005,1031.7120742570005,1031.7120742570005,1031.7120742570005,1031.7120742570005,1031.7120742570005,1033.7480310340006,1033.7480310340006,1033.7480310340006,1033.7480310340006,,,,,,,,,,,,,,,,,,,,,,,,,,,,,,,,,,,,,,,03,006,2022-09-23_11h44.53.692,test2,2022.2.4,59.82780027509361,
0,0,0,0,91,0,91,0,1033.7480310340006,1033.7480310340006,1033.7480310340006,1033.7480310340006,1033.7480310340006,1033.7480310340006,1033.7480310340006,-1,1,rojo,1,['N_B'],1035.3333088160007,1035.3333088160007,1035.3333088160007,1035.3333088160007,1037.3693315690007,1037.3693315690007,1037.3693315690007,1037.3693315690007,1037.3693315690007,1037.3693315690007,1037.3693315690007,1037.3693315690007,1039.4047468890003,1039.4047468890003,1039.4047468890003,1039.4047468890003,,,,,,,,,,,,,,,,,,,,,,,,,,,,,,,,,,,,,,,03,006,2022-09-23_11h44.53.692,test2,2022.2.4,59.82780027509361,
0,0,0,0,92,0,92,0,1039.4047468890003,1039.4047468890003,1039.4047468890003,1039.4047468890003,1039.4047468890003,1039.4047468890003,1039.4047468890003,1,-1,azul,1,['N_B'],1041.3570926950006,1041.3570926950006,1041.3570926950006,1041.3570926950006,1043.3923943520003,1043.3923943520003,1043.3923943520003,1043.3923943520003,1043.3923943520003,1043.3923943520003,1043.3923943520003,1043.3923943520003,1045.4274363700006,1045.4274363700006,1045.4274363700006,1045.4274363700006,,,,,,,,,,,,,,,,,,,,,,,,,,,,,,,,,,,,,,,03,006,2022-09-23_11h44.53.692,test2,2022.2.4,59.82780027509361,
0,0,0,0,93,0,93,0,1045.4274363700006,1045.4274363700006,1045.4274363700006,1045.4274363700006,1045.4274363700006,1045.4274363700006,1045.4274363700006,1,1,azul,1,['N_B'],1047.4806733680007,1047.4806733680007,1047.4806733680007,1047.4806733680007,1049.498351366,1049.498351366,1049.498351366,1049.498351366,1049.498351366,1049.498351366,1049.498351366,1049.498351366,1051.5350474570005,1051.5350474570005,1051.5350474570005,1051.5350474570005,,,,,,,,,,,,,,,,,,,,,,,,,,,,,,,,,,,,,,,03,006,2022-09-23_11h44.53.692,test2,2022.2.4,59.82780027509361,
0,0,0,0,94,0,94,0,1051.5350474570005,1051.5350474570005,1051.5350474570005,1051.5350474570005,1051.5350474570005,1051.5350474570005,1051.5350474570005,1,1,azul,1,['N_B'],1053.6533982990004,1053.6533982990004,1053.6533982990004,1053.6533982990004,1055.689387173,1055.689387173,1055.689387173,1055.689387173,1055.689387173,1055.689387173,1055.689387173,1055.689387173,1057.7249811840002,1057.7249811840002,1057.7249811840002,1057.7249811840002,,,,,,,,,,,,,,,,,,,,,,,,,,,,,,,,,,,,,,,03,006,2022-09-23_11h44.53.692,test2,2022.2.4,59.82780027509361,
0,0,0,0,95,0,95,0,1057.7249811840002,1057.7249811840002,1057.7249811840002,1057.7249811840002,1057.7249811840002,1057.7249811840002,1057.7249811840002,-1,-1,rojo,1,['N_B'],1059.6765649440003,1059.6765649440003,1059.6765649440003,1059.6765649440003,1061.7123931100004,1061.7123931100004,1061.7123931100004,1061.7123931100004,1061.7123931100004,1061.7123931100004,1061.7123931100004,1061.7123931100004,1063.7478404560006,1063.7478404560006,1063.7478404560006,1063.7478404560006,,,,,,,,,,,,,,,,,,,,,,,,,,,,,,,,,,,,,,,03,006,2022-09-23_11h44.53.692,test2,2022.2.4,59.82780027509361,
0,0,0,0,96,0,96,0,1063.7478404560006,1063.7478404560006,1063.7478404560006,1063.7478404560006,1063.7478404560006,1063.7478404560006,1063.7478404560006,1,1,azul,1,['N_B'],1066.2336097030002,1066.2336097030002,1066.2336097030002,1066.2336097030002,1068.2692775220003,1068.2692775220003,1068.2692775220003,1068.2692775220003,1068.2692775220003,1068.2692775220003,1068.2692775220003,1068.2692775220003,1070.305349331,1070.305349331,1070.305349331,1070.305349331,,,,,,,,,,,,,,,,,,,,,,,,,,,,,,,,,,,,,,,03,006,2022-09-23_11h44.53.692,test2,2022.2.4,59.82780027509361,
0,0,0,0,97,0,97,0,1070.305349331,1070.305349331,1070.305349331,1070.305349331,1070.305349331,1070.305349331,1070.305349331,1,-1,azul,1,['N_B'],1072.056918757,1072.056918757,1072.056918757,1072.056918757,1074.0929869620004,1074.0929869620004,1074.0929869620004,1074.0929869620004,1074.0929869620004,1074.0929869620004,1074.0929869620004,1074.0929869620004,1076.1283317860007,1076.1283317860007,1076.1283317860007,1076.1283317860007,,,,,,,,,,,,,,,,,,,,,,,,,,,,,,,,,,,,,,,03,006,2022-09-23_11h44.53.692,test2,2022.2.4,59.82780027509361,
0,0,0,0,98,0,98,0,1076.1283317860007,1076.1283317860007,1076.1283317860007,1076.1283317860007,1076.1283317860007,1076.1283317860007,1076.1283317860007,1,1,azul,1,['N_B'],1078.1139866439999,1078.1139866439999,1078.1139866439999,1078.1139866439999,1080.1323468870005,1080.1323468870005,1080.1323468870005,1080.1323468870005,1080.1323468870005,1080.1323468870005,1080.1323468870005,1080.1323468870005,1082.1679218340005,1082.1679218340005,1082.1679218340005,1082.1679218340005,,,,,,,,,,,,,,,,,,,,,,,,,,,,,,,,,,,,,,,03,006,2022-09-23_11h44.53.692,test2,2022.2.4,59.82780027509361,
0,0,0,0,99,0,99,0,1082.1679218340005,1082.1679218340005,1082.1679218340005,1082.1679218340005,1082.1679218340005,1082.1679218340005,1082.1679218340005,1,1,azul,1,['N_B'],1084.7542988350006,1084.7542988350006,1084.7542988350006,1084.7542988350006,1086.7721099360006,1086.7721099360006,1086.7721099360006,1086.7721099360006,1086.7721099360006,1086.7721099360006,1086.7721099360006,1086.7721099360006,1088.809078837,1088.809078837,1088.809078837,1088.809078837,,,,,,,,,,,,,,,,,,,,,,,,,,,,,,,,,,,,,,,03,006,2022-09-23_11h44.53.692,test2,2022.2.4,59.82780027509361,
0,0,0,0,100,0,100,0,1088.809078837,1088.809078837,1088.809078837,1088.809078837,1088.809078837,1088.809078837,1088.809078837,1,1,azul,1,['N_B'],1090.4943061820004,1090.4943061820004,1090.4943061820004,1090.4943061820004,1092.5128665870006,1092.5128665870006,1092.5128665870006,1092.5128665870006,1092.5128665870006,1092.5128665870006,1092.5128665870006,1092.5128665870006,1094.5491599490006,1094.5491599490006,1094.5491599490006,1094.5491599490006,,,,,,,,,,,,,,,,,,,,,,,,,,,,,,,,,,,,,,,03,006,2022-09-23_11h44.53.692,test2,2022.2.4,59.82780027509361,
0,0,0,0,101,0,101,0,1094.5491599490006,1094.5491599490006,1094.5491599490006,1094.5491599490006,1094.5491599490006,1094.5491599490006,1094.5491599490006,1,1,azul,1,['N_B'],1098.2531171620003,1098.2531171620003,1098.2531171620003,1098.2531171620003,1100.2715450000005,1100.2715450000005,1100.2715450000005,1100.2715450000005,1100.2715450000005,1100.2715450000005,1100.2715450000005,1100.2715450000005,1102.3078814660003,1102.3078814660003,1102.3078814660003,1102.3078814660003,,,,,,,,,,,,,,,,,,,,,,,,,,,,,,,,,,,,,,,03,006,2022-09-23_11h44.53.692,test2,2022.2.4,59.82780027509361,
0,0,0,0,102,0,102,0,1102.3078814660003,1102.3078814660003,1102.3078814660003,1102.3078814660003,1102.3078814660003,1102.3078814660003,1102.3078814660003,-1,1,rojo,1,['N_B'],1104.0253976070007,1104.0253976070007,1104.0253976070007,1104.0253976070007,1106.045244469,1106.045244469,1106.045244469,1106.045244469,1106.045244469,1106.045244469,1106.045244469,1106.045244469,1108.0804258839999,1108.0804258839999,1108.0804258839999,1108.0804258839999,,,,,,,,,,,,,,,,,,,,,,,,,,,,,,,,,,,,,,,03,006,2022-09-23_11h44.53.692,test2,2022.2.4,59.82780027509361,
0,0,0,0,103,0,103,0,1108.0804258839999,1108.0804258839999,1108.0804258839999,1108.0804258839999,1108.0804258839999,1108.0804258839999,1108.0804258839999,-1,1,rojo,1,['N_B'],1109.999523982,1109.999523982,1109.999523982,1109.999523982,1112.0347343660005,1112.0347343660005,1112.0347343660005,1112.0347343660005,1112.0347343660005,1112.0347343660005,1112.0347343660005,1112.0347343660005,1114.0706174020006,1114.0706174020006,1114.0706174020006,1114.0706174020006,,,,,,,,,,,,,,,,,,,,,,,,,,,,,,,,,,,,,,,03,006,2022-09-23_11h44.53.692,test2,2022.2.4,59.82780027509361,
0,0,0,0,104,0,104,0,1114.0706174020006,1114.0706174020006,1114.0706174020006,1114.0706174020006,1114.0706174020006,1114.0706174020006,1114.0706174020006,-1,-1,rojo,1,['N_B'],1116.2897183060004,1116.2897183060004,1116.2897183060004,1116.2897183060004,1118.3254724460003,1118.3254724460003,1118.3254724460003,1118.3254724460003,1118.3254724460003,1118.3254724460003,1118.3254724460003,1118.3254724460003,1120.3606383320002,1120.3606383320002,1120.3606383320002,1120.3606383320002,,,,,,,,,,,,,,,,,,,,,,,,,,,,,,,,,,,,,,,03,006,2022-09-23_11h44.53.692,test2,2022.2.4,59.82780027509361,
0,0,0,0,105,0,105,0,1120.3606383320002,1120.3606383320002,1120.3606383320002,1120.3606383320002,1120.3606383320002,1120.3606383320002,1120.3606383320002,1,-1,azul,1,['N_B'],1123.6308256090006,1123.6308256090006,1123.6308256090006,1123.6308256090006,1125.6669970789999,1125.6669970789999,1125.6669970789999,1125.6669970789999,1125.6669970789999,1125.6669970789999,1125.6669970789999,1125.6669970789999,1127.7020061110006,1127.7020061110006,1127.7020061110006,1127.7020061110006,,,,,,,,,,,,,,,,,,,,,,,,,,,,,,,,,,,,,,,03,006,2022-09-23_11h44.53.692,test2,2022.2.4,59.82780027509361,
0,0,0,0,106,0,106,0,1127.7020061110006,1127.7020061110006,1127.7020061110006,1127.7020061110006,1127.7020061110006,1127.7020061110006,1127.7020061110006,1,1,azul,1,['N_B'],1129.4538905810005,1129.4538905810005,1129.4538905810005,1129.4538905810005,1131.472264268,1131.472264268,1131.472264268,1131.472264268,1131.472264268,1131.472264268,1131.472264268,1131.472264268,1133.5082635360004,1133.5082635360004,1133.5082635360004,1133.5082635360004,,,,,,,,,,,,,,,,,,,,,,,,,,,,,,,,,,,,,,,03,006,2022-09-23_11h44.53.692,test2,2022.2.4,59.82780027509361,
0,0,0,0,107,0,107,0,1133.5082635360004,1133.5082635360004,1133.5082635360004,1133.5082635360004,1133.5082635360004,1133.5082635360004,1133.5082635360004,1,1,azul,1,['N_B'],1135.227264092,1135.227264092,1135.227264092,1135.227264092,1137.2623557610004,1137.2623557610004,1137.2623557610004,1137.2623557610004,1137.2623557610004,1137.2623557610004,1137.2623557610004,1137.2623557610004,1139.298397384,1139.298397384,1139.298397384,1139.298397384,,,,,,,,,,,,,,,,,,,,,,,,,,,,,,,,,,,,,,,03,006,2022-09-23_11h44.53.692,test2,2022.2.4,59.82780027509361,
0,0,0,0,108,0,108,0,1139.298397384,1139.298397384,1139.298397384,1139.298397384,1139.298397384,1139.298397384,1139.298397384,1,-1,azul,1,['N_B'],1141.1163422440004,1141.1163422440004,1141.1163422440004,1141.1163422440004,1143.1525302720001,1143.1525302720001,1143.1525302720001,1143.1525302720001,1143.1525302720001,1143.1525302720001,1143.1525302720001,1143.1525302720001,1145.188296837,1145.188296837,1145.188296837,1145.188296837,,,,,,,,,,,,,,,,,,,,,,,,,,,,,,,,,,,,,,,03,006,2022-09-23_11h44.53.692,test2,2022.2.4,59.82780027509361,
0,0,0,0,109,0,109,0,1145.188296837,1145.188296837,1145.188296837,1145.188296837,1145.188296837,1145.188296837,1145.188296837,1,1,azul,1,['N_B'],1147.0067905800006,1147.0067905800006,1147.0067905800006,1147.0067905800006,1149.0254221620007,1149.0254221620007,1149.0254221620007,1149.0254221620007,1149.0254221620007,1149.0254221620007,1149.0254221620007,1149.0254221620007,1151.061374025,1151.061374025,1151.061374025,1151.061374025,,,,,,,,,,,,,,,,,,,,,,,,,,,,,,,,,,,,,,,03,006,2022-09-23_11h44.53.692,test2,2022.2.4,59.82780027509361,
0,0,0,0,110,0,110,0,1151.061374025,1151.061374025,1151.061374025,1151.061374025,1151.061374025,1151.061374025,1151.061374025,1,1,azul,1,['N_B'],1153.5468276730007,1153.5468276730007,1153.5468276730007,1153.5468276730007,1155.5653573630007,1155.5653573630007,1155.5653573630007,1155.5653573630007,1155.5653573630007,1155.5653573630007,1155.5653573630007,1155.5653573630007,1157.6017794990003,1157.6017794990003,1157.6017794990003,1157.6017794990003,,,,,,,,,,,,,,,,,,,,,,,,,,,,,,,,,,,,,,,03,006,2022-09-23_11h44.53.692,test2,2022.2.4,59.82780027509361,
0,0,0,0,111,0,111,0,1157.6017794990003,1157.6017794990003,1157.6017794990003,1157.6017794990003,1157.6017794990003,1157.6017794990003,1157.6017794990003,1,1,azul,1,['N_B'],1159.2863379890005,1159.2863379890005,1159.2863379890005,1159.2863379890005,1161.3057850040004,1161.3057850040004,1161.3057850040004,1161.3057850040004,1161.3057850040004,1161.3057850040004,1161.3057850040004,1161.3057850040004,1163.341302834,1163.341302834,1163.341302834,1163.341302834,,,,,,,,,,,,,,,,,,,,,,,,,,,,,,,,,,,,,,,03,006,2022-09-23_11h44.53.692,test2,2022.2.4,59.82780027509361,
0,0,0,0,112,0,112,0,1163.341302834,1163.341302834,1163.341302834,1163.341302834,1163.341302834,1163.341302834,1163.341302834,1,1,azul,1,['N_B'],1166.9614320780001,1166.9614320780001,1166.9614320780001,1166.9614320780001,1168.9975713459999,1168.9975713459999,1168.9975713459999,1168.9975713459999,1168.9975713459999,1168.9975713459999,1168.9975713459999,1168.9975713459999,1171.0334747510005,1171.0334747510005,1171.0334747510005,1171.0334747510005,,,,,,,,,,,,,,,,,,,,,,,,,,,,,,,,,,,,,,,03,006,2022-09-23_11h44.53.692,test2,2022.2.4,59.82780027509361,
0,0,0,0,113,0,113,0,1171.0334747510005,1171.0334747510005,1171.0334747510005,1171.0334747510005,1171.0334747510005,1171.0334747510005,1171.0334747510005,1,-1,azul,1,['N_B'],1173.2189944480006,1173.2189944480006,1173.2189944480006,1173.2189944480006,1175.2542511370002,1175.2542511370002,1175.2542511370002,1175.2542511370002,1175.2542511370002,1175.2542511370002,1175.2542511370002,1175.2542511370002,1177.290045099,1177.290045099,1177.290045099,1177.290045099,,,,,,,,,,,,,,,,,,,,,,,,,,,,,,,,,,,,,,,03,006,2022-09-23_11h44.53.692,test2,2022.2.4,59.82780027509361,
0,0,0,0,114,0,114,0,1177.290045099,1177.290045099,1177.290045099,1177.290045099,1177.290045099,1177.290045099,1177.290045099,1,1,azul,1,['N_B'],1179.0085519900003,1179.0085519900003,1179.0085519900003,1179.0085519900003,1181.0437846980003,1181.0437846980003,1181.0437846980003,1181.0437846980003,1181.0437846980003,1181.0437846980003,1181.0437846980003,1181.0437846980003,1183.0798706250007,1183.0798706250007,1183.0798706250007,1183.0798706250007,,,,,,,,,,,,,,,,,,,,,,,,,,,,,,,,,,,,,,,03,006,2022-09-23_11h44.53.692,test2,2022.2.4,59.82780027509361,
0,0,0,0,115,0,115,0,1183.0798706250007,1183.0798706250007,1183.0798706250007,1183.0798706250007,1183.0798706250007,1183.0798706250007,1183.0798706250007,-1,-1,rojo,1,['N_B'],1187.500878062,1187.500878062,1187.500878062,1187.500878062,1189.5368674740002,1189.5368674740002,1189.5368674740002,1189.5368674740002,1189.5368674740002,1189.5368674740002,1189.5368674740002,1189.5368674740002,1191.572204907,1191.572204907,1191.572204907,1191.572204907,,,,,,,,,,,,,,,,,,,,,,,,,,,,,,,,,,,,,,,03,006,2022-09-23_11h44.53.692,test2,2022.2.4,59.82780027509361,
0,0,0,0,116,0,116,0,1191.572204907,1191.572204907,1191.572204907,1191.572204907,1191.572204907,1191.572204907,1191.572204907,1,1,azul,1,['N_B'],1193.5581563310006,1193.5581563310006,1193.5581563310006,1193.5581563310006,1195.5936082670005,1195.5936082670005,1195.5936082670005,1195.5936082670005,1195.5936082670005,1195.5936082670005,1195.5936082670005,1195.5936082670005,1197.6286607490001,1197.6286607490001,1197.6286607490001,1197.6286607490001,,,,,,,,,,,,,,,,,,,,,,,,,,,,,,,,,,,,,,,03,006,2022-09-23_11h44.53.692,test2,2022.2.4,59.82780027509361,
0,0,0,0,117,0,117,0,1197.6286607490001,1197.6286607490001,1197.6286607490001,1197.6286607490001,1197.6286607490001,1197.6286607490001,1197.6286607490001,1,-1,azul,1,['N_B'],1199.647946729,1199.647946729,1199.647946729,1199.647946729,1201.683233052,1201.683233052,1201.683233052,1201.683233052,1201.683233052,1201.683233052,1201.683233052,1201.683233052,1203.719654638,1203.719654638,1203.719654638,1203.719654638,,,,,,,,,,,,,,,,,,,,,,,,,,,,,,,,,,,,,,,03,006,2022-09-23_11h44.53.692,test2,2022.2.4,59.82780027509361,
0,0,0,0,118,0,118,0,1203.719654638,1203.719654638,1203.719654638,1203.719654638,1203.719654638,1203.719654638,1203.719654638,1,1,azul,1,['N_B'],1211.9112894790005,1211.9112894790005,1211.9112894790005,1211.9112894790005,1213.9295980420002,1213.9295980420002,1213.9295980420002,1213.9295980420002,1213.9295980420002,1213.9295980420002,1213.9295980420002,1213.9295980420002,1215.9659367110007,1215.9659367110007,1215.9659367110007,1215.9659367110007,,,,,,,,,,,,,,,,,,,,,,,,,,,,,,,,,,,,,,,03,006,2022-09-23_11h44.53.692,test2,2022.2.4,59.82780027509361,
0,0,0,0,119,0,119,0,1215.9659367110007,1215.9659367110007,1215.9659367110007,1215.9659367110007,1215.9659367110007,1215.9659367110007,1215.9659367110007,-1,1,rojo,1,['N_B'],1220.4546584320005,1220.4546584320005,1220.4546584320005,1220.4546584320005,1222.473931867,1222.473931867,1222.473931867,1222.473931867,1222.473931867,1222.473931867,1222.473931867,1222.473931867,1224.5090578460004,1224.5090578460004,1224.5090578460004,1224.5090578460004,,,,,,,,,,,,,,,,,,,,,,,,,,,,,,,,,,,,,,,03,006,2022-09-23_11h44.53.692,test2,2022.2.4,59.82780027509361,
0,0,0,0,120,0,120,0,1224.5090578460004,1224.5090578460004,1224.5090578460004,1224.5090578460004,1224.5090578460004,1224.5090578460004,1224.5090578460004,-1,1,rojo,1,['N_B'],1231.9169661290007,1231.9169661290007,1231.9169661290007,1231.9169661290007,1233.9357040430004,1233.9357040430004,1233.9357040430004,1233.9357040430004,1233.9357040430004,1233.9357040430004,1233.9357040430004,1233.9357040430004,1235.9718168050003,1235.9718168050003,1235.9718168050003,1235.9718168050003,,,,,,,,,,,,,,,,,,,,,,,,,,,,,,,,,,,,,,,03,006,2022-09-23_11h44.53.692,test2,2022.2.4,59.82780027509361,
0,0,0,0,121,0,121,0,1235.9718168050003,1235.9718168050003,1235.9718168050003,1235.9718168050003,1235.9718168050003,1235.9718168050003,1235.9718168050003,1,1,azul,1,['N_B'],1237.6565213909998,1237.6565213909998,1237.6565213909998,1237.6565213909998,1239.6753308160005,1239.6753308160005,1239.6753308160005,1239.6753308160005,1239.6753308160005,1239.6753308160005,1239.6753308160005,1239.6753308160005,1241.7110674980004,1241.7110674980004,1241.7110674980004,1241.7110674980004,,,,,,,,,,,,,,,,,,,,,,,,,,,,,,,,,,,,,,,03,006,2022-09-23_11h44.53.692,test2,2022.2.4,59.82780027509361,
0,0,0,0,122,0,122,0,1241.7110674980004,1241.7110674980004,1241.7110674980004,1241.7110674980004,1241.7110674980004,1241.7110674980004,1241.7110674980004,1,1,azul,1,['N_B'],1243.3629530670005,1243.3629530670005,1243.3629530670005,1243.3629530670005,1245.3826674800002,1245.3826674800002,1245.3826674800002,1245.3826674800002,1245.3826674800002,1245.3826674800002,1245.3826674800002,1245.3826674800002,1247.4177150450005,1247.4177150450005,1247.4177150450005,1247.4177150450005,,,,,,,,,,,,,,,,,,,,,,,,,,,,,,,,,,,,,,,03,006,2022-09-23_11h44.53.692,test2,2022.2.4,59.82780027509361,
0,0,0,0,123,0,123,0,1247.4177150450005,1247.4177150450005,1247.4177150450005,1247.4177150450005,1247.4177150450005,1247.4177150450005,1247.4177150450005,-1,1,rojo,1,['N_B'],1249.169699137,1249.169699137,1249.169699137,1249.169699137,1251.187883169,1251.187883169,1251.187883169,1251.187883169,1251.187883169,1251.187883169,1251.187883169,1251.187883169,1253.2238416180007,1253.2238416180007,1253.2238416180007,1253.2238416180007,,,,,,,,,,,,,,,,,,,,,,,,,,,,,,,,,,,,,,,03,006,2022-09-23_11h44.53.692,test2,2022.2.4,59.82780027509361,
0,0,0,0,124,0,124,0,1253.2238416180007,1253.2238416180007,1253.2238416180007,1253.2238416180007,1253.2238416180007,1253.2238416180007,1253.2238416180007,1,1,azul,1,['N_B'],1255.1088403960002,1255.1088403960002,1255.1088403960002,1255.1088403960002,1257.1444817640004,1257.1444817640004,1257.1444817640004,1257.1444817640004,1257.1444817640004,1257.1444817640004,1257.1444817640004,1257.1444817640004,1259.1804657050006,1259.1804657050006,1259.1804657050006,1259.1804657050006,,,,,,,,,,,,,,,,,,,,,,,,,,,,,,,,,,,,,,,03,006,2022-09-23_11h44.53.692,test2,2022.2.4,59.82780027509361,
0,0,0,0,125,0,125,0,1259.1804657050006,1259.1804657050006,1259.1804657050006,1259.1804657050006,1259.1804657050006,1259.1804657050006,1259.1804657050006,1,-1,azul,1,['N_B'],1260.8652752530006,1260.8652752530006,1260.8652752530006,1260.8652752530006,1262.9016408480002,1262.9016408480002,1262.9016408480002,1262.9016408480002,1262.9016408480002,1262.9016408480002,1262.9016408480002,1262.9016408480002,1264.9363507020007,1264.9363507020007,1264.9363507020007,1264.9363507020007,,,,,,,,,,,,,,,,,,,,,,,,,,,,,,,,,,,,,,,03,006,2022-09-23_11h44.53.692,test2,2022.2.4,59.82780027509361,
0,0,0,0,126,0,126,0,1264.9363507020007,1264.9363507020007,1264.9363507020007,1264.9363507020007,1264.9363507020007,1264.9363507020007,1264.9363507020007,1,1,azul,1,['N_B'],1266.955341631,1266.955341631,1266.955341631,1266.955341631,1268.9741808980007,1268.9741808980007,1268.9741808980007,1268.9741808980007,1268.9741808980007,1268.9741808980007,1268.9741808980007,1268.9741808980007,1271.0100787280007,1271.0100787280007,1271.0100787280007,1271.0100787280007,,,,,,,,,,,,,,,,,,,,,,,,,,,,,,,,,,,,,,,03,006,2022-09-23_11h44.53.692,test2,2022.2.4,59.82780027509361,
0,0,0,0,127,0,127,0,1271.0100787280007,1271.0100787280007,1271.0100787280007,1271.0100787280007,1271.0100787280007,1271.0100787280007,1271.0100787280007,1,1,azul,1,['N_B'],1273.2956556810004,1273.2956556810004,1273.2956556810004,1273.2956556810004,1275.3323167560002,1275.3323167560002,1275.3323167560002,1275.3323167560002,1275.3323167560002,1275.3323167560002,1275.3323167560002,1275.3323167560002,1277.366736682,1277.366736682,1277.366736682,1277.366736682,,,,,,,,,,,,,,,,,,,,,,,,,,,,,,,,,,,,,,,03,006,2022-09-23_11h44.53.692,test2,2022.2.4,59.82780027509361,
0,0,0,0,128,0,128,0,1277.366736682,1277.366736682,1277.366736682,1277.366736682,1277.366736682,1277.366736682,1277.366736682,-1,-1,rojo,1,['N_B'],1279.4855368960007,1279.4855368960007,1279.4855368960007,1279.4855368960007,1281.521550261,1281.521550261,1281.521550261,1281.521550261,1281.521550261,1281.521550261,1281.521550261,1281.521550261,1283.5568354490006,1283.5568354490006,1283.5568354490006,1283.5568354490006,,,,,,,,,,,,,,,,,,,,,,,,,,,,,,,,,,,,,,,03,006,2022-09-23_11h44.53.692,test2,2022.2.4,59.82780027509361,
0,0,0,0,129,0,129,0,1283.5568354490006,1283.5568354490006,1283.5568354490006,1283.5568354490006,1283.5568354490006,1283.5568354490006,1283.5568354490006,-1,1,rojo,1,['N_B'],1285.2759797590006,1285.2759797590006,1285.2759797590006,1285.2759797590006,1287.3117337630001,1287.3117337630001,1287.3117337630001,1287.3117337630001,1287.3117337630001,1287.3117337630001,1287.3117337630001,1287.3117337630001,1289.3468652820002,1289.3468652820002,1289.3468652820002,1289.3468652820002,,,,,,,,,,,,,,,,,,,,,,,,,,,,,,,,,,,,,,,03,006,2022-09-23_11h44.53.692,test2,2022.2.4,59.82780027509361,
0,0,0,0,130,0,130,0,1289.3468652820002,1289.3468652820002,1289.3468652820002,1289.3468652820002,1289.3468652820002,1289.3468652820002,1289.3468652820002,1,-1,azul,1,['N_B'],1290.9317496070007,1290.9317496070007,1290.9317496070007,1290.9317496070007,1292.9681970790007,1292.9681970790007,1292.9681970790007,1292.9681970790007,1292.9681970790007,1292.9681970790007,1292.9681970790007,1292.9681970790007,1295.0038760400003,1295.0038760400003,1295.0038760400003,1295.0038760400003,,,,,,,,,,,,,,,,,,,,,,,,,,,,,,,,,,,,,,,03,006,2022-09-23_11h44.53.692,test2,2022.2.4,59.82780027509361,
0,0,0,0,131,0,131,0,1295.0038760400003,1295.0038760400003,1295.0038760400003,1295.0038760400003,1295.0038760400003,1295.0038760400003,1295.0038760400003,1,1,azul,1,['N_B'],1296.638653893,1296.638653893,1296.638653893,1296.638653893,1298.6575103980003,1298.6575103980003,1298.6575103980003,1298.6575103980003,1298.6575103980003,1298.6575103980003,1298.6575103980003,1298.6575103980003,1300.692474114,1300.692474114,1300.692474114,1300.692474114,,,,,,,,,,,,,,,,,,,,,,,,,,,,,,,,,,,,,,,03,006,2022-09-23_11h44.53.692,test2,2022.2.4,59.82780027509361,
0,0,0,0,132,0,132,0,1300.692474114,1300.692474114,1300.692474114,1300.692474114,1300.692474114,1300.692474114,1300.692474114,1,1,azul,1,['N_B'],1303.2128806340006,1303.2128806340006,1303.2128806340006,1303.2128806340006,1305.2318449080003,1305.2318449080003,1305.2318449080003,1305.2318449080003,1305.2318449080003,1305.2318449080003,1305.2318449080003,1305.2318449080003,1307.2664480000003,1307.2664480000003,1307.2664480000003,1307.2664480000003,,,,,,,,,,,,,,,,,,,,,,,,,,,,,,,,,,,,,,,03,006,2022-09-23_11h44.53.692,test2,2022.2.4,59.82780027509361,
0,0,0,0,133,0,133,0,1307.2664480000003,1307.2664480000003,1307.2664480000003,1307.2664480000003,1307.2664480000003,1307.2664480000003,1307.2664480000003,1,1,azul,1,['N_B'],1309.6194219480003,1309.6194219480003,1309.6194219480003,1309.6194219480003,1311.6548304670005,1311.6548304670005,1311.6548304670005,1311.6548304670005,1311.6548304670005,1311.6548304670005,1311.6548304670005,1311.6548304670005,1313.691013189,1313.691013189,1313.691013189,1313.691013189,,,,,,,,,,,,,,,,,,,,,,,,,,,,,,,,,,,,,,,03,006,2022-09-23_11h44.53.692,test2,2022.2.4,59.82780027509361,
0,0,0,0,134,0,134,0,1313.691013189,1313.691013189,1313.691013189,1313.691013189,1313.691013189,1313.691013189,1313.691013189,-1,-1,rojo,1,['N_B'],1316.4434714070003,1316.4434714070003,1316.4434714070003,1316.4434714070003,1318.4796826230004,1318.4796826230004,1318.4796826230004,1318.4796826230004,1318.4796826230004,1318.4796826230004,1318.4796826230004,1318.4796826230004,1320.5149074030005,1320.5149074030005,1320.5149074030005,1320.5149074030005,,,,,,,,,,,,,,,,,,,,,,,,,,,,,,,,,,,,,,,03,006,2022-09-23_11h44.53.692,test2,2022.2.4,59.82780027509361,
0,0,0,0,135,0,135,0,1320.5149074030005,1320.5149074030005,1320.5149074030005,1320.5149074030005,1320.5149074030005,1320.5149074030005,1320.5149074030005,1,-1,azul,0,['N_A'],1323.2511804760006,1323.2511804760006,1323.2511804760006,1323.2511804760006,1325.2861022480001,1325.2861022480001,1325.2861022480001,1325.2861022480001,1325.2861022480001,1325.2861022480001,1325.2861022480001,1325.2861022480001,1327.322166131,1327.322166131,1327.322166131,1327.322166131,,,,,,,,,,,,,,,,,,,,,,,,,,,,,,,,,,,,,,,03,006,2022-09-23_11h44.53.692,test2,2022.2.4,59.82780027509361,
0,0,0,0,136,0,136,0,1327.322166131,1327.322166131,1327.322166131,1327.322166131,1327.322166131,1327.322166131,1327.322166131,1,-1,rojo,1,['N_A'],1329.2746736690005,1329.2746736690005,1329.2746736690005,1329.2746736690005,1331.3099798170006,1331.3099798170006,1331.3099798170006,1331.3099798170006,1331.3099798170006,1331.3099798170006,1331.3099798170006,1331.3099798170006,1333.3449725710007,1333.3449725710007,1333.3449725710007,1333.3449725710007,,,,,,,,,,,,,,,,,,,,,,,,,,,,,,,,,,,,,,,03,006,2022-09-23_11h44.53.692,test2,2022.2.4,59.82780027509361,
0,0,0,0,137,0,137,0,1333.3449725710007,1333.3449725710007,1333.3449725710007,1333.3449725710007,1333.3449725710007,1333.3449725710007,1333.3449725710007,1,1,rojo,1,['N_A'],1334.8970156120004,1334.8970156120004,1334.8970156120004,1334.8970156120004,1336.915068841,1336.915068841,1336.915068841,1336.915068841,1336.915068841,1336.915068841,1336.915068841,1336.915068841,1338.9521050890007,1338.9521050890007,1338.9521050890007,1338.9521050890007,,,,,,,,,,,,,,,,,,,,,,,,,,,,,,,,,,,,,,,03,006,2022-09-23_11h44.53.692,test2,2022.2.4,59.82780027509361,
0,0,0,0,138,0,138,0,1338.9521050890007,1338.9521050890007,1338.9521050890007,1338.9521050890007,1338.9521050890007,1338.9521050890007,1338.9521050890007,1,1,rojo,1,['N_A'],1340.5863039430005,1340.5863039430005,1340.5863039430005,1340.5863039430005,1342.6046839580004,1342.6046839580004,1342.6046839580004,1342.6046839580004,1342.6046839580004,1342.6046839580004,1342.6046839580004,1342.6046839580004,1344.6416187949999,1344.6416187949999,1344.6416187949999,1344.6416187949999,,,,,,,,,,,,,,,,,,,,,,,,,,,,,,,,,,,,,,,03,006,2022-09-23_11h44.53.692,test2,2022.2.4,59.82780027509361,
0,0,0,0,139,0,139,0,1344.6416187949999,1344.6416187949999,1344.6416187949999,1344.6416187949999,1344.6416187949999,1344.6416187949999,1344.6416187949999,1,1,rojo,1,['N_A'],1346.2932895930007,1346.2932895930007,1346.2932895930007,1346.2932895930007,1348.3108450570007,1348.3108450570007,1348.3108450570007,1348.3108450570007,1348.3108450570007,1348.3108450570007,1348.3108450570007,1348.3108450570007,1350.347770413,1350.347770413,1350.347770413,1350.347770413,,,,,,,,,,,,,,,,,,,,,,,,,,,,,,,,,,,,,,,03,006,2022-09-23_11h44.53.692,test2,2022.2.4,59.82780027509361,
0,0,0,0,140,0,140,0,1350.347770413,1350.347770413,1350.347770413,1350.347770413,1350.347770413,1350.347770413,1350.347770413,-1,1,azul,1,['N_A'],1352.9667809350003,1352.9667809350003,1352.9667809350003,1352.9667809350003,1355.0028687479999,1355.0028687479999,1355.0028687479999,1355.0028687479999,1355.0028687479999,1355.0028687479999,1355.0028687479999,1355.0028687479999,1357.0385468020004,1357.0385468020004,1357.0385468020004,1357.0385468020004,,,,,,,,,,,,,,,,,,,,,,,,,,,,,,,,,,,,,,,03,006,2022-09-23_11h44.53.692,test2,2022.2.4,59.82780027509361,
0,0,0,0,141,0,141,0,1357.0385468020004,1357.0385468020004,1357.0385468020004,1357.0385468020004,1357.0385468020004,1357.0385468020004,1357.0385468020004,-1,-1,azul,1,['N_A'],1360.3923598340007,1360.3923598340007,1360.3923598340007,1360.3923598340007,1362.4272790969999,1362.4272790969999,1362.4272790969999,1362.4272790969999,1362.4272790969999,1362.4272790969999,1362.4272790969999,1362.4272790969999,1364.4636242470006,1364.4636242470006,1364.4636242470006,1364.4636242470006,,,,,,,,,,,,,,,,,,,,,,,,,,,,,,,,,,,,,,,03,006,2022-09-23_11h44.53.692,test2,2022.2.4,59.82780027509361,
0,0,0,0,142,0,142,0,1364.4636242470006,1364.4636242470006,1364.4636242470006,1364.4636242470006,1364.4636242470006,1364.4636242470006,1364.4636242470006,1,1,rojo,1,['N_A'],1366.3487528000005,1366.3487528000005,1366.3487528000005,1366.3487528000005,1368.3838057840003,1368.3838057840003,1368.3838057840003,1368.3838057840003,1368.3838057840003,1368.3838057840003,1368.3838057840003,1368.3838057840003,1370.4191272690005,1370.4191272690005,1370.4191272690005,1370.4191272690005,,,,,,,,,,,,,,,,,,,,,,,,,,,,,,,,,,,,,,,03,006,2022-09-23_11h44.53.692,test2,2022.2.4,59.82780027509361,
0,0,0,0,143,0,143,0,1370.4191272690005,1370.4191272690005,1370.4191272690005,1370.4191272690005,1370.4191272690005,1370.4191272690005,1370.4191272690005,1,-1,rojo,1,['N_A'],1372.037875246,1372.037875246,1372.037875246,1372.037875246,1374.073780668,1374.073780668,1374.073780668,1374.073780668,1374.073780668,1374.073780668,1374.073780668,1374.073780668,1376.1090988800006,1376.1090988800006,1376.1090988800006,1376.1090988800006,,,,,,,,,,,,,,,,,,,,,,,,,,,,,,,,,,,,,,,03,006,2022-09-23_11h44.53.692,test2,2022.2.4,59.82780027509361,
0,0,0,0,144,0,144,0,1376.1090988800006,1376.1090988800006,1376.1090988800006,1376.1090988800006,1376.1090988800006,1376.1090988800006,1376.1090988800006,1,1,rojo,1,['N_A'],1378.0280673120005,1378.0280673120005,1378.0280673120005,1378.0280673120005,1380.064040483,1380.064040483,1380.064040483,1380.064040483,1380.064040483,1380.064040483,1380.064040483,1380.064040483,1382.099482904,1382.099482904,1382.099482904,1382.099482904,,,,,,,,,,,,,,,,,,,,,,,,,,,,,,,,,,,,,,,03,006,2022-09-23_11h44.53.692,test2,2022.2.4,59.82780027509361,
0,0,0,0,145,0,145,0,1382.099482904,1382.099482904,1382.099482904,1382.099482904,1382.099482904,1382.099482904,1382.099482904,1,-1,rojo,1,['N_A'],1384.4688279040001,1384.4688279040001,1384.4688279040001,1384.4688279040001,1386.5037175420002,1386.5037175420002,1386.5037175420002,1386.5037175420002,1386.5037175420002,1386.5037175420002,1386.5037175420002,1386.5037175420002,1388.5399349340005,1388.5399349340005,1388.5399349340005,1388.5399349340005,,,,,,,,,,,,,,,,,,,,,,,,,,,,,,,,,,,,,,,03,006,2022-09-23_11h44.53.692,test2,2022.2.4,59.82780027509361,
0,0,0,0,146,0,146,0,1388.5399349340005,1388.5399349340005,1388.5399349340005,1388.5399349340005,1388.5399349340005,1388.5399349340005,1388.5399349340005,1,1,rojo,1,['N_A'],1390.1752908990002,1390.1752908990002,1390.1752908990002,1390.1752908990002,1392.1925165520006,1392.1925165520006,1392.1925165520006,1392.1925165520006,1392.1925165520006,1392.1925165520006,1392.1925165520006,1392.1925165520006,1394.2298307400006,1394.2298307400006,1394.2298307400006,1394.2298307400006,,,,,,,,,,,,,,,,,,,,,,,,,,,,,,,,,,,,,,,03,006,2022-09-23_11h44.53.692,test2,2022.2.4,59.82780027509361,
0,0,0,0,147,0,147,0,1394.2298307400006,1394.2298307400006,1394.2298307400006,1394.2298307400006,1394.2298307400006,1394.2298307400006,1394.2298307400006,-1,1,azul,1,['N_A'],1395.847832513,1395.847832513,1395.847832513,1395.847832513,1397.866645387,1397.866645387,1397.866645387,1397.866645387,1397.866645387,1397.866645387,1397.866645387,1397.866645387,1399.902465174,1399.902465174,1399.902465174,1399.902465174,,,,,,,,,,,,,,,,,,,,,,,,,,,,,,,,,,,,,,,03,006,2022-09-23_11h44.53.692,test2,2022.2.4,59.82780027509361,
0,0,0,0,148,0,148,0,1399.902465174,1399.902465174,1399.902465174,1399.902465174,1399.902465174,1399.902465174,1399.902465174,-1,1,azul,1,['N_A'],1401.6373905150003,1401.6373905150003,1401.6373905150003,1401.6373905150003,1403.6731563600006,1403.6731563600006,1403.6731563600006,1403.6731563600006,1403.6731563600006,1403.6731563600006,1403.6731563600006,1403.6731563600006,1405.708952545,1405.708952545,1405.708952545,1405.708952545,,,,,,,,,,,,,,,,,,,,,,,,,,,,,,,,,,,,,,,03,006,2022-09-23_11h44.53.692,test2,2022.2.4,59.82780027509361,
0,0,0,0,149,0,149,0,1405.708952545,1405.708952545,1405.708952545,1405.708952545,1405.708952545,1405.708952545,1405.708952545,1,-1,rojo,1,['N_A'],1407.2940407690003,1407.2940407690003,1407.2940407690003,1407.2940407690003,1409.3293223350001,1409.3293223350001,1409.3293223350001,1409.3293223350001,1409.3293223350001,1409.3293223350001,1409.3293223350001,1409.3293223350001,1411.3643590680003,1411.3643590680003,1411.3643590680003,1411.3643590680003,,,,,,,,,,,,,,,,,,,,,,,,,,,,,,,,,,,,,,,03,006,2022-09-23_11h44.53.692,test2,2022.2.4,59.82780027509361,
0,0,0,0,150,0,150,0,1411.3643590680003,1411.3643590680003,1411.3643590680003,1411.3643590680003,1411.3643590680003,1411.3643590680003,1411.3643590680003,1,1,rojo,1,['N_A'],1413.450491402,1413.450491402,1413.450491402,1413.450491402,1415.469125359,1415.469125359,1415.469125359,1415.469125359,1415.469125359,1415.469125359,1415.469125359,1415.469125359,1417.5053438559999,1417.5053438559999,1417.5053438559999,1417.5053438559999,,,,,,,,,,,,,,,,,,,,,,,,,,,,,,,,,,,,,,,03,006,2022-09-23_11h44.53.692,test2,2022.2.4,59.82780027509361,
0,0,0,0,151,0,151,0,1417.5053438559999,1417.5053438559999,1417.5053438559999,1417.5053438559999,1417.5053438559999,1417.5053438559999,1417.5053438559999,1,1,rojo,1,['N_A'],1419.6569714050001,1419.6569714050001,1419.6569714050001,1419.6569714050001,1421.6762571680001,1421.6762571680001,1421.6762571680001,1421.6762571680001,1421.6762571680001,1421.6762571680001,1421.6762571680001,1421.6762571680001,1423.712159541,1423.712159541,1423.712159541,1423.712159541,,,,,,,,,,,,,,,,,,,,,,,,,,,,,,,,,,,,,,,03,006,2022-09-23_11h44.53.692,test2,2022.2.4,59.82780027509361,
0,0,0,0,152,0,152,0,1423.712159541,1423.712159541,1423.712159541,1423.712159541,1423.712159541,1423.712159541,1423.712159541,1,1,rojo,1,['N_A'],1425.8976775580004,1425.8976775580004,1425.8976775580004,1425.8976775580004,1427.9157395970005,1427.9157395970005,1427.9157395970005,1427.9157395970005,1427.9157395970005,1427.9157395970005,1427.9157395970005,1427.9157395970005,1429.952557441,1429.952557441,1429.952557441,1429.952557441,,,,,,,,,,,,,,,,,,,,,,,,,,,,,,,,,,,,,,,03,006,2022-09-23_11h44.53.692,test2,2022.2.4,59.82780027509361,
0,0,0,0,153,0,153,0,1429.952557441,1429.952557441,1429.952557441,1429.952557441,1429.952557441,1429.952557441,1429.952557441,-1,1,azul,1,['N_A'],1431.7205972970005,1431.7205972970005,1431.7205972970005,1431.7205972970005,1433.739457101,1433.739457101,1433.739457101,1433.739457101,1433.739457101,1433.739457101,1433.739457101,1433.739457101,1435.7747851640006,1435.7747851640006,1435.7747851640006,1435.7747851640006,,,,,,,,,,,,,,,,,,,,,,,,,,,,,,,,,,,,,,,03,006,2022-09-23_11h44.53.692,test2,2022.2.4,59.82780027509361,
0,0,0,0,154,0,154,0,1435.7747851640006,1435.7747851640006,1435.7747851640006,1435.7747851640006,1435.7747851640006,1435.7747851640006,1435.7747851640006,1,1,rojo,1,['N_A'],1437.3437462020001,1437.3437462020001,1437.3437462020001,1437.3437462020001,1439.362216095,1439.362216095,1439.362216095,1439.362216095,1439.362216095,1439.362216095,1439.362216095,1439.362216095,1441.3977450620005,1441.3977450620005,1441.3977450620005,1441.3977450620005,,,,,,,,,,,,,,,,,,,,,,,,,,,,,,,,,,,,,,,03,006,2022-09-23_11h44.53.692,test2,2022.2.4,59.82780027509361,
0,0,0,0,155,0,155,0,1441.3977450620005,1441.3977450620005,1441.3977450620005,1441.3977450620005,1441.3977450620005,1441.3977450620005,1441.3977450620005,1,1,rojo,1,['N_A'],1444.0179007080005,1444.0179007080005,1444.0179007080005,1444.0179007080005,1446.0358898570003,1446.0358898570003,1446.0358898570003,1446.0358898570003,1446.0358898570003,1446.0358898570003,1446.0358898570003,1446.0358898570003,1448.0725025840002,1448.0725025840002,1448.0725025840002,1448.0725025840002,,,,,,,,,,,,,,,,,,,,,,,,,,,,,,,,,,,,,,,03,006,2022-09-23_11h44.53.692,test2,2022.2.4,59.82780027509361,
0,0,0,0,156,0,156,0,1448.0725025840002,1448.0725025840002,1448.0725025840002,1448.0725025840002,1448.0725025840002,1448.0725025840002,1448.0725025840002,-1,1,azul,1,['N_A'],1450.725041652,1450.725041652,1450.725041652,1450.725041652,1452.7444805370005,1452.7444805370005,1452.7444805370005,1452.7444805370005,1452.7444805370005,1452.7444805370005,1452.7444805370005,1452.7444805370005,1454.7798417570002,1454.7798417570002,1454.7798417570002,1454.7798417570002,,,,,,,,,,,,,,,,,,,,,,,,,,,,,,,,,,,,,,,03,006,2022-09-23_11h44.53.692,test2,2022.2.4,59.82780027509361,
0,0,0,0,157,0,157,0,1454.7798417570002,1454.7798417570002,1454.7798417570002,1454.7798417570002,1454.7798417570002,1454.7798417570002,1454.7798417570002,1,1,rojo,1,['N_A'],1456.7981055500004,1456.7981055500004,1456.7981055500004,1456.7981055500004,1458.8171972170003,1458.8171972170003,1458.8171972170003,1458.8171972170003,1458.8171972170003,1458.8171972170003,1458.8171972170003,1458.8171972170003,1460.8530404050007,1460.8530404050007,1460.8530404050007,1460.8530404050007,,,,,,,,,,,,,,,,,,,,,,,,,,,,,,,,,,,,,,,03,006,2022-09-23_11h44.53.692,test2,2022.2.4,59.82780027509361,
0,0,0,0,158,0,158,0,1460.8530404050007,1460.8530404050007,1460.8530404050007,1460.8530404050007,1460.8530404050007,1460.8530404050007,1460.8530404050007,1,1,rojo,1,['N_A'],1462.638359603,1462.638359603,1462.638359603,1462.638359603,1464.6567408700002,1464.6567408700002,1464.6567408700002,1464.6567408700002,1464.6567408700002,1464.6567408700002,1464.6567408700002,1464.6567408700002,1466.6924126530002,1466.6924126530002,1466.6924126530002,1466.6924126530002,,,,,,,,,,,,,,,,,,,,,,,,,,,,,,,,,,,,,,,03,006,2022-09-23_11h44.53.692,test2,2022.2.4,59.82780027509361,
0,0,0,0,159,0,159,0,1466.6924126530002,1466.6924126530002,1466.6924126530002,1466.6924126530002,1466.6924126530002,1466.6924126530002,1466.6924126530002,-1,1,azul,1,['N_A'],1468.978245366,1468.978245366,1468.978245366,1468.978245366,1471.0138832940002,1471.0138832940002,1471.0138832940002,1471.0138832940002,1471.0138832940002,1471.0138832940002,1471.0138832940002,1471.0138832940002,1473.0498763100004,1473.0498763100004,1473.0498763100004,1473.0498763100004,,,,,,,,,,,,,,,,,,,,,,,,,,,,,,,,,,,,,,,03,006,2022-09-23_11h44.53.692,test2,2022.2.4,59.82780027509361,
0,0,0,0,160,0,160,0,1473.0498763100004,1473.0498763100004,1473.0498763100004,1473.0498763100004,1473.0498763100004,1473.0498763100004,1473.0498763100004,1,-1,rojo,1,['N_A'],1474.835356441,1474.835356441,1474.835356441,1474.835356441,1476.8707536290003,1476.8707536290003,1476.8707536290003,1476.8707536290003,1476.8707536290003,1476.8707536290003,1476.8707536290003,1476.8707536290003,1478.9058690360007,1478.9058690360007,1478.9058690360007,1478.9058690360007,,,,,,,,,,,,,,,,,,,,,,,,,,,,,,,,,,,,,,,03,006,2022-09-23_11h44.53.692,test2,2022.2.4,59.82780027509361,
0,0,0,0,161,0,161,0,1478.9058690360007,1478.9058690360007,1478.9058690360007,1478.9058690360007,1478.9058690360007,1478.9058690360007,1478.9058690360007,1,1,rojo,1,['N_A'],1480.9250241520003,1480.9250241520003,1480.9250241520003,1480.9250241520003,1482.9429400300005,1482.9429400300005,1482.9429400300005,1482.9429400300005,1482.9429400300005,1482.9429400300005,1482.9429400300005,1482.9429400300005,1484.9799285100007,1484.9799285100007,1484.9799285100007,1484.9799285100007,,,,,,,,,,,,,,,,,,,,,,,,,,,,,,,,,,,,,,,03,006,2022-09-23_11h44.53.692,test2,2022.2.4,59.82780027509361,
0,0,0,0,162,0,162,0,1484.9799285100007,1484.9799285100007,1484.9799285100007,1484.9799285100007,1484.9799285100007,1484.9799285100007,1484.9799285100007,1,1,rojo,1,['N_A'],1487.198140177,1487.198140177,1487.198140177,1487.198140177,1489.2171739230007,1489.2171739230007,1489.2171739230007,1489.2171739230007,1489.2171739230007,1489.2171739230007,1489.2171739230007,1489.2171739230007,1491.2531937920003,1491.2531937920003,1491.2531937920003,1491.2531937920003,,,,,,,,,,,,,,,,,,,,,,,,,,,,,,,,,,,,,,,03,006,2022-09-23_11h44.53.692,test2,2022.2.4,59.82780027509361,
0,0,0,0,163,0,163,0,1491.2531937920003,1491.2531937920003,1491.2531937920003,1491.2531937920003,1491.2531937920003,1491.2531937920003,1491.2531937920003,-1,1,azul,1,['N_A'],1493.3717926400004,1493.3717926400004,1493.3717926400004,1493.3717926400004,1495.3907216220005,1495.3907216220005,1495.3907216220005,1495.3907216220005,1495.3907216220005,1495.3907216220005,1495.3907216220005,1495.3907216220005,1497.4267813720007,1497.4267813720007,1497.4267813720007,1497.4267813720007,,,,,,,,,,,,,,,,,,,,,,,,,,,,,,,,,,,,,,,03,006,2022-09-23_11h44.53.692,test2,2022.2.4,59.82780027509361,
0,0,0,0,164,0,164,0,1497.4267813720007,1497.4267813720007,1497.4267813720007,1497.4267813720007,1497.4267813720007,1497.4267813720007,1497.4267813720007,-1,1,azul,1,['N_A'],1499.2783492810004,1499.2783492810004,1499.2783492810004,1499.2783492810004,1501.29752327,1501.29752327,1501.29752327,1501.29752327,1501.29752327,1501.29752327,1501.29752327,1501.29752327,1503.333417887,1503.333417887,1503.333417887,1503.333417887,,,,,,,,,,,,,,,,,,,,,,,,,,,,,,,,,,,,,,,03,006,2022-09-23_11h44.53.692,test2,2022.2.4,59.82780027509361,
0,0,0,0,165,0,165,0,1503.333417887,1503.333417887,1503.333417887,1503.333417887,1503.333417887,1503.333417887,1503.333417887,1,1,rojo,1,['N_A'],1504.9853174070004,1504.9853174070004,1504.9853174070004,1504.9853174070004,1507.0034361960006,1507.0034361960006,1507.0034361960006,1507.0034361960006,1507.0034361960006,1507.0034361960006,1507.0034361960006,1507.0034361960006,1509.0394147280003,1509.0394147280003,1509.0394147280003,1509.0394147280003,,,,,,,,,,,,,,,,,,,,,,,,,,,,,,,,,,,,,,,03,006,2022-09-23_11h44.53.692,test2,2022.2.4,59.82780027509361,
0,0,0,0,166,0,166,0,1509.0394147280003,1509.0394147280003,1509.0394147280003,1509.0394147280003,1509.0394147280003,1509.0394147280003,1509.0394147280003,1,1,rojo,1,['N_A'],1510.7583403960007,1510.7583403960007,1510.7583403960007,1510.7583403960007,1512.7937326740002,1512.7937326740002,1512.7937326740002,1512.7937326740002,1512.7937326740002,1512.7937326740002,1512.7937326740002,1512.7937326740002,1514.829008996,1514.829008996,1514.829008996,1514.829008996,,,,,,,,,,,,,,,,,,,,,,,,,,,,,,,,,,,,,,,03,006,2022-09-23_11h44.53.692,test2,2022.2.4,59.82780027509361,
0,0,0,0,167,0,167,0,1514.829008996,1514.829008996,1514.829008996,1514.829008996,1514.829008996,1514.829008996,1514.829008996,1,-1,rojo,1,['N_A'],1516.6811134300006,1516.6811134300006,1516.6811134300006,1516.6811134300006,1518.7162532470002,1518.7162532470002,1518.7162532470002,1518.7162532470002,1518.7162532470002,1518.7162532470002,1518.7162532470002,1518.7162532470002,1520.7516701590002,1520.7516701590002,1520.7516701590002,1520.7516701590002,,,,,,,,,,,,,,,,,,,,,,,,,,,,,,,,,,,,,,,03,006,2022-09-23_11h44.53.692,test2,2022.2.4,59.82780027509361,
0,0,0,0,168,0,168,0,1520.7516701590002,1520.7516701590002,1520.7516701590002,1520.7516701590002,1520.7516701590002,1520.7516701590002,1520.7516701590002,-1,1,azul,1,['N_A'],1522.5709456600007,1522.5709456600007,1522.5709456600007,1522.5709456600007,1524.5892373670004,1524.5892373670004,1524.5892373670004,1524.5892373670004,1524.5892373670004,1524.5892373670004,1524.5892373670004,1524.5892373670004,1526.6252223870006,1526.6252223870006,1526.6252223870006,1526.6252223870006,,,,,,,,,,,,,,,,,,,,,,,,,,,,,,,,,,,,,,,03,006,2022-09-23_11h44.53.692,test2,2022.2.4,59.82780027509361,
0,0,0,0,169,0,169,0,1526.6252223870006,1526.6252223870006,1526.6252223870006,1526.6252223870006,1526.6252223870006,1526.6252223870006,1526.6252223870006,1,1,rojo,1,['N_A'],1528.2432997350006,1528.2432997350006,1528.2432997350006,1528.2432997350006,1530.2627363890006,1530.2627363890006,1530.2627363890006,1530.2627363890006,1530.2627363890006,1530.2627363890006,1530.2627363890006,1530.2627363890006,1532.2988765549999,1532.2988765549999,1532.2988765549999,1532.2988765549999,,,,,,,,,,,,,,,,,,,,,,,,,,,,,,,,,,,,,,,03,006,2022-09-23_11h44.53.692,test2,2022.2.4,59.82780027509361,
0,0,0,0,170,0,170,0,1532.2988765549999,1532.2988765549999,1532.2988765549999,1532.2988765549999,1532.2988765549999,1532.2988765549999,1532.2988765549999,-1,1,azul,1,['N_A'],1534.1504740560003,1534.1504740560003,1534.1504740560003,1534.1504740560003,1536.1695312870006,1536.1695312870006,1536.1695312870006,1536.1695312870006,1536.1695312870006,1536.1695312870006,1536.1695312870006,1536.1695312870006,1538.2051417070006,1538.2051417070006,1538.2051417070006,1538.2051417070006,,,,,,,,,,,,,,,,,,,,,,,,,,,,,,,,,,,,,,,03,006,2022-09-23_11h44.53.692,test2,2022.2.4,59.82780027509361,
0,0,0,0,171,0,171,0,1538.2051417070006,1538.2051417070006,1538.2051417070006,1538.2051417070006,1538.2051417070006,1538.2051417070006,1538.2051417070006,1,1,rojo,1,['N_A'],1540.0908145660005,1540.0908145660005,1540.0908145660005,1540.0908145660005,1542.1091056750001,1542.1091056750001,1542.1091056750001,1542.1091056750001,1542.1091056750001,1542.1091056750001,1542.1091056750001,1542.1091056750001,1544.1449295380007,1544.1449295380007,1544.1449295380007,1544.1449295380007,,,,,,,,,,,,,,,,,,,,,,,,,,,,,,,,,,,,,,,03,006,2022-09-23_11h44.53.692,test2,2022.2.4,59.82780027509361,
0,0,0,0,172,0,172,0,1544.1449295380007,1544.1449295380007,1544.1449295380007,1544.1449295380007,1544.1449295380007,1544.1449295380007,1544.1449295380007,1,1,rojo,1,['N_A'],1546.330093216,1546.330093216,1546.330093216,1546.330093216,1548.349435913,1548.349435913,1548.349435913,1548.349435913,1548.349435913,1548.349435913,1548.349435913,1548.349435913,1550.3849274570002,1550.3849274570002,1550.3849274570002,1550.3849274570002,,,,,,,,,,,,,,,,,,,,,,,,,,,,,,,,,,,,,,,03,006,2022-09-23_11h44.53.692,test2,2022.2.4,59.82780027509361,
0,0,0,0,173,0,173,0,1550.3849274570002,1550.3849274570002,1550.3849274570002,1550.3849274570002,1550.3849274570002,1550.3849274570002,1550.3849274570002,-1,1,azul,1,['N_A'],1553.0709819140002,1553.0709819140002,1553.0709819140002,1553.0709819140002,1555.0900191010005,1555.0900191010005,1555.0900191010005,1555.0900191010005,1555.0900191010005,1555.0900191010005,1555.0900191010005,1555.0900191010005,1557.1258905200002,1557.1258905200002,1557.1258905200002,1557.1258905200002,,,,,,,,,,,,,,,,,,,,,,,,,,,,,,,,,,,,,,,03,006,2022-09-23_11h44.53.692,test2,2022.2.4,59.82780027509361,
0,0,0,0,174,0,174,0,1557.1258905200002,1557.1258905200002,1557.1258905200002,1557.1258905200002,1557.1258905200002,1557.1258905200002,1557.1258905200002,1,1,rojo,1,['N_A'],1558.9781173689998,1558.9781173689998,1558.9781173689998,1558.9781173689998,1560.9958120890005,1560.9958120890005,1560.9958120890005,1560.9958120890005,1560.9958120890005,1560.9958120890005,1560.9958120890005,1560.9958120890005,1563.0318547610004,1563.0318547610004,1563.0318547610004,1563.0318547610004,,,,,,,,,,,,,,,,,,,,,,,,,,,,,,,,,,,,,,,03,006,2022-09-23_11h44.53.692,test2,2022.2.4,59.82780027509361,
0,0,0,0,175,0,175,0,1563.0318547610004,1563.0318547610004,1563.0318547610004,1563.0318547610004,1563.0318547610004,1563.0318547610004,1563.0318547610004,-1,1,azul,1,['N_A'],1564.9013189140005,1564.9013189140005,1564.9013189140005,1564.9013189140005,1566.9185167770001,1566.9185167770001,1566.9185167770001,1566.9185167770001,1566.9185167770001,1566.9185167770001,1566.9185167770001,1566.9185167770001,1568.955822688,1568.955822688,1568.955822688,1568.955822688,,,,,,,,,,,,,,,,,,,,,,,,,,,,,,,,,,,,,,,03,006,2022-09-23_11h44.53.692,test2,2022.2.4,59.82780027509361,
0,0,0,0,176,0,176,0,1568.955822688,1568.955822688,1568.955822688,1568.955822688,1568.955822688,1568.955822688,1568.955822688,-1,1,azul,1,['N_A'],1570.8404039450006,1570.8404039450006,1570.8404039450006,1570.8404039450006,1572.8597480530007,1572.8597480530007,1572.8597480530007,1572.8597480530007,1572.8597480530007,1572.8597480530007,1572.8597480530007,1572.8597480530007,1574.8954973480004,1574.8954973480004,1574.8954973480004,1574.8954973480004,,,,,,,,,,,,,,,,,,,,,,,,,,,,,,,,,,,,,,,03,006,2022-09-23_11h44.53.692,test2,2022.2.4,59.82780027509361,
0,0,0,0,177,0,177,0,1574.8954973480004,1574.8954973480004,1574.8954973480004,1574.8954973480004,1574.8954973480004,1574.8954973480004,1574.8954973480004,1,1,rojo,1,['N_A'],1577.2977083710002,1577.2977083710002,1577.2977083710002,1577.2977083710002,1579.3166352940007,1579.3166352940007,1579.3166352940007,1579.3166352940007,1579.3166352940007,1579.3166352940007,1579.3166352940007,1579.3166352940007,1581.3521995750007,1581.3521995750007,1581.3521995750007,1581.3521995750007,,,,,,,,,,,,,,,,,,,,,,,,,,,,,,,,,,,,,,,03,006,2022-09-23_11h44.53.692,test2,2022.2.4,59.82780027509361,
