trials_2.thisRepN,trials_2.thisTrialN,trials_2.thisN,trials_2.thisIndex,trials.thisRepN,trials.thisTrialN,trials.thisN,trials.thisIndex,Instrucción2.started,N_A_4.started,N_B_4.started,Exitos_3.started,Dias_3.started,Stimuli_1.started,Stimuli_2.started,Transitions,Rewards,Mode,Stay,Neighbour,Stimuli_3.started,Modo.started,Dias2.started,Exitos2.started,Stimuli_3.stopped,Modo.stopped,Dias2.stopped,Exitos2.stopped,Reward.started,Stimuli_reward.started,Exitos3.started,Dias3.started,Reward.stopped,Stimuli_reward.stopped,Exitos3.stopped,Dias3.stopped,Cue_text.started,Stimuli_4.started,Exitos4.started,Dias4.started,Stimuli_3_3.started,Stimuli_2_3.started,Instrucción.started,N_A.started,N_B.started,N_C.started,Exitos_2.started,Dias_2.started,Stimuli_1_3.started,Stimuli_3_2.started,Stimuli_2_2.started,Pregunta.started,N_A_2.started,N_B_2.started,N_C_2.started,Exitos5.started,Dias5.started,Stimuli_1_2.started,Resp_final_1,Modo2.started,Modo1.started,Pregunta_4.started,Modo3.started,Exitos7.started,Dias6.started,Resp_final_2,Modo1_2.started,Pregunta_3.started,Modo2_2.started,Exitos8.started,Dias7.started,Resp_final_3,Mensaje_Final2.started,Exitos6.started,participant,session,date,expName,psychopyVersion,frameRate,
0,0,0,0,0,0,0,0,26.075962040000377,26.075962040000377,26.075962040000377,26.075962040000377,26.075962040000377,26.075962040000377,26.075962040000377,0,0,0,0,['N_A'],42.71122920000016,42.71122920000016,42.71122920000016,42.71122920000016,44.748036855000464,44.748036855000464,44.748036855000464,44.748036855000464,44.748036855000464,44.748036855000464,44.748036855000464,44.748036855000464,46.78297388899955,46.78297388899955,46.78297388899955,46.78297388899955,,,,,,,,,,,,,,,,,,,,,,,,,,,,,,,,,,,,,,,03,007,2022-09-23_14h40.32.875,test2,2022.2.4,59.996668985023845,
0,0,0,0,1,0,1,0,46.78297388899955,46.78297388899955,46.78297388899955,46.78297388899955,46.78297388899955,46.78297388899955,46.78297388899955,1,-1,rojo,0,['N_B'],51.67183847100023,51.67183847100023,51.67183847100023,51.67183847100023,53.7072614839999,53.7072614839999,53.7072614839999,53.7072614839999,53.7072614839999,53.7072614839999,53.7072614839999,53.7072614839999,55.74291023099977,55.74291023099977,55.74291023099977,55.74291023099977,,,,,,,,,,,,,,,,,,,,,,,,,,,,,,,,,,,,,,,03,007,2022-09-23_14h40.32.875,test2,2022.2.4,59.996668985023845,
0,0,0,0,2,0,2,0,55.74291023099977,55.74291023099977,55.74291023099977,55.74291023099977,55.74291023099977,55.74291023099977,55.74291023099977,1,1,azul,1,['N_B'],61.06526779200067,61.06526779200067,61.06526779200067,61.06526779200067,63.10103203399922,63.10103203399922,63.10103203399922,63.10103203399922,63.10103203399922,63.10103203399922,63.10103203399922,63.10103203399922,65.13660615799927,65.13660615799927,65.13660615799927,65.13660615799927,,,,,,,,,,,,,,,,,,,,,,,,,,,,,,,,,,,,,,,03,007,2022-09-23_14h40.32.875,test2,2022.2.4,59.996668985023845,
0,0,0,0,3,0,3,0,65.13660615799927,65.13660615799927,65.13660615799927,65.13660615799927,65.13660615799927,65.13660615799927,65.13660615799927,1,-1,azul,1,['N_B'],66.92147735800063,66.92147735800063,66.92147735800063,66.92147735800063,68.95758030400066,68.95758030400066,68.95758030400066,68.95758030400066,68.95758030400066,68.95758030400066,68.95758030400066,68.95758030400066,70.99372907100042,70.99372907100042,70.99372907100042,70.99372907100042,,,,,,,,,,,,,,,,,,,,,,,,,,,,,,,,,,,,,,,03,007,2022-09-23_14h40.32.875,test2,2022.2.4,59.996668985023845,
0,0,0,0,4,0,4,0,70.99372907100042,70.99372907100042,70.99372907100042,70.99372907100042,70.99372907100042,70.99372907100042,70.99372907100042,1,-1,azul,0,['N_A'],73.47889627699988,73.47889627699988,73.47889627699988,73.47889627699988,75.51558408799974,75.51558408799974,75.51558408799974,75.51558408799974,75.51558408799974,75.51558408799974,75.51558408799974,75.51558408799974,77.55095346099915,77.55095346099915,77.55095346099915,77.55095346099915,,,,,,,,,,,,,,,,,,,,,,,,,,,,,,,,,,,,,,,03,007,2022-09-23_14h40.32.875,test2,2022.2.4,59.996668985023845,
0,0,0,0,5,0,5,0,77.55095346099915,77.55095346099915,77.55095346099915,77.55095346099915,77.55095346099915,77.55095346099915,77.55095346099915,-1,1,azul,1,['N_A'],84.34067804699953,84.34067804699953,84.34067804699953,84.34067804699953,86.3764999089999,86.3764999089999,86.3764999089999,86.3764999089999,86.3764999089999,86.3764999089999,86.3764999089999,86.3764999089999,88.41189732500061,88.41189732500061,88.41189732500061,88.41189732500061,,,,,,,,,,,,,,,,,,,,,,,,,,,,,,,,,,,,,,,03,007,2022-09-23_14h40.32.875,test2,2022.2.4,59.996668985023845,
0,0,0,0,6,0,6,0,88.41189732500061,88.41189732500061,88.41189732500061,88.41189732500061,88.41189732500061,88.41189732500061,88.41189732500061,1,-1,rojo,1,['N_A'],90.68112687299981,90.68112687299981,90.68112687299981,90.68112687299981,92.71769976900032,92.71769976900032,92.71769976900032,92.71769976900032,92.71769976900032,92.71769976900032,92.71769976900032,92.71769976900032,94.75309801100047,94.75309801100047,94.75309801100047,94.75309801100047,,,,,,,,,,,,,,,,,,,,,,,,,,,,,,,,,,,,,,,03,007,2022-09-23_14h40.32.875,test2,2022.2.4,59.996668985023845,
0,0,0,0,7,0,7,0,94.75309801100047,94.75309801100047,94.75309801100047,94.75309801100047,94.75309801100047,94.75309801100047,94.75309801100047,1,-1,rojo,1,['N_A'],96.68859134400009,96.68859134400009,96.68859134400009,96.68859134400009,98.72398227700069,98.72398227700069,98.72398227700069,98.72398227700069,98.72398227700069,98.72398227700069,98.72398227700069,98.72398227700069,100.75914241099963,100.75914241099963,100.75914241099963,100.75914241099963,,,,,,,,,,,,,,,,,,,,,,,,,,,,,,,,,,,,,,,03,007,2022-09-23_14h40.32.875,test2,2022.2.4,59.996668985023845,
0,0,0,0,8,0,8,0,100.75914241099963,100.75914241099963,100.75914241099963,100.75914241099963,100.75914241099963,100.75914241099963,100.75914241099963,1,-1,rojo,0,['N_B'],102.41161628100053,102.41161628100053,102.41161628100053,102.41161628100053,104.44722506399921,104.44722506399921,104.44722506399921,104.44722506399921,104.44722506399921,104.44722506399921,104.44722506399921,104.44722506399921,106.48236441500012,106.48236441500012,106.48236441500012,106.48236441500012,,,,,,,,,,,,,,,,,,,,,,,,,,,,,,,,,,,,,,,03,007,2022-09-23_14h40.32.875,test2,2022.2.4,59.996668985023845,
0,0,0,0,9,0,9,0,106.48236441500012,106.48236441500012,106.48236441500012,106.48236441500012,106.48236441500012,106.48236441500012,106.48236441500012,1,-1,azul,1,['N_B'],109.16886354999951,109.16886354999951,109.16886354999951,109.16886354999951,111.20440936699924,111.20440936699924,111.20440936699924,111.20440936699924,111.20440936699924,111.20440936699924,111.20440936699924,111.20440936699924,113.23981975099923,113.23981975099923,113.23981975099923,113.23981975099923,,,,,,,,,,,,,,,,,,,,,,,,,,,,,,,,,,,,,,,03,007,2022-09-23_14h40.32.875,test2,2022.2.4,59.996668985023845,
0,0,0,0,10,0,10,0,113.23981975099923,113.23981975099923,113.23981975099923,113.23981975099923,113.23981975099923,113.23981975099923,113.23981975099923,-1,1,rojo,1,['N_B'],115.27538104799896,115.27538104799896,115.27538104799896,115.27538104799896,117.29433949399936,117.29433949399936,117.29433949399936,117.29433949399936,117.29433949399936,117.29433949399936,117.29433949399936,117.29433949399936,119.32966518099965,119.32966518099965,119.32966518099965,119.32966518099965,,,,,,,,,,,,,,,,,,,,,,,,,,,,,,,,,,,,,,,03,007,2022-09-23_14h40.32.875,test2,2022.2.4,59.996668985023845,
0,0,0,0,11,0,11,0,119.32966518099965,119.32966518099965,119.32966518099965,119.32966518099965,119.32966518099965,119.32966518099965,119.32966518099965,-1,1,rojo,1,['N_B'],121.84888404099911,121.84888404099911,121.84888404099911,121.84888404099911,123.8849741640006,123.8849741640006,123.8849741640006,123.8849741640006,123.8849741640006,123.8849741640006,123.8849741640006,123.8849741640006,125.920269369999,125.920269369999,125.920269369999,125.920269369999,,,,,,,,,,,,,,,,,,,,,,,,,,,,,,,,,,,,,,,03,007,2022-09-23_14h40.32.875,test2,2022.2.4,59.996668985023845,
0,0,0,0,12,0,12,0,125.920269369999,125.920269369999,125.920269369999,125.920269369999,125.920269369999,125.920269369999,125.920269369999,1,-1,azul,1,['N_B'],127.63932960000056,127.63932960000056,127.63932960000056,127.63932960000056,129.6743688530005,129.6743688530005,129.6743688530005,129.6743688530005,129.6743688530005,129.6743688530005,129.6743688530005,129.6743688530005,131.71046837500035,131.71046837500035,131.71046837500035,131.71046837500035,,,,,,,,,,,,,,,,,,,,,,,,,,,,,,,,,,,,,,,03,007,2022-09-23_14h40.32.875,test2,2022.2.4,59.996668985023845,
0,0,0,0,13,0,13,0,131.71046837500035,131.71046837500035,131.71046837500035,131.71046837500035,131.71046837500035,131.71046837500035,131.71046837500035,-1,-1,rojo,1,['N_B'],133.36154031099977,133.36154031099977,133.36154031099977,133.36154031099977,135.398289277,135.398289277,135.398289277,135.398289277,135.398289277,135.398289277,135.398289277,135.398289277,137.43308151699966,137.43308151699966,137.43308151699966,137.43308151699966,,,,,,,,,,,,,,,,,,,,,,,,,,,,,,,,,,,,,,,03,007,2022-09-23_14h40.32.875,test2,2022.2.4,59.996668985023845,
0,0,0,0,14,0,14,0,137.43308151699966,137.43308151699966,137.43308151699966,137.43308151699966,137.43308151699966,137.43308151699966,137.43308151699966,1,-1,azul,1,['N_B'],139.28496326099958,139.28496326099958,139.28496326099958,139.28496326099958,141.3211162940006,141.3211162940006,141.3211162940006,141.3211162940006,141.3211162940006,141.3211162940006,141.3211162940006,141.3211162940006,143.3560929590003,143.3560929590003,143.3560929590003,143.3560929590003,,,,,,,,,,,,,,,,,,,,,,,,,,,,,,,,,,,,,,,03,007,2022-09-23_14h40.32.875,test2,2022.2.4,59.996668985023845,
0,0,0,0,15,0,15,0,143.3560929590003,143.3560929590003,143.3560929590003,143.3560929590003,143.3560929590003,143.3560929590003,143.3560929590003,1,-1,azul,1,['N_B'],145.54217560600046,145.54217560600046,145.54217560600046,145.54217560600046,147.57756992599934,147.57756992599934,147.57756992599934,147.57756992599934,147.57756992599934,147.57756992599934,147.57756992599934,147.57756992599934,149.61317241799952,149.61317241799952,149.61317241799952,149.61317241799952,,,,,,,,,,,,,,,,,,,,,,,,,,,,,,,,,,,,,,,03,007,2022-09-23_14h40.32.875,test2,2022.2.4,59.996668985023845,
0,0,0,0,16,0,16,0,149.61317241799952,149.61317241799952,149.61317241799952,149.61317241799952,149.61317241799952,149.61317241799952,149.61317241799952,1,-1,azul,1,['N_B'],151.94952917800038,151.94952917800038,151.94952917800038,151.94952917800038,153.98475933599912,153.98475933599912,153.98475933599912,153.98475933599912,153.98475933599912,153.98475933599912,153.98475933599912,153.98475933599912,156.0201888470001,156.0201888470001,156.0201888470001,156.0201888470001,,,,,,,,,,,,,,,,,,,,,,,,,,,,,,,,,,,,,,,03,007,2022-09-23_14h40.32.875,test2,2022.2.4,59.996668985023845,
0,0,0,0,17,0,17,0,156.0201888470001,156.0201888470001,156.0201888470001,156.0201888470001,156.0201888470001,156.0201888470001,156.0201888470001,-1,1,rojo,1,['N_B'],158.12220496999907,158.12220496999907,158.12220496999907,158.12220496999907,160.15857139299987,160.15857139299987,160.15857139299987,160.15857139299987,160.15857139299987,160.15857139299987,160.15857139299987,160.15857139299987,162.19368460700025,162.19368460700025,162.19368460700025,162.19368460700025,,,,,,,,,,,,,,,,,,,,,,,,,,,,,,,,,,,,,,,03,007,2022-09-23_14h40.32.875,test2,2022.2.4,59.996668985023845,
0,0,0,0,18,0,18,0,162.19368460700025,162.19368460700025,162.19368460700025,162.19368460700025,162.19368460700025,162.19368460700025,162.19368460700025,1,-1,azul,0,['N_A'],163.77867357700052,163.77867357700052,163.77867357700052,163.77867357700052,165.8146570280005,165.8146570280005,165.8146570280005,165.8146570280005,165.8146570280005,165.8146570280005,165.8146570280005,165.8146570280005,167.8502319830004,167.8502319830004,167.8502319830004,167.8502319830004,,,,,,,,,,,,,,,,,,,,,,,,,,,,,,,,,,,,,,,03,007,2022-09-23_14h40.32.875,test2,2022.2.4,59.996668985023845,
0,0,0,0,19,0,19,0,167.8502319830004,167.8502319830004,167.8502319830004,167.8502319830004,167.8502319830004,167.8502319830004,167.8502319830004,-1,-1,azul,1,['N_A'],171.58700580000004,171.58700580000004,171.58700580000004,171.58700580000004,173.62350379899908,173.62350379899908,173.62350379899908,173.62350379899908,173.62350379899908,173.62350379899908,173.62350379899908,173.62350379899908,175.65847317599946,175.65847317599946,175.65847317599946,175.65847317599946,,,,,,,,,,,,,,,,,,,,,,,,,,,,,,,,,,,,,,,03,007,2022-09-23_14h40.32.875,test2,2022.2.4,59.996668985023845,
0,0,0,0,20,0,20,0,175.65847317599946,175.65847317599946,175.65847317599946,175.65847317599946,175.65847317599946,175.65847317599946,175.65847317599946,1,-1,rojo,0,['N_B'],177.97787355999935,177.97787355999935,177.97787355999935,177.97787355999935,180.0141557730003,180.0141557730003,180.0141557730003,180.0141557730003,180.0141557730003,180.0141557730003,180.0141557730003,180.0141557730003,182.04906571900028,182.04906571900028,182.04906571900028,182.04906571900028,,,,,,,,,,,,,,,,,,,,,,,,,,,,,,,,,,,,,,,03,007,2022-09-23_14h40.32.875,test2,2022.2.4,59.996668985023845,
0,0,0,0,21,0,21,0,182.04906571900028,182.04906571900028,182.04906571900028,182.04906571900028,182.04906571900028,182.04906571900028,182.04906571900028,1,-1,azul,1,['N_B'],184.9018438160001,184.9018438160001,184.9018438160001,184.9018438160001,186.9376073780004,186.9376073780004,186.9376073780004,186.9376073780004,186.9376073780004,186.9376073780004,186.9376073780004,186.9376073780004,188.97360665499946,188.97360665499946,188.97360665499946,188.97360665499946,,,,,,,,,,,,,,,,,,,,,,,,,,,,,,,,,,,,,,,03,007,2022-09-23_14h40.32.875,test2,2022.2.4,59.996668985023845,
0,0,0,0,22,0,22,0,188.97360665499946,188.97360665499946,188.97360665499946,188.97360665499946,188.97360665499946,188.97360665499946,188.97360665499946,-1,1,rojo,1,['N_B'],191.35886629199922,191.35886629199922,191.35886629199922,191.35886629199922,193.37785244099905,193.37785244099905,193.37785244099905,193.37785244099905,193.37785244099905,193.37785244099905,193.37785244099905,193.37785244099905,195.41397452099955,195.41397452099955,195.41397452099955,195.41397452099955,,,,,,,,,,,,,,,,,,,,,,,,,,,,,,,,,,,,,,,03,007,2022-09-23_14h40.32.875,test2,2022.2.4,59.996668985023845,
0,0,0,0,23,0,23,0,195.41397452099955,195.41397452099955,195.41397452099955,195.41397452099955,195.41397452099955,195.41397452099955,195.41397452099955,1,1,azul,1,['N_B'],198.1331611810001,198.1331611810001,198.1331611810001,198.1331611810001,200.16901419399983,200.16901419399983,200.16901419399983,200.16901419399983,200.16901419399983,200.16901419399983,200.16901419399983,200.16901419399983,202.20497927199904,202.20497927199904,202.20497927199904,202.20497927199904,,,,,,,,,,,,,,,,,,,,,,,,,,,,,,,,,,,,,,,03,007,2022-09-23_14h40.32.875,test2,2022.2.4,59.996668985023845,
0,0,0,0,24,0,24,0,202.20497927199904,202.20497927199904,202.20497927199904,202.20497927199904,202.20497927199904,202.20497927199904,202.20497927199904,1,-1,azul,1,['N_B'],204.60763058699922,204.60763058699922,204.60763058699922,204.60763058699922,206.6427518929995,206.6427518929995,206.6427518929995,206.6427518929995,206.6427518929995,206.6427518929995,206.6427518929995,206.6427518929995,208.67844366600002,208.67844366600002,208.67844366600002,208.67844366600002,,,,,,,,,,,,,,,,,,,,,,,,,,,,,,,,,,,,,,,03,007,2022-09-23_14h40.32.875,test2,2022.2.4,59.996668985023845,
0,0,0,0,25,0,25,0,208.67844366600002,208.67844366600002,208.67844366600002,208.67844366600002,208.67844366600002,208.67844366600002,208.67844366600002,1,-1,azul,1,['N_B'],210.54688624700066,210.54688624700066,210.54688624700066,210.54688624700066,212.58303543299917,212.58303543299917,212.58303543299917,212.58303543299917,212.58303543299917,212.58303543299917,212.58303543299917,212.58303543299917,214.61879023800066,214.61879023800066,214.61879023800066,214.61879023800066,,,,,,,,,,,,,,,,,,,,,,,,,,,,,,,,,,,,,,,03,007,2022-09-23_14h40.32.875,test2,2022.2.4,59.996668985023845,
0,0,0,0,26,0,26,0,214.61879023800066,214.61879023800066,214.61879023800066,214.61879023800066,214.61879023800066,214.61879023800066,214.61879023800066,1,-1,azul,0,['N_A'],216.16943879899918,216.16943879899918,216.16943879899918,216.16943879899918,218.2057389189995,218.2057389189995,218.2057389189995,218.2057389189995,218.2057389189995,218.2057389189995,218.2057389189995,218.2057389189995,220.2418953790002,220.2418953790002,220.2418953790002,220.2418953790002,,,,,,,,,,,,,,,,,,,,,,,,,,,,,,,,,,,,,,,03,007,2022-09-23_14h40.32.875,test2,2022.2.4,59.996668985023845,
0,0,0,0,27,0,27,0,220.2418953790002,220.2418953790002,220.2418953790002,220.2418953790002,220.2418953790002,220.2418953790002,220.2418953790002,-1,1,azul,1,['N_A'],222.14369790599994,222.14369790599994,222.14369790599994,222.14369790599994,224.17933513000025,224.17933513000025,224.17933513000025,224.17933513000025,224.17933513000025,224.17933513000025,224.17933513000025,224.17933513000025,226.21419020099893,226.21419020099893,226.21419020099893,226.21419020099893,,,,,,,,,,,,,,,,,,,,,,,,,,,,,,,,,,,,,,,03,007,2022-09-23_14h40.32.875,test2,2022.2.4,59.996668985023845,
0,0,0,0,28,0,28,0,226.21419020099893,226.21419020099893,226.21419020099893,226.21419020099893,226.21419020099893,226.21419020099893,226.21419020099893,-1,-1,azul,1,['N_A'],227.8161537369997,227.8161537369997,227.8161537369997,227.8161537369997,229.8519741050004,229.8519741050004,229.8519741050004,229.8519741050004,229.8519741050004,229.8519741050004,229.8519741050004,229.8519741050004,231.88701290599965,231.88701290599965,231.88701290599965,231.88701290599965,,,,,,,,,,,,,,,,,,,,,,,,,,,,,,,,,,,,,,,03,007,2022-09-23_14h40.32.875,test2,2022.2.4,59.996668985023845,
0,0,0,0,29,0,29,0,231.88701290599965,231.88701290599965,231.88701290599965,231.88701290599965,231.88701290599965,231.88701290599965,231.88701290599965,1,-1,rojo,1,['N_A'],233.95622371299942,233.95622371299942,233.95622371299942,233.95622371299942,235.9921456890006,235.9921456890006,235.9921456890006,235.9921456890006,235.9921456890006,235.9921456890006,235.9921456890006,235.9921456890006,238.0275029429995,238.0275029429995,238.0275029429995,238.0275029429995,,,,,,,,,,,,,,,,,,,,,,,,,,,,,,,,,,,,,,,03,007,2022-09-23_14h40.32.875,test2,2022.2.4,59.996668985023845,
0,0,0,0,30,0,30,0,238.0275029429995,238.0275029429995,238.0275029429995,238.0275029429995,238.0275029429995,238.0275029429995,238.0275029429995,1,1,rojo,1,['N_A'],239.87998440299998,239.87998440299998,239.87998440299998,239.87998440299998,241.91531667100026,241.91531667100026,241.91531667100026,241.91531667100026,241.91531667100026,241.91531667100026,241.91531667100026,241.91531667100026,243.95105645200056,243.95105645200056,243.95105645200056,243.95105645200056,,,,,,,,,,,,,,,,,,,,,,,,,,,,,,,,,,,,,,,03,007,2022-09-23_14h40.32.875,test2,2022.2.4,59.996668985023845,
0,0,0,0,31,0,31,0,243.95105645200056,243.95105645200056,243.95105645200056,243.95105645200056,243.95105645200056,243.95105645200056,243.95105645200056,1,-1,rojo,1,['N_A'],246.01977968999927,246.01977968999927,246.01977968999927,246.01977968999927,248.0556259169989,248.0556259169989,248.0556259169989,248.0556259169989,248.0556259169989,248.0556259169989,248.0556259169989,248.0556259169989,250.0907297220001,250.0907297220001,250.0907297220001,250.0907297220001,,,,,,,,,,,,,,,,,,,,,,,,,,,,,,,,,,,,,,,03,007,2022-09-23_14h40.32.875,test2,2022.2.4,59.996668985023845,
0,0,0,0,32,0,32,0,250.0907297220001,250.0907297220001,250.0907297220001,250.0907297220001,250.0907297220001,250.0907297220001,250.0907297220001,-1,-1,azul,0,['N_B'],251.64257445799922,251.64257445799922,251.64257445799922,251.64257445799922,253.67840036899906,253.67840036899906,253.67840036899906,253.67840036899906,253.67840036899906,253.67840036899906,253.67840036899906,253.67840036899906,255.71411430499938,255.71411430499938,255.71411430499938,255.71411430499938,,,,,,,,,,,,,,,,,,,,,,,,,,,,,,,,,,,,,,,03,007,2022-09-23_14h40.32.875,test2,2022.2.4,59.996668985023845,
0,0,0,0,33,0,33,0,255.71411430499938,255.71411430499938,255.71411430499938,255.71411430499938,255.71411430499938,255.71411430499938,255.71411430499938,1,1,azul,1,['N_B'],257.6324324969992,257.6324324969992,257.6324324969992,257.6324324969992,259.65076828699966,259.65076828699966,259.65076828699966,259.65076828699966,259.65076828699966,259.65076828699966,259.65076828699966,259.65076828699966,261.68682311799967,261.68682311799967,261.68682311799967,261.68682311799967,,,,,,,,,,,,,,,,,,,,,,,,,,,,,,,,,,,,,,,03,007,2022-09-23_14h40.32.875,test2,2022.2.4,59.996668985023845,
0,0,0,0,34,0,34,0,261.68682311799967,261.68682311799967,261.68682311799967,261.68682311799967,261.68682311799967,261.68682311799967,261.68682311799967,-1,1,rojo,1,['N_B'],263.40581218399893,263.40581218399893,263.40581218399893,263.40581218399893,265.4406116609989,265.4406116609989,265.4406116609989,265.4406116609989,265.4406116609989,265.4406116609989,265.4406116609989,265.4406116609989,267.47665804200005,267.47665804200005,267.47665804200005,267.47665804200005,,,,,,,,,,,,,,,,,,,,,,,,,,,,,,,,,,,,,,,03,007,2022-09-23_14h40.32.875,test2,2022.2.4,59.996668985023845,
0,0,0,0,35,0,35,0,267.47665804200005,267.47665804200005,267.47665804200005,267.47665804200005,267.47665804200005,267.47665804200005,267.47665804200005,1,-1,azul,1,['N_B'],269.2282433759992,269.2282433759992,269.2282433759992,269.2282433759992,271.26443315399956,271.26443315399956,271.26443315399956,271.26443315399956,271.26443315399956,271.26443315399956,271.26443315399956,271.26443315399956,273.2998744939996,273.2998744939996,273.2998744939996,273.2998744939996,,,,,,,,,,,,,,,,,,,,,,,,,,,,,,,,,,,,,,,03,007,2022-09-23_14h40.32.875,test2,2022.2.4,59.996668985023845,
0,0,0,0,36,0,36,0,273.2998744939996,273.2998744939996,273.2998744939996,273.2998744939996,273.2998744939996,273.2998744939996,273.2998744939996,-1,-1,rojo,1,['N_B'],278.18834835599955,278.18834835599955,278.18834835599955,278.18834835599955,280.22367396700065,280.22367396700065,280.22367396700065,280.22367396700065,280.22367396700065,280.22367396700065,280.22367396700065,280.22367396700065,282.2593034870006,282.2593034870006,282.2593034870006,282.2593034870006,,,,,,,,,,,,,,,,,,,,,,,,,,,,,,,,,,,,,,,03,007,2022-09-23_14h40.32.875,test2,2022.2.4,59.996668985023845,
0,0,0,0,37,0,37,0,282.2593034870006,282.2593034870006,282.2593034870006,282.2593034870006,282.2593034870006,282.2593034870006,282.2593034870006,1,-1,azul,1,['N_B'],283.9450000830002,283.9450000830002,283.9450000830002,283.9450000830002,285.9808379339993,285.9808379339993,285.9808379339993,285.9808379339993,285.9808379339993,285.9808379339993,285.9808379339993,285.9808379339993,288.0160300869993,288.0160300869993,288.0160300869993,288.0160300869993,,,,,,,,,,,,,,,,,,,,,,,,,,,,,,,,,,,,,,,03,007,2022-09-23_14h40.32.875,test2,2022.2.4,59.996668985023845,
0,0,0,0,38,0,38,0,288.0160300869993,288.0160300869993,288.0160300869993,288.0160300869993,288.0160300869993,288.0160300869993,288.0160300869993,1,-1,azul,1,['N_B'],293.43820554800004,293.43820554800004,293.43820554800004,293.43820554800004,295.4744961689994,295.4744961689994,295.4744961689994,295.4744961689994,295.4744961689994,295.4744961689994,295.4744961689994,295.4744961689994,297.50950403599927,297.50950403599927,297.50950403599927,297.50950403599927,,,,,,,,,,,,,,,,,,,,,,,,,,,,,,,,,,,,,,,03,007,2022-09-23_14h40.32.875,test2,2022.2.4,59.996668985023845,
0,0,0,0,39,0,39,0,297.50950403599927,297.50950403599927,297.50950403599927,297.50950403599927,297.50950403599927,297.50950403599927,297.50950403599927,1,-1,azul,1,['N_B'],299.1449086369994,299.1449086369994,299.1449086369994,299.1449086369994,301.18099202399935,301.18099202399935,301.18099202399935,301.18099202399935,301.18099202399935,301.18099202399935,301.18099202399935,301.18099202399935,303.216166971999,303.216166971999,303.216166971999,303.216166971999,,,,,,,,,,,,,,,,,,,,,,,,,,,,,,,,,,,,,,,03,007,2022-09-23_14h40.32.875,test2,2022.2.4,59.996668985023845,
0,0,0,0,40,0,40,0,303.216166971999,303.216166971999,303.216166971999,303.216166971999,303.216166971999,303.216166971999,303.216166971999,1,-1,azul,0,['N_A'],304.90132764699956,304.90132764699956,304.90132764699956,304.90132764699956,306.936623313999,306.936623313999,306.936623313999,306.936623313999,306.936623313999,306.936623313999,306.936623313999,306.936623313999,308.9725216269999,308.9725216269999,308.9725216269999,308.9725216269999,,,,,,,,,,,,,,,,,,,,,,,,,,,,,,,,,,,,,,,03,007,2022-09-23_14h40.32.875,test2,2022.2.4,59.996668985023845,
0,0,0,0,41,0,41,0,308.9725216269999,308.9725216269999,308.9725216269999,308.9725216269999,308.9725216269999,308.9725216269999,308.9725216269999,-1,-1,azul,1,['N_A'],310.77401145399926,310.77401145399926,310.77401145399926,310.77401145399926,312.80949537999913,312.80949537999913,312.80949537999913,312.80949537999913,312.80949537999913,312.80949537999913,312.80949537999913,312.80949537999913,314.845098845999,314.845098845999,314.845098845999,314.845098845999,,,,,,,,,,,,,,,,,,,,,,,,,,,,,,,,,,,,,,,03,007,2022-09-23_14h40.32.875,test2,2022.2.4,59.996668985023845,
0,0,0,0,42,0,42,0,314.845098845999,314.845098845999,314.845098845999,314.845098845999,314.845098845999,314.845098845999,314.845098845999,1,-1,rojo,1,['N_A'],316.73057224200056,316.73057224200056,316.73057224200056,316.73057224200056,318.76698568400025,318.76698568400025,318.76698568400025,318.76698568400025,318.76698568400025,318.76698568400025,318.76698568400025,318.76698568400025,320.80220508599996,320.80220508599996,320.80220508599996,320.80220508599996,,,,,,,,,,,,,,,,,,,,,,,,,,,,,,,,,,,,,,,03,007,2022-09-23_14h40.32.875,test2,2022.2.4,59.996668985023845,
0,0,0,0,43,0,43,0,320.80220508599996,320.80220508599996,320.80220508599996,320.80220508599996,320.80220508599996,320.80220508599996,320.80220508599996,-1,1,azul,1,['N_A'],322.9878031240005,322.9878031240005,322.9878031240005,322.9878031240005,325.02392565899936,325.02392565899936,325.02392565899936,325.02392565899936,325.02392565899936,325.02392565899936,325.02392565899936,325.02392565899936,327.05888805799987,327.05888805799987,327.05888805799987,327.05888805799987,,,,,,,,,,,,,,,,,,,,,,,,,,,,,,,,,,,,,,,03,007,2022-09-23_14h40.32.875,test2,2022.2.4,59.996668985023845,
0,0,0,0,44,0,44,0,327.05888805799987,327.05888805799987,327.05888805799987,327.05888805799987,327.05888805799987,327.05888805799987,327.05888805799987,1,-1,rojo,1,['N_A'],329.56173037999906,329.56173037999906,329.56173037999906,329.56173037999906,331.59753416400054,331.59753416400054,331.59753416400054,331.59753416400054,331.59753416400054,331.59753416400054,331.59753416400054,331.59753416400054,333.63289126900054,333.63289126900054,333.63289126900054,333.63289126900054,,,,,,,,,,,,,,,,,,,,,,,,,,,,,,,,,,,,,,,03,007,2022-09-23_14h40.32.875,test2,2022.2.4,59.996668985023845,
0,0,0,0,45,0,45,0,333.63289126900054,333.63289126900054,333.63289126900054,333.63289126900054,333.63289126900054,333.63289126900054,333.63289126900054,1,1,rojo,1,['N_A'],335.4512672889996,335.4512672889996,335.4512672889996,335.4512672889996,337.4870877199992,337.4870877199992,337.4870877199992,337.4870877199992,337.4870877199992,337.4870877199992,337.4870877199992,337.4870877199992,339.52251565199913,339.52251565199913,339.52251565199913,339.52251565199913,,,,,,,,,,,,,,,,,,,,,,,,,,,,,,,,,,,,,,,03,007,2022-09-23_14h40.32.875,test2,2022.2.4,59.996668985023845,
0,0,0,0,46,0,46,0,339.52251565199913,339.52251565199913,339.52251565199913,339.52251565199913,339.52251565199913,339.52251565199913,339.52251565199913,-1,-1,azul,1,['N_A'],341.05721788200026,341.05721788200026,341.05721788200026,341.05721788200026,343.0936868209992,343.0936868209992,343.0936868209992,343.0936868209992,343.0936868209992,343.0936868209992,343.0936868209992,343.0936868209992,345.1287367579989,345.1287367579989,345.1287367579989,345.1287367579989,,,,,,,,,,,,,,,,,,,,,,,,,,,,,,,,,,,,,,,03,007,2022-09-23_14h40.32.875,test2,2022.2.4,59.996668985023845,
0,0,0,0,47,0,47,0,345.1287367579989,345.1287367579989,345.1287367579989,345.1287367579989,345.1287367579989,345.1287367579989,345.1287367579989,1,-1,rojo,1,['N_A'],346.8137244360005,346.8137244360005,346.8137244360005,346.8137244360005,348.85043850500006,348.85043850500006,348.85043850500006,348.85043850500006,348.85043850500006,348.85043850500006,348.85043850500006,348.85043850500006,350.88503041900003,350.88503041900003,350.88503041900003,350.88503041900003,,,,,,,,,,,,,,,,,,,,,,,,,,,,,,,,,,,,,,,03,007,2022-09-23_14h40.32.875,test2,2022.2.4,59.996668985023845,
0,0,0,0,48,0,48,0,350.88503041900003,350.88503041900003,350.88503041900003,350.88503041900003,350.88503041900003,350.88503041900003,350.88503041900003,-1,-1,azul,1,['N_A'],352.9046108450002,352.9046108450002,352.9046108450002,352.9046108450002,354.9404756210006,354.9404756210006,354.9404756210006,354.9404756210006,354.9404756210006,354.9404756210006,354.9404756210006,354.9404756210006,356.975735643,356.975735643,356.975735643,356.975735643,,,,,,,,,,,,,,,,,,,,,,,,,,,,,,,,,,,,,,,03,007,2022-09-23_14h40.32.875,test2,2022.2.4,59.996668985023845,
0,0,0,0,49,0,49,0,356.975735643,356.975735643,356.975735643,356.975735643,356.975735643,356.975735643,356.975735643,-1,-1,azul,1,['N_A'],359.5282211670001,359.5282211670001,359.5282211670001,359.5282211670001,361.564534051,361.564534051,361.564534051,361.564534051,361.564534051,361.564534051,361.564534051,361.564534051,363.5993876039993,363.5993876039993,363.5993876039993,363.5993876039993,,,,,,,,,,,,,,,,,,,,,,,,,,,,,,,,,,,,,,,03,007,2022-09-23_14h40.32.875,test2,2022.2.4,59.996668985023845,
0,0,0,0,50,0,50,0,363.5993876039993,363.5993876039993,363.5993876039993,363.5993876039993,363.5993876039993,363.5993876039993,363.5993876039993,1,-1,rojo,0,['N_B'],365.66858809400037,365.66858809400037,365.66858809400037,365.66858809400037,367.70472007399985,367.70472007399985,367.70472007399985,367.70472007399985,367.70472007399985,367.70472007399985,367.70472007399985,367.70472007399985,369.7392788750003,369.7392788750003,369.7392788750003,369.7392788750003,,,,,,,,,,,,,,,,,,,,,,,,,,,,,,,,,,,,,,,03,007,2022-09-23_14h40.32.875,test2,2022.2.4,59.996668985023845,
0,0,0,0,51,0,51,0,369.7392788750003,369.7392788750003,369.7392788750003,369.7392788750003,369.7392788750003,369.7392788750003,369.7392788750003,1,-1,azul,1,['N_B'],371.424214020999,371.424214020999,371.424214020999,371.424214020999,373.4609138729993,373.4609138729993,373.4609138729993,373.4609138729993,373.4609138729993,373.4609138729993,373.4609138729993,373.4609138729993,375.49545073399895,375.49545073399895,375.49545073399895,375.49545073399895,,,,,,,,,,,,,,,,,,,,,,,,,,,,,,,,,,,,,,,03,007,2022-09-23_14h40.32.875,test2,2022.2.4,59.996668985023845,
0,0,0,0,52,0,52,0,375.49545073399895,375.49545073399895,375.49545073399895,375.49545073399895,375.49545073399895,375.49545073399895,375.49545073399895,1,-1,azul,1,['N_B'],377.2482077629993,377.2482077629993,377.2482077629993,377.2482077629993,379.2833846379999,379.2833846379999,379.2833846379999,379.2833846379999,379.2833846379999,379.2833846379999,379.2833846379999,379.2833846379999,381.3193215989995,381.3193215989995,381.3193215989995,381.3193215989995,,,,,,,,,,,,,,,,,,,,,,,,,,,,,,,,,,,,,,,03,007,2022-09-23_14h40.32.875,test2,2022.2.4,59.996668985023845,
0,0,0,0,53,0,53,0,381.3193215989995,381.3193215989995,381.3193215989995,381.3193215989995,381.3193215989995,381.3193215989995,381.3193215989995,-1,-1,rojo,1,['N_B'],382.8703432599996,382.8703432599996,382.8703432599996,382.8703432599996,384.9060847439996,384.9060847439996,384.9060847439996,384.9060847439996,384.9060847439996,384.9060847439996,384.9060847439996,384.9060847439996,386.94107144699956,386.94107144699956,386.94107144699956,386.94107144699956,,,,,,,,,,,,,,,,,,,,,,,,,,,,,,,,,,,,,,,03,007,2022-09-23_14h40.32.875,test2,2022.2.4,59.996668985023845,
0,0,0,0,54,0,54,0,386.94107144699956,386.94107144699956,386.94107144699956,386.94107144699956,386.94107144699956,386.94107144699956,386.94107144699956,-1,1,rojo,1,['N_B'],389.72846636400027,389.72846636400027,389.72846636400027,389.72846636400027,391.76357002999976,391.76357002999976,391.76357002999976,391.76357002999976,391.76357002999976,391.76357002999976,391.76357002999976,391.76357002999976,393.7991416320001,393.7991416320001,393.7991416320001,393.7991416320001,,,,,,,,,,,,,,,,,,,,,,,,,,,,,,,,,,,,,,,03,007,2022-09-23_14h40.32.875,test2,2022.2.4,59.996668985023845,
0,0,0,0,55,0,55,0,393.7991416320001,393.7991416320001,393.7991416320001,393.7991416320001,393.7991416320001,393.7991416320001,393.7991416320001,1,-1,azul,0,['N_A'],395.66799612499926,395.66799612499926,395.66799612499926,395.66799612499926,397.7038622079999,397.7038622079999,397.7038622079999,397.7038622079999,397.7038622079999,397.7038622079999,397.7038622079999,397.7038622079999,399.73935419999907,399.73935419999907,399.73935419999907,399.73935419999907,,,,,,,,,,,,,,,,,,,,,,,,,,,,,,,,,,,,,,,03,007,2022-09-23_14h40.32.875,test2,2022.2.4,59.996668985023845,
0,0,0,0,56,0,56,0,399.73935419999907,399.73935419999907,399.73935419999907,399.73935419999907,399.73935419999907,399.73935419999907,399.73935419999907,1,-1,rojo,1,['N_A'],401.757960252,401.757960252,401.757960252,401.757960252,403.7937650469994,403.7937650469994,403.7937650469994,403.7937650469994,403.7937650469994,403.7937650469994,403.7937650469994,403.7937650469994,405.8290778949995,405.8290778949995,405.8290778949995,405.8290778949995,,,,,,,,,,,,,,,,,,,,,,,,,,,,,,,,,,,,,,,03,007,2022-09-23_14h40.32.875,test2,2022.2.4,59.996668985023845,
0,0,0,0,57,0,57,0,405.8290778949995,405.8290778949995,405.8290778949995,405.8290778949995,405.8290778949995,405.8290778949995,405.8290778949995,-1,1,azul,1,['N_A'],408.0483017059996,408.0483017059996,408.0483017059996,408.0483017059996,410.0841479169994,410.0841479169994,410.0841479169994,410.0841479169994,410.0841479169994,410.0841479169994,410.0841479169994,410.0841479169994,412.1196981329995,412.1196981329995,412.1196981329995,412.1196981329995,,,,,,,,,,,,,,,,,,,,,,,,,,,,,,,,,,,,,,,03,007,2022-09-23_14h40.32.875,test2,2022.2.4,59.996668985023845,
0,0,0,0,58,0,58,0,412.1196981329995,412.1196981329995,412.1196981329995,412.1196981329995,412.1196981329995,412.1196981329995,412.1196981329995,1,-1,rojo,1,['N_A'],414.6383331349989,414.6383331349989,414.6383331349989,414.6383331349989,416.67433618299947,416.67433618299947,416.67433618299947,416.67433618299947,416.67433618299947,416.67433618299947,416.67433618299947,416.67433618299947,418.71051120599986,418.71051120599986,418.71051120599986,418.71051120599986,,,,,,,,,,,,,,,,,,,,,,,,,,,,,,,,,,,,,,,03,007,2022-09-23_14h40.32.875,test2,2022.2.4,59.996668985023845,
0,0,0,0,59,0,59,0,418.71051120599986,418.71051120599986,418.71051120599986,418.71051120599986,418.71051120599986,418.71051120599986,418.71051120599986,1,-1,rojo,1,['N_A'],420.5623196479992,420.5623196479992,420.5623196479992,420.5623196479992,422.59760002499934,422.59760002499934,422.59760002499934,422.59760002499934,422.59760002499934,422.59760002499934,422.59760002499934,422.59760002499934,424.6334280890005,424.6334280890005,424.6334280890005,424.6334280890005,,,,,,,,,,,,,,,,,,,,,,,,,,,,,,,,,,,,,,,03,007,2022-09-23_14h40.32.875,test2,2022.2.4,59.996668985023845,
0,0,0,0,60,0,60,0,424.6334280890005,424.6334280890005,424.6334280890005,424.6334280890005,424.6334280890005,424.6334280890005,424.6334280890005,1,-1,rojo,0,['N_B'],426.68568358799894,426.68568358799894,426.68568358799894,426.68568358799894,428.7213858260002,428.7213858260002,428.7213858260002,428.7213858260002,428.7213858260002,428.7213858260002,428.7213858260002,428.7213858260002,430.7566127249993,430.7566127249993,430.7566127249993,430.7566127249993,,,,,,,,,,,,,,,,,,,,,,,,,,,,,,,,,,,,,,,03,007,2022-09-23_14h40.32.875,test2,2022.2.4,59.996668985023845,
0,0,0,0,61,0,61,0,430.7566127249993,430.7566127249993,430.7566127249993,430.7566127249993,430.7566127249993,430.7566127249993,430.7566127249993,1,1,azul,0,['N_A'],435.47887159899983,435.47887159899983,435.47887159899983,435.47887159899983,437.49675148799906,437.49675148799906,437.49675148799906,437.49675148799906,437.49675148799906,437.49675148799906,437.49675148799906,437.49675148799906,439.5332319850004,439.5332319850004,439.5332319850004,439.5332319850004,,,,,,,,,,,,,,,,,,,,,,,,,,,,,,,,,,,,,,,03,007,2022-09-23_14h40.32.875,test2,2022.2.4,59.996668985023845,
0,0,0,0,62,0,62,0,439.5332319850004,439.5332319850004,439.5332319850004,439.5332319850004,439.5332319850004,439.5332319850004,439.5332319850004,1,1,rojo,0,['N_B'],443.03691101799996,443.03691101799996,443.03691101799996,443.03691101799996,445.0550697409999,445.0550697409999,445.0550697409999,445.0550697409999,445.0550697409999,445.0550697409999,445.0550697409999,445.0550697409999,447.0908667099993,447.0908667099993,447.0908667099993,447.0908667099993,,,,,,,,,,,,,,,,,,,,,,,,,,,,,,,,,,,,,,,03,007,2022-09-23_14h40.32.875,test2,2022.2.4,59.996668985023845,
0,0,0,0,63,0,63,0,447.0908667099993,447.0908667099993,447.0908667099993,447.0908667099993,447.0908667099993,447.0908667099993,447.0908667099993,1,1,azul,0,['N_A'],449.810897207999,449.810897207999,449.810897207999,449.810897207999,451.8466448649997,451.8466448649997,451.8466448649997,451.8466448649997,451.8466448649997,451.8466448649997,451.8466448649997,451.8466448649997,453.88159757299945,453.88159757299945,453.88159757299945,453.88159757299945,,,,,,,,,,,,,,,,,,,,,,,,,,,,,,,,,,,,,,,03,007,2022-09-23_14h40.32.875,test2,2022.2.4,59.996668985023845,
0,0,0,0,64,0,64,0,453.88159757299945,453.88159757299945,453.88159757299945,453.88159757299945,453.88159757299945,453.88159757299945,453.88159757299945,1,-1,rojo,1,['N_A'],455.5512706520003,455.5512706520003,455.5512706520003,455.5512706520003,457.5865243190001,457.5865243190001,457.5865243190001,457.5865243190001,457.5865243190001,457.5865243190001,457.5865243190001,457.5865243190001,459.62185178099935,459.62185178099935,459.62185178099935,459.62185178099935,,,,,,,,,,,,,,,,,,,,,,,,,,,,,,,,,,,,,,,03,007,2022-09-23_14h40.32.875,test2,2022.2.4,59.996668985023845,
0,0,0,0,65,0,65,0,459.62185178099935,459.62185178099935,459.62185178099935,459.62185178099935,459.62185178099935,459.62185178099935,459.62185178099935,1,1,rojo,0,['N_B'],461.1901455999996,461.1901455999996,461.1901455999996,461.1901455999996,463.2260912410002,463.2260912410002,463.2260912410002,463.2260912410002,463.2260912410002,463.2260912410002,463.2260912410002,463.2260912410002,465.261850036999,465.261850036999,465.261850036999,465.261850036999,,,,,,,,,,,,,,,,,,,,,,,,,,,,,,,,,,,,,,,03,007,2022-09-23_14h40.32.875,test2,2022.2.4,59.996668985023845,
0,0,0,0,66,0,66,0,465.261850036999,465.261850036999,465.261850036999,465.261850036999,465.261850036999,465.261850036999,465.261850036999,1,-1,azul,0,['N_A'],467.5135163899995,467.5135163899995,467.5135163899995,467.5135163899995,469.5498589759991,469.5498589759991,469.5498589759991,469.5498589759991,469.5498589759991,469.5498589759991,469.5498589759991,469.5498589759991,471.58479856099984,471.58479856099984,471.58479856099984,471.58479856099984,,,,,,,,,,,,,,,,,,,,,,,,,,,,,,,,,,,,,,,03,007,2022-09-23_14h40.32.875,test2,2022.2.4,59.996668985023845,
0,0,0,0,67,0,67,0,471.58479856099984,471.58479856099984,471.58479856099984,471.58479856099984,471.58479856099984,471.58479856099984,471.58479856099984,-1,-1,azul,1,['N_A'],473.5033028449998,473.5033028449998,473.5033028449998,473.5033028449998,475.5398319699998,475.5398319699998,475.5398319699998,475.5398319699998,475.5398319699998,475.5398319699998,475.5398319699998,475.5398319699998,477.57547102199896,477.57547102199896,477.57547102199896,477.57547102199896,,,,,,,,,,,,,,,,,,,,,,,,,,,,,,,,,,,,,,,03,007,2022-09-23_14h40.32.875,test2,2022.2.4,59.996668985023845,
0,0,0,0,68,0,68,0,477.57547102199896,477.57547102199896,477.57547102199896,477.57547102199896,477.57547102199896,477.57547102199896,477.57547102199896,1,1,rojo,0,['N_B'],479.46004522600015,479.46004522600015,479.46004522600015,479.46004522600015,481.496222836,481.496222836,481.496222836,481.496222836,481.496222836,481.496222836,481.496222836,481.496222836,483.53162866799903,483.53162866799903,483.53162866799903,483.53162866799903,,,,,,,,,,,,,,,,,,,,,,,,,,,,,,,,,,,,,,,03,007,2022-09-23_14h40.32.875,test2,2022.2.4,59.996668985023845,
0,0,0,0,69,0,69,0,483.53162866799903,483.53162866799903,483.53162866799903,483.53162866799903,483.53162866799903,483.53162866799903,483.53162866799903,1,-1,azul,1,['N_B'],486.2515065509997,486.2515065509997,486.2515065509997,486.2515065509997,488.28713206000066,488.28713206000066,488.28713206000066,488.28713206000066,488.28713206000066,488.28713206000066,488.28713206000066,488.28713206000066,490.32222697699945,490.32222697699945,490.32222697699945,490.32222697699945,,,,,,,,,,,,,,,,,,,,,,,,,,,,,,,,,,,,,,,03,007,2022-09-23_14h40.32.875,test2,2022.2.4,59.996668985023845,
0,0,0,0,70,0,70,0,490.32222697699945,490.32222697699945,490.32222697699945,490.32222697699945,490.32222697699945,490.32222697699945,490.32222697699945,1,-1,azul,1,['N_B'],493.5431608969993,493.5431608969993,493.5431608969993,493.5431608969993,495.5777609329998,495.5777609329998,495.5777609329998,495.5777609329998,495.5777609329998,495.5777609329998,495.5777609329998,495.5777609329998,497.61329620200013,497.61329620200013,497.61329620200013,497.61329620200013,,,,,,,,,,,,,,,,,,,,,,,,,,,,,,,,,,,,,,,03,007,2022-09-23_14h40.32.875,test2,2022.2.4,59.996668985023845,
0,0,0,0,71,0,71,0,497.61329620200013,497.61329620200013,497.61329620200013,497.61329620200013,497.61329620200013,497.61329620200013,497.61329620200013,1,-1,azul,0,['N_A'],499.5157323450003,499.5157323450003,499.5157323450003,499.5157323450003,501.5511375980004,501.5511375980004,501.5511375980004,501.5511375980004,501.5511375980004,501.5511375980004,501.5511375980004,501.5511375980004,503.58750090099966,503.58750090099966,503.58750090099966,503.58750090099966,,,,,,,,,,,,,,,,,,,,,,,,,,,,,,,,,,,,,,,03,007,2022-09-23_14h40.32.875,test2,2022.2.4,59.996668985023845,
0,0,0,0,72,0,72,0,503.58750090099966,503.58750090099966,503.58750090099966,503.58750090099966,503.58750090099966,503.58750090099966,503.58750090099966,-1,1,azul,0,['N_B'],505.7066410669995,505.7066410669995,505.7066410669995,505.7066410669995,507.72490124700016,507.72490124700016,507.72490124700016,507.72490124700016,507.72490124700016,507.72490124700016,507.72490124700016,507.72490124700016,509.76112025399925,509.76112025399925,509.76112025399925,509.76112025399925,,,,,,,,,,,,,,,,,,,,,,,,,,,,,,,,,,,,,,,03,007,2022-09-23_14h40.32.875,test2,2022.2.4,59.996668985023845,
0,0,0,0,73,0,73,0,509.76112025399925,509.76112025399925,509.76112025399925,509.76112025399925,509.76112025399925,509.76112025399925,509.76112025399925,1,1,azul,0,['N_A'],511.87941040700025,511.87941040700025,511.87941040700025,511.87941040700025,513.9153725790002,513.9153725790002,513.9153725790002,513.9153725790002,513.9153725790002,513.9153725790002,513.9153725790002,513.9153725790002,515.9508248689999,515.9508248689999,515.9508248689999,515.9508248689999,,,,,,,,,,,,,,,,,,,,,,,,,,,,,,,,,,,,,,,03,007,2022-09-23_14h40.32.875,test2,2022.2.4,59.996668985023845,
0,0,0,0,74,0,74,0,515.9508248689999,515.9508248689999,515.9508248689999,515.9508248689999,515.9508248689999,515.9508248689999,515.9508248689999,1,-1,rojo,1,['N_A'],517.5694340169994,517.5694340169994,517.5694340169994,517.5694340169994,519.6048980809992,519.6048980809992,519.6048980809992,519.6048980809992,519.6048980809992,519.6048980809992,519.6048980809992,519.6048980809992,521.6402498379994,521.6402498379994,521.6402498379994,521.6402498379994,,,,,,,,,,,,,,,,,,,,,,,,,,,,,,,,,,,,,,,03,007,2022-09-23_14h40.32.875,test2,2022.2.4,59.996668985023845,
0,0,0,0,75,0,75,0,521.6402498379994,521.6402498379994,521.6402498379994,521.6402498379994,521.6402498379994,521.6402498379994,521.6402498379994,1,-1,rojo,0,['N_B'],524.8609749080006,524.8609749080006,524.8609749080006,524.8609749080006,526.8953291819998,526.8953291819998,526.8953291819998,526.8953291819998,526.8953291819998,526.8953291819998,526.8953291819998,526.8953291819998,528.9311764369995,528.9311764369995,528.9311764369995,528.9311764369995,,,,,,,,,,,,,,,,,,,,,,,,,,,,,,,,,,,,,,,03,007,2022-09-23_14h40.32.875,test2,2022.2.4,59.996668985023845,
0,0,0,0,76,0,76,0,528.9311764369995,528.9311764369995,528.9311764369995,528.9311764369995,528.9311764369995,528.9311764369995,528.9311764369995,1,-1,azul,1,['N_B'],530.5335545839989,530.5335545839989,530.5335545839989,530.5335545839989,532.568855522999,532.568855522999,532.568855522999,532.568855522999,532.568855522999,532.568855522999,532.568855522999,532.568855522999,534.6047212880003,534.6047212880003,534.6047212880003,534.6047212880003,,,,,,,,,,,,,,,,,,,,,,,,,,,,,,,,,,,,,,,03,007,2022-09-23_14h40.32.875,test2,2022.2.4,59.996668985023845,
0,0,0,0,77,0,77,0,534.6047212880003,534.6047212880003,534.6047212880003,534.6047212880003,534.6047212880003,534.6047212880003,534.6047212880003,1,-1,azul,1,['N_B'],536.0559962989992,536.0559962989992,536.0559962989992,536.0559962989992,538.091665091999,538.091665091999,538.091665091999,538.091665091999,538.091665091999,538.091665091999,538.091665091999,538.091665091999,540.1272823870004,540.1272823870004,540.1272823870004,540.1272823870004,,,,,,,,,,,,,,,,,,,,,,,,,,,,,,,,,,,,,,,03,007,2022-09-23_14h40.32.875,test2,2022.2.4,59.996668985023845,
0,0,0,0,78,0,78,0,540.1272823870004,540.1272823870004,540.1272823870004,540.1272823870004,540.1272823870004,540.1272823870004,540.1272823870004,-1,-1,rojo,1,['N_B'],541.8960537620005,541.8960537620005,541.8960537620005,541.8960537620005,543.9312494999995,543.9312494999995,543.9312494999995,543.9312494999995,543.9312494999995,543.9312494999995,543.9312494999995,543.9312494999995,545.9670835060006,545.9670835060006,545.9670835060006,545.9670835060006,,,,,,,,,,,,,,,,,,,,,,,,,,,,,,,,,,,,,,,03,007,2022-09-23_14h40.32.875,test2,2022.2.4,59.996668985023845,
0,0,0,0,79,0,79,0,545.9670835060006,545.9670835060006,545.9670835060006,545.9670835060006,545.9670835060006,545.9670835060006,545.9670835060006,1,-1,azul,0,['N_A'],547.5358088699995,547.5358088699995,547.5358088699995,547.5358088699995,549.5715182780004,549.5715182780004,549.5715182780004,549.5715182780004,549.5715182780004,549.5715182780004,549.5715182780004,549.5715182780004,551.6073265569994,551.6073265569994,551.6073265569994,551.6073265569994,,,,,,,,,,,,,,,,,,,,,,,,,,,,,,,,,,,,,,,03,007,2022-09-23_14h40.32.875,test2,2022.2.4,59.996668985023845,
0,0,0,0,80,0,80,0,551.6073265569994,551.6073265569994,551.6073265569994,551.6073265569994,551.6073265569994,551.6073265569994,551.6073265569994,-1,-1,azul,0,['N_B'],553.0913507109999,553.0913507109999,553.0913507109999,553.0913507109999,555.1275898139993,555.1275898139993,555.1275898139993,555.1275898139993,555.1275898139993,555.1275898139993,555.1275898139993,555.1275898139993,557.1633873030005,557.1633873030005,557.1633873030005,557.1633873030005,,,,,,,,,,,,,,,,,,,,,,,,,,,,,,,,,,,,,,,03,007,2022-09-23_14h40.32.875,test2,2022.2.4,59.996668985023845,
0,0,0,0,81,0,81,0,557.1633873030005,557.1633873030005,557.1633873030005,557.1633873030005,557.1633873030005,557.1633873030005,557.1633873030005,1,-1,azul,0,['N_A'],558.8484927310001,558.8484927310001,558.8484927310001,558.8484927310001,560.8827751240005,560.8827751240005,560.8827751240005,560.8827751240005,560.8827751240005,560.8827751240005,560.8827751240005,560.8827751240005,562.9189363149999,562.9189363149999,562.9189363149999,562.9189363149999,,,,,,,,,,,,,,,,,,,,,,,,,,,,,,,,,,,,,,,03,007,2022-09-23_14h40.32.875,test2,2022.2.4,59.996668985023845,
0,0,0,0,82,0,82,0,562.9189363149999,562.9189363149999,562.9189363149999,562.9189363149999,562.9189363149999,562.9189363149999,562.9189363149999,1,-1,rojo,0,['N_B'],565.3715268609994,565.3715268609994,565.3715268609994,565.3715268609994,567.4073768540002,567.4073768540002,567.4073768540002,567.4073768540002,567.4073768540002,567.4073768540002,567.4073768540002,567.4073768540002,569.4419419019996,569.4419419019996,569.4419419019996,569.4419419019996,,,,,,,,,,,,,,,,,,,,,,,,,,,,,,,,,,,,,,,03,007,2022-09-23_14h40.32.875,test2,2022.2.4,59.996668985023845,
0,0,0,0,83,0,83,0,569.4419419019996,569.4419419019996,569.4419419019996,569.4419419019996,569.4419419019996,569.4419419019996,569.4419419019996,1,1,azul,0,['N_A'],571.1779448159996,571.1779448159996,571.1779448159996,571.1779448159996,573.1968030900007,573.1968030900007,573.1968030900007,573.1968030900007,573.1968030900007,573.1968030900007,573.1968030900007,573.1968030900007,575.2329507169998,575.2329507169998,575.2329507169998,575.2329507169998,,,,,,,,,,,,,,,,,,,,,,,,,,,,,,,,,,,,,,,03,007,2022-09-23_14h40.32.875,test2,2022.2.4,59.996668985023845,
0,0,0,0,84,0,84,0,575.2329507169998,575.2329507169998,575.2329507169998,575.2329507169998,575.2329507169998,575.2329507169998,575.2329507169998,-1,1,azul,0,['N_B'],577.3347281040005,577.3347281040005,577.3347281040005,577.3347281040005,579.3705895259991,579.3705895259991,579.3705895259991,579.3705895259991,579.3705895259991,579.3705895259991,579.3705895259991,579.3705895259991,581.406450941,581.406450941,581.406450941,581.406450941,,,,,,,,,,,,,,,,,,,,,,,,,,,,,,,,,,,,,,,03,007,2022-09-23_14h40.32.875,test2,2022.2.4,59.996668985023845,
0,0,0,0,85,0,85,0,581.406450941,581.406450941,581.406450941,581.406450941,581.406450941,581.406450941,581.406450941,1,-1,azul,0,['N_A'],583.4589793149989,583.4589793149989,583.4589793149989,583.4589793149989,585.4944575749996,585.4944575749996,585.4944575749996,585.4944575749996,585.4944575749996,585.4944575749996,585.4944575749996,585.4944575749996,587.529717903999,587.529717903999,587.529717903999,587.529717903999,,,,,,,,,,,,,,,,,,,,,,,,,,,,,,,,,,,,,,,03,007,2022-09-23_14h40.32.875,test2,2022.2.4,59.996668985023845,
0,0,0,0,86,0,86,0,587.529717903999,587.529717903999,587.529717903999,587.529717903999,587.529717903999,587.529717903999,587.529717903999,1,-1,rojo,1,['N_A'],589.0480271630004,589.0480271630004,589.0480271630004,589.0480271630004,591.0836640889993,591.0836640889993,591.0836640889993,591.0836640889993,591.0836640889993,591.0836640889993,591.0836640889993,591.0836640889993,593.1192965089995,593.1192965089995,593.1192965089995,593.1192965089995,,,,,,,,,,,,,,,,,,,,,,,,,,,,,,,,,,,,,,,03,007,2022-09-23_14h40.32.875,test2,2022.2.4,59.996668985023845,
0,0,0,0,87,0,87,0,593.1192965089995,593.1192965089995,593.1192965089995,593.1192965089995,593.1192965089995,593.1192965089995,593.1192965089995,-1,1,azul,0,['N_B'],594.971230354,594.971230354,594.971230354,594.971230354,597.0069248290001,597.0069248290001,597.0069248290001,597.0069248290001,597.0069248290001,597.0069248290001,597.0069248290001,597.0069248290001,599.0417711779992,599.0417711779992,599.0417711779992,599.0417711779992,,,,,,,,,,,,,,,,,,,,,,,,,,,,,,,,,,,,,,,03,007,2022-09-23_14h40.32.875,test2,2022.2.4,59.996668985023845,
0,0,0,0,88,0,88,0,599.0417711779992,599.0417711779992,599.0417711779992,599.0417711779992,599.0417711779992,599.0417711779992,599.0417711779992,1,-1,azul,1,['N_B'],600.5274884619994,600.5274884619994,600.5274884619994,600.5274884619994,602.5627631749994,602.5627631749994,602.5627631749994,602.5627631749994,602.5627631749994,602.5627631749994,602.5627631749994,602.5627631749994,604.5989206640006,604.5989206640006,604.5989206640006,604.5989206640006,,,,,,,,,,,,,,,,,,,,,,,,,,,,,,,,,,,,,,,03,007,2022-09-23_14h40.32.875,test2,2022.2.4,59.996668985023845,
0,0,0,0,89,0,89,0,604.5989206640006,604.5989206640006,604.5989206640006,604.5989206640006,604.5989206640006,604.5989206640006,604.5989206640006,1,-1,azul,0,['N_A'],606.2998247020005,606.2998247020005,606.2998247020005,606.2998247020005,608.3365488839991,608.3365488839991,608.3365488839991,608.3365488839991,608.3365488839991,608.3365488839991,608.3365488839991,608.3365488839991,610.3717607960007,610.3717607960007,610.3717607960007,610.3717607960007,,,,,,,,,,,,,,,,,,,,,,,,,,,,,,,,,,,,,,,03,007,2022-09-23_14h40.32.875,test2,2022.2.4,59.996668985023845,
0,0,0,0,90,0,90,0,610.3717607960007,610.3717607960007,610.3717607960007,610.3717607960007,610.3717607960007,610.3717607960007,610.3717607960007,-1,-1,azul,0,['N_B'],612.2240643770001,612.2240643770001,612.2240643770001,612.2240643770001,614.2590137099996,614.2590137099996,614.2590137099996,614.2590137099996,614.2590137099996,614.2590137099996,614.2590137099996,614.2590137099996,616.2949234200005,616.2949234200005,616.2949234200005,616.2949234200005,,,,,,,,,,,,,,,,,,,,,,,,,,,,,,,,,,,,,,,03,007,2022-09-23_14h40.32.875,test2,2022.2.4,59.996668985023845,
0,0,0,0,91,0,91,0,616.2949234200005,616.2949234200005,616.2949234200005,616.2949234200005,616.2949234200005,616.2949234200005,616.2949234200005,-1,-1,rojo,0,['N_A'],618.9641733799999,618.9641733799999,618.9641733799999,618.9641733799999,621.000060684999,621.000060684999,621.000060684999,621.000060684999,621.000060684999,621.000060684999,621.000060684999,621.000060684999,623.0355351060007,623.0355351060007,623.0355351060007,623.0355351060007,,,,,,,,,,,,,,,,,,,,,,,,,,,,,,,,,,,,,,,03,007,2022-09-23_14h40.32.875,test2,2022.2.4,59.996668985023845,
0,0,0,0,92,0,92,0,623.0355351060007,623.0355351060007,623.0355351060007,623.0355351060007,623.0355351060007,623.0355351060007,623.0355351060007,1,-1,rojo,0,['N_B'],624.7034854070007,624.7034854070007,624.7034854070007,624.7034854070007,626.7398386869991,626.7398386869991,626.7398386869991,626.7398386869991,626.7398386869991,626.7398386869991,626.7398386869991,626.7398386869991,628.7747396409995,628.7747396409995,628.7747396409995,628.7747396409995,,,,,,,,,,,,,,,,,,,,,,,,,,,,,,,,,,,,,,,03,007,2022-09-23_14h40.32.875,test2,2022.2.4,59.996668985023845,
0,0,0,0,93,0,93,0,628.7747396409995,628.7747396409995,628.7747396409995,628.7747396409995,628.7747396409995,628.7747396409995,628.7747396409995,-1,-1,rojo,1,['N_B'],630.4936848470006,630.4936848470006,630.4936848470006,630.4936848470006,632.529317135999,632.529317135999,632.529317135999,632.529317135999,632.529317135999,632.529317135999,632.529317135999,632.529317135999,634.5647360530002,634.5647360530002,634.5647360530002,634.5647360530002,,,,,,,,,,,,,,,,,,,,,,,,,,,,,,,,,,,,,,,03,007,2022-09-23_14h40.32.875,test2,2022.2.4,59.996668985023845,
0,0,0,0,94,0,94,0,634.5647360530002,634.5647360530002,634.5647360530002,634.5647360530002,634.5647360530002,634.5647360530002,634.5647360530002,1,-1,azul,0,['N_A'],636.0495358240005,636.0495358240005,636.0495358240005,636.0495358240005,638.0852987229991,638.0852987229991,638.0852987229991,638.0852987229991,638.0852987229991,638.0852987229991,638.0852987229991,638.0852987229991,640.1212881400006,640.1212881400006,640.1212881400006,640.1212881400006,,,,,,,,,,,,,,,,,,,,,,,,,,,,,,,,,,,,,,,03,007,2022-09-23_14h40.32.875,test2,2022.2.4,59.996668985023845,
0,0,0,0,95,0,95,0,640.1212881400006,640.1212881400006,640.1212881400006,640.1212881400006,640.1212881400006,640.1212881400006,640.1212881400006,1,-1,rojo,1,['N_A'],641.7730277770006,641.7730277770006,641.7730277770006,641.7730277770006,643.8082267669997,643.8082267669997,643.8082267669997,643.8082267669997,643.8082267669997,643.8082267669997,643.8082267669997,643.8082267669997,645.8433685710006,645.8433685710006,645.8433685710006,645.8433685710006,,,,,,,,,,,,,,,,,,,,,,,,,,,,,,,,,,,,,,,03,007,2022-09-23_14h40.32.875,test2,2022.2.4,59.996668985023845,
0,0,0,0,96,0,96,0,645.8433685710006,645.8433685710006,645.8433685710006,645.8433685710006,645.8433685710006,645.8433685710006,645.8433685710006,1,-1,rojo,0,['N_B'],647.4126373979998,647.4126373979998,647.4126373979998,647.4126373979998,649.4485024339992,649.4485024339992,649.4485024339992,649.4485024339992,649.4485024339992,649.4485024339992,649.4485024339992,649.4485024339992,651.4825372249998,651.4825372249998,651.4825372249998,651.4825372249998,,,,,,,,,,,,,,,,,,,,,,,,,,,,,,,,,,,,,,,03,007,2022-09-23_14h40.32.875,test2,2022.2.4,59.996668985023845,
0,0,0,0,97,0,97,0,651.4825372249998,651.4825372249998,651.4825372249998,651.4825372249998,651.4825372249998,651.4825372249998,651.4825372249998,1,-1,azul,0,['N_A'],653.0021708210006,653.0021708210006,653.0021708210006,653.0021708210006,655.0376529370005,655.0376529370005,655.0376529370005,655.0376529370005,655.0376529370005,655.0376529370005,655.0376529370005,655.0376529370005,657.0728248029991,657.0728248029991,657.0728248029991,657.0728248029991,,,,,,,,,,,,,,,,,,,,,,,,,,,,,,,,,,,,,,,03,007,2022-09-23_14h40.32.875,test2,2022.2.4,59.996668985023845,
0,0,0,0,98,0,98,0,657.0728248029991,657.0728248029991,657.0728248029991,657.0728248029991,657.0728248029991,657.0728248029991,657.0728248029991,1,-1,rojo,0,['N_B'],658.7913015769991,658.7913015769991,658.7913015769991,658.7913015769991,660.8272670379993,660.8272670379993,660.8272670379993,660.8272670379993,660.8272670379993,660.8272670379993,660.8272670379993,660.8272670379993,662.8628018710006,662.8628018710006,662.8628018710006,662.8628018710006,,,,,,,,,,,,,,,,,,,,,,,,,,,,,,,,,,,,,,,03,007,2022-09-23_14h40.32.875,test2,2022.2.4,59.996668985023845,
0,0,0,0,99,0,99,0,662.8628018710006,662.8628018710006,662.8628018710006,662.8628018710006,662.8628018710006,662.8628018710006,662.8628018710006,1,-1,azul,0,['N_A'],664.7819474200005,664.7819474200005,664.7819474200005,664.7819474200005,666.8180401749996,666.8180401749996,666.8180401749996,666.8180401749996,666.8180401749996,666.8180401749996,666.8180401749996,666.8180401749996,668.8528942930006,668.8528942930006,668.8528942930006,668.8528942930006,,,,,,,,,,,,,,,,,,,,,,,,,,,,,,,,,,,,,,,03,007,2022-09-23_14h40.32.875,test2,2022.2.4,59.996668985023845,
0,0,0,0,100,0,100,0,668.8528942930006,668.8528942930006,668.8528942930006,668.8528942930006,668.8528942930006,668.8528942930006,668.8528942930006,-1,-1,azul,1,['N_A'],670.5213381140002,670.5213381140002,670.5213381140002,670.5213381140002,672.5568434840006,672.5568434840006,672.5568434840006,672.5568434840006,672.5568434840006,672.5568434840006,672.5568434840006,672.5568434840006,674.5926565480004,674.5926565480004,674.5926565480004,674.5926565480004,,,,,,,,,,,,,,,,,,,,,,,,,,,,,,,,,,,,,,,03,007,2022-09-23_14h40.32.875,test2,2022.2.4,59.996668985023845,
0,0,0,0,101,0,101,0,674.5926565480004,674.5926565480004,674.5926565480004,674.5926565480004,674.5926565480004,674.5926565480004,674.5926565480004,1,-1,rojo,1,['N_A'],676.610995957999,676.610995957999,676.610995957999,676.610995957999,678.6473122799998,678.6473122799998,678.6473122799998,678.6473122799998,678.6473122799998,678.6473122799998,678.6473122799998,678.6473122799998,680.6823755219993,680.6823755219993,680.6823755219993,680.6823755219993,,,,,,,,,,,,,,,,,,,,,,,,,,,,,,,,,,,,,,,03,007,2022-09-23_14h40.32.875,test2,2022.2.4,59.996668985023845,
0,0,0,0,102,0,102,0,680.6823755219993,680.6823755219993,680.6823755219993,680.6823755219993,680.6823755219993,680.6823755219993,680.6823755219993,1,-1,rojo,0,['N_B'],682.417451673,682.417451673,682.417451673,682.417451673,684.4528971349991,684.4528971349991,684.4528971349991,684.4528971349991,684.4528971349991,684.4528971349991,684.4528971349991,684.4528971349991,686.4884831119998,686.4884831119998,686.4884831119998,686.4884831119998,,,,,,,,,,,,,,,,,,,,,,,,,,,,,,,,,,,,,,,03,007,2022-09-23_14h40.32.875,test2,2022.2.4,59.996668985023845,
0,0,0,0,103,0,103,0,686.4884831119998,686.4884831119998,686.4884831119998,686.4884831119998,686.4884831119998,686.4884831119998,686.4884831119998,1,-1,azul,0,['N_A'],689.0586313509993,689.0586313509993,689.0586313509993,689.0586313509993,691.0935691499999,691.0935691499999,691.0935691499999,691.0935691499999,691.0935691499999,691.0935691499999,691.0935691499999,691.0935691499999,693.1293401990006,693.1293401990006,693.1293401990006,693.1293401990006,,,,,,,,,,,,,,,,,,,,,,,,,,,,,,,,,,,,,,,03,007,2022-09-23_14h40.32.875,test2,2022.2.4,59.996668985023845,
0,0,0,0,104,0,104,0,693.1293401990006,693.1293401990006,693.1293401990006,693.1293401990006,693.1293401990006,693.1293401990006,693.1293401990006,1,-1,rojo,1,['N_A'],694.614907318999,694.614907318999,694.614907318999,694.614907318999,696.650082021999,696.650082021999,696.650082021999,696.650082021999,696.650082021999,696.650082021999,696.650082021999,696.650082021999,698.685881587,698.685881587,698.685881587,698.685881587,,,,,,,,,,,,,,,,,,,,,,,,,,,,,,,,,,,,,,,03,007,2022-09-23_14h40.32.875,test2,2022.2.4,59.996668985023845,
0,0,0,0,105,0,105,0,698.685881587,698.685881587,698.685881587,698.685881587,698.685881587,698.685881587,698.685881587,-1,-1,azul,1,['N_A'],700.1540357680005,700.1540357680005,700.1540357680005,700.1540357680005,702.1895526509998,702.1895526509998,702.1895526509998,702.1895526509998,702.1895526509998,702.1895526509998,702.1895526509998,702.1895526509998,704.2253199030001,704.2253199030001,704.2253199030001,704.2253199030001,,,,,,,,,,,,,,,,,,,,,,,,,,,,,,,,,,,,,,,03,007,2022-09-23_14h40.32.875,test2,2022.2.4,59.996668985023845,
0,0,0,0,106,0,106,0,704.2253199030001,704.2253199030001,704.2253199030001,704.2253199030001,704.2253199030001,704.2253199030001,704.2253199030001,1,-1,rojo,1,['N_A'],708.7131898129992,708.7131898129992,708.7131898129992,708.7131898129992,710.7488664030006,710.7488664030006,710.7488664030006,710.7488664030006,710.7488664030006,710.7488664030006,710.7488664030006,710.7488664030006,712.7848794380006,712.7848794380006,712.7848794380006,712.7848794380006,,,,,,,,,,,,,,,,,,,,,,,,,,,,,,,,,,,,,,,03,007,2022-09-23_14h40.32.875,test2,2022.2.4,59.996668985023845,
0,0,0,0,107,0,107,0,712.7848794380006,712.7848794380006,712.7848794380006,712.7848794380006,712.7848794380006,712.7848794380006,712.7848794380006,1,-1,rojo,1,['N_A'],715.0709565479992,715.0709565479992,715.0709565479992,715.0709565479992,717.1060454260005,717.1060454260005,717.1060454260005,717.1060454260005,717.1060454260005,717.1060454260005,717.1060454260005,717.1060454260005,719.1414231069994,719.1414231069994,719.1414231069994,719.1414231069994,,,,,,,,,,,,,,,,,,,,,,,,,,,,,,,,,,,,,,,03,007,2022-09-23_14h40.32.875,test2,2022.2.4,59.996668985023845,
0,0,0,0,108,0,108,0,719.1414231069994,719.1414231069994,719.1414231069994,719.1414231069994,719.1414231069994,719.1414231069994,719.1414231069994,1,-1,rojo,0,['N_B'],721.5772406809992,721.5772406809992,721.5772406809992,721.5772406809992,723.6125258659995,723.6125258659995,723.6125258659995,723.6125258659995,723.6125258659995,723.6125258659995,723.6125258659995,723.6125258659995,725.648632946999,725.648632946999,725.648632946999,725.648632946999,,,,,,,,,,,,,,,,,,,,,,,,,,,,,,,,,,,,,,,03,007,2022-09-23_14h40.32.875,test2,2022.2.4,59.996668985023845,
0,0,0,0,109,0,109,0,725.648632946999,725.648632946999,725.648632946999,725.648632946999,725.648632946999,725.648632946999,725.648632946999,1,-1,azul,1,['N_B'],727.6672393919998,727.6672393919998,727.6672393919998,727.6672393919998,729.703526633999,729.703526633999,729.703526633999,729.703526633999,729.703526633999,729.703526633999,729.703526633999,729.703526633999,731.738764583999,731.738764583999,731.738764583999,731.738764583999,,,,,,,,,,,,,,,,,,,,,,,,,,,,,,,,,,,,,,,03,007,2022-09-23_14h40.32.875,test2,2022.2.4,59.996668985023845,
0,0,0,0,110,0,110,0,731.738764583999,731.738764583999,731.738764583999,731.738764583999,731.738764583999,731.738764583999,731.738764583999,1,-1,azul,1,['N_B'],733.807788402999,733.807788402999,733.807788402999,733.807788402999,735.842494474,735.842494474,735.842494474,735.842494474,735.842494474,735.842494474,735.842494474,735.842494474,737.8784968719992,737.8784968719992,737.8784968719992,737.8784968719992,,,,,,,,,,,,,,,,,,,,,,,,,,,,,,,,,,,,,,,03,007,2022-09-23_14h40.32.875,test2,2022.2.4,59.996668985023845,
0,0,0,0,111,0,111,0,737.8784968719992,737.8784968719992,737.8784968719992,737.8784968719992,737.8784968719992,737.8784968719992,737.8784968719992,-1,-1,rojo,0,['N_A'],739.664528293999,739.664528293999,739.664528293999,739.664528293999,741.6995616570002,741.6995616570002,741.6995616570002,741.6995616570002,741.6995616570002,741.6995616570002,741.6995616570002,741.6995616570002,743.7353944900005,743.7353944900005,743.7353944900005,743.7353944900005,,,,,,,,,,,,,,,,,,,,,,,,,,,,,,,,,,,,,,,03,007,2022-09-23_14h40.32.875,test2,2022.2.4,59.996668985023845,
0,0,0,0,112,0,112,0,743.7353944900005,743.7353944900005,743.7353944900005,743.7353944900005,743.7353944900005,743.7353944900005,743.7353944900005,1,-1,rojo,1,['N_A'],752.8619815319998,752.8619815319998,752.8619815319998,752.8619815319998,754.897770997999,754.897770997999,754.897770997999,754.897770997999,754.897770997999,754.897770997999,754.897770997999,754.897770997999,756.9329067449999,756.9329067449999,756.9329067449999,756.9329067449999,,,,,,,,,,,,,,,,,,,,,,,,,,,,,,,,,,,,,,,03,007,2022-09-23_14h40.32.875,test2,2022.2.4,59.996668985023845,
0,0,0,0,113,0,113,0,756.9329067449999,756.9329067449999,756.9329067449999,756.9329067449999,756.9329067449999,756.9329067449999,756.9329067449999,1,-1,rojo,0,['N_B'],758.4849602659997,758.4849602659997,758.4849602659997,758.4849602659997,760.5210539,760.5210539,760.5210539,760.5210539,760.5210539,760.5210539,760.5210539,760.5210539,762.5554776669996,762.5554776669996,762.5554776669996,762.5554776669996,,,,,,,,,,,,,,,,,,,,,,,,,,,,,,,,,,,,,,,03,007,2022-09-23_14h40.32.875,test2,2022.2.4,59.996668985023845,
0,0,0,0,114,0,114,0,762.5554776669996,762.5554776669996,762.5554776669996,762.5554776669996,762.5554776669996,762.5554776669996,762.5554776669996,1,1,azul,0,['N_A'],764.2406886190001,764.2406886190001,764.2406886190001,764.2406886190001,766.2602192809991,766.2602192809991,766.2602192809991,766.2602192809991,766.2602192809991,766.2602192809991,766.2602192809991,766.2602192809991,768.2956603479997,768.2956603479997,768.2956603479997,768.2956603479997,,,,,,,,,,,,,,,,,,,,,,,,,,,,,,,,,,,,,,,03,007,2022-09-23_14h40.32.875,test2,2022.2.4,59.996668985023845,
0,0,0,0,115,0,115,0,768.2956603479997,768.2956603479997,768.2956603479997,768.2956603479997,768.2956603479997,768.2956603479997,768.2956603479997,1,1,rojo,0,['N_B'],769.746928781,769.746928781,769.746928781,769.746928781,771.7834319840003,771.7834319840003,771.7834319840003,771.7834319840003,771.7834319840003,771.7834319840003,771.7834319840003,771.7834319840003,773.818988269999,773.818988269999,773.818988269999,773.818988269999,,,,,,,,,,,,,,,,,,,,,,,,,,,,,,,,,,,,,,,03,007,2022-09-23_14h40.32.875,test2,2022.2.4,59.996668985023845,
0,0,0,0,116,0,116,0,773.818988269999,773.818988269999,773.818988269999,773.818988269999,773.818988269999,773.818988269999,773.818988269999,-1,-1,rojo,1,['N_B'],776.8713863089997,776.8713863089997,776.8713863089997,776.8713863089997,778.907110533999,778.907110533999,778.907110533999,778.907110533999,778.907110533999,778.907110533999,778.907110533999,778.907110533999,780.9428276010003,780.9428276010003,780.9428276010003,780.9428276010003,,,,,,,,,,,,,,,,,,,,,,,,,,,,,,,,,,,,,,,03,007,2022-09-23_14h40.32.875,test2,2022.2.4,59.996668985023845,
0,0,0,0,117,0,117,0,780.9428276010003,780.9428276010003,780.9428276010003,780.9428276010003,780.9428276010003,780.9428276010003,780.9428276010003,1,1,azul,0,['N_A'],782.5779759950001,782.5779759950001,782.5779759950001,782.5779759950001,784.614386371999,784.614386371999,784.614386371999,784.614386371999,784.614386371999,784.614386371999,784.614386371999,784.614386371999,786.6491634270005,786.6491634270005,786.6491634270005,786.6491634270005,,,,,,,,,,,,,,,,,,,,,,,,,,,,,,,,,,,,,,,03,007,2022-09-23_14h40.32.875,test2,2022.2.4,59.996668985023845,
0,0,0,0,118,0,118,0,786.6491634270005,786.6491634270005,786.6491634270005,786.6491634270005,786.6491634270005,786.6491634270005,786.6491634270005,-1,-1,azul,1,['N_A'],788.5509201519999,788.5509201519999,788.5509201519999,788.5509201519999,790.5873195990007,790.5873195990007,790.5873195990007,790.5873195990007,790.5873195990007,790.5873195990007,790.5873195990007,790.5873195990007,792.6227259759999,792.6227259759999,792.6227259759999,792.6227259759999,,,,,,,,,,,,,,,,,,,,,,,,,,,,,,,,,,,,,,,03,007,2022-09-23_14h40.32.875,test2,2022.2.4,59.996668985023845,
0,0,0,0,119,0,119,0,792.6227259759999,792.6227259759999,792.6227259759999,792.6227259759999,792.6227259759999,792.6227259759999,792.6227259759999,1,-1,rojo,1,['N_A'],794.5414002819998,794.5414002819998,794.5414002819998,794.5414002819998,796.5778501620007,796.5778501620007,796.5778501620007,796.5778501620007,796.5778501620007,796.5778501620007,796.5778501620007,796.5778501620007,798.6124972180005,798.6124972180005,798.6124972180005,798.6124972180005,,,,,,,,,,,,,,,,,,,,,,,,,,,,,,,,,,,,,,,03,007,2022-09-23_14h40.32.875,test2,2022.2.4,59.996668985023845,
0,0,0,0,120,0,120,0,798.6124972180005,798.6124972180005,798.6124972180005,798.6124972180005,798.6124972180005,798.6124972180005,798.6124972180005,1,-1,rojo,0,['N_B'],800.1977430820007,800.1977430820007,800.1977430820007,800.1977430820007,802.2336856889997,802.2336856889997,802.2336856889997,802.2336856889997,802.2336856889997,802.2336856889997,802.2336856889997,802.2336856889997,804.268817746999,804.268817746999,804.268817746999,804.268817746999,,,,,,,,,,,,,,,,,,,,,,,,,,,,,,,,,,,,,,,03,007,2022-09-23_14h40.32.875,test2,2022.2.4,59.996668985023845,
0,0,0,0,121,0,121,0,804.268817746999,804.268817746999,804.268817746999,804.268817746999,804.268817746999,804.268817746999,804.268817746999,-1,-1,rojo,0,['N_A'],806.0877487020007,806.0877487020007,806.0877487020007,806.0877487020007,808.1227762649996,808.1227762649996,808.1227762649996,808.1227762649996,808.1227762649996,808.1227762649996,808.1227762649996,808.1227762649996,810.1582871819992,810.1582871819992,810.1582871819992,810.1582871819992,,,,,,,,,,,,,,,,,,,,,,,,,,,,,,,,,,,,,,,03,007,2022-09-23_14h40.32.875,test2,2022.2.4,59.996668985023845,
0,0,0,0,122,0,122,0,810.1582871819992,810.1582871819992,810.1582871819992,810.1582871819992,810.1582871819992,810.1582871819992,810.1582871819992,1,-1,rojo,0,['N_B'],811.8607361230006,811.8607361230006,811.8607361230006,811.8607361230006,813.8965566890001,813.8965566890001,813.8965566890001,813.8965566890001,813.8965566890001,813.8965566890001,813.8965566890001,813.8965566890001,815.9312505420003,815.9312505420003,815.9312505420003,815.9312505420003,,,,,,,,,,,,,,,,,,,,,,,,,,,,,,,,,,,,,,,03,007,2022-09-23_14h40.32.875,test2,2022.2.4,59.996668985023845,
0,0,0,0,123,0,123,0,815.9312505420003,815.9312505420003,815.9312505420003,815.9312505420003,815.9312505420003,815.9312505420003,815.9312505420003,-1,1,rojo,0,['N_A'],817.5170652180004,817.5170652180004,817.5170652180004,817.5170652180004,819.5522115530002,819.5522115530002,819.5522115530002,819.5522115530002,819.5522115530002,819.5522115530002,819.5522115530002,819.5522115530002,821.5879410029993,821.5879410029993,821.5879410029993,821.5879410029993,,,,,,,,,,,,,,,,,,,,,,,,,,,,,,,,,,,,,,,03,007,2022-09-23_14h40.32.875,test2,2022.2.4,59.996668985023845,
0,0,0,0,124,0,124,0,821.5879410029993,821.5879410029993,821.5879410029993,821.5879410029993,821.5879410029993,821.5879410029993,821.5879410029993,1,-1,rojo,0,['N_B'],823.8572659370002,823.8572659370002,823.8572659370002,823.8572659370002,825.8920697909998,825.8920697909998,825.8920697909998,825.8920697909998,825.8920697909998,825.8920697909998,825.8920697909998,825.8920697909998,827.928675186,827.928675186,827.928675186,827.928675186,,,,,,,,,,,,,,,,,,,,,,,,,,,,,,,,,,,,,,,03,007,2022-09-23_14h40.32.875,test2,2022.2.4,59.996668985023845,
0,0,0,0,125,0,125,0,827.928675186,827.928675186,827.928675186,827.928675186,827.928675186,827.928675186,827.928675186,1,-1,azul,0,['N_A'],829.5964239099994,829.5964239099994,829.5964239099994,829.5964239099994,831.6324639869999,831.6324639869999,831.6324639869999,831.6324639869999,831.6324639869999,831.6324639869999,831.6324639869999,831.6324639869999,833.6674259840001,833.6674259840001,833.6674259840001,833.6674259840001,,,,,,,,,,,,,,,,,,,,,,,,,,,,,,,,,,,,,,,03,007,2022-09-23_14h40.32.875,test2,2022.2.4,59.996668985023845,
0,0,0,0,126,0,126,0,833.6674259840001,833.6674259840001,833.6674259840001,833.6674259840001,833.6674259840001,833.6674259840001,833.6674259840001,1,-1,rojo,1,['N_A'],838.756628956,838.756628956,838.756628956,838.756628956,840.7924111079992,840.7924111079992,840.7924111079992,840.7924111079992,840.7924111079992,840.7924111079992,840.7924111079992,840.7924111079992,842.8279993769993,842.8279993769993,842.8279993769993,842.8279993769993,,,,,,,,,,,,,,,,,,,,,,,,,,,,,,,,,,,,,,,03,007,2022-09-23_14h40.32.875,test2,2022.2.4,59.996668985023845,
0,0,0,0,127,0,127,0,842.8279993769993,842.8279993769993,842.8279993769993,842.8279993769993,842.8279993769993,842.8279993769993,842.8279993769993,-1,1,azul,1,['N_A'],869.4740573899999,869.4740573899999,869.4740573899999,869.4740573899999,871.5099646359995,871.5099646359995,871.5099646359995,871.5099646359995,871.5099646359995,871.5099646359995,871.5099646359995,871.5099646359995,873.5452421829996,873.5452421829996,873.5452421829996,873.5452421829996,,,,,,,,,,,,,,,,,,,,,,,,,,,,,,,,,,,,,,,03,007,2022-09-23_14h40.32.875,test2,2022.2.4,59.996668985023845,
0,0,0,0,128,0,128,0,873.5452421829996,873.5452421829996,873.5452421829996,873.5452421829996,873.5452421829996,873.5452421829996,873.5452421829996,1,-1,rojo,0,['N_B'],876.698268189999,876.698268189999,876.698268189999,876.698268189999,878.7339769440005,878.7339769440005,878.7339769440005,878.7339769440005,878.7339769440005,878.7339769440005,878.7339769440005,878.7339769440005,880.7702231700005,880.7702231700005,880.7702231700005,880.7702231700005,,,,,,,,,,,,,,,,,,,,,,,,,,,,,,,,,,,,,,,03,007,2022-09-23_14h40.32.875,test2,2022.2.4,59.996668985023845,
0,0,0,0,129,0,129,0,880.7702231700005,880.7702231700005,880.7702231700005,880.7702231700005,880.7702231700005,880.7702231700005,880.7702231700005,1,-1,azul,0,['N_A'],882.722252222,882.722252222,882.722252222,882.722252222,884.7581187849992,884.7581187849992,884.7581187849992,884.7581187849992,884.7581187849992,884.7581187849992,884.7581187849992,884.7581187849992,886.7936492699992,886.7936492699992,886.7936492699992,886.7936492699992,,,,,,,,,,,,,,,,,,,,,,,,,,,,,,,,,,,,,,,03,007,2022-09-23_14h40.32.875,test2,2022.2.4,59.996668985023845,
0,0,0,0,130,0,130,0,886.7936492699992,886.7936492699992,886.7936492699992,886.7936492699992,886.7936492699992,886.7936492699992,886.7936492699992,1,-1,rojo,0,['N_B'],888.7953355160007,888.7953355160007,888.7953355160007,888.7953355160007,890.8309263270003,890.8309263270003,890.8309263270003,890.8309263270003,890.8309263270003,890.8309263270003,890.8309263270003,890.8309263270003,892.8659349610007,892.8659349610007,892.8659349610007,892.8659349610007,,,,,,,,,,,,,,,,,,,,,,,,,,,,,,,,,,,,,,,03,007,2022-09-23_14h40.32.875,test2,2022.2.4,59.996668985023845,
0,0,0,0,131,0,131,0,892.8659349610007,892.8659349610007,892.8659349610007,892.8659349610007,892.8659349610007,892.8659349610007,892.8659349610007,1,-1,azul,0,['N_A'],896.6208670510005,896.6208670510005,896.6208670510005,896.6208670510005,898.6564460009995,898.6564460009995,898.6564460009995,898.6564460009995,898.6564460009995,898.6564460009995,898.6564460009995,898.6564460009995,900.6911959949994,900.6911959949994,900.6911959949994,900.6911959949994,,,,,,,,,,,,,,,,,,,,,,,,,,,,,,,,,,,,,,,03,007,2022-09-23_14h40.32.875,test2,2022.2.4,59.996668985023845,
0,0,0,0,132,0,132,0,900.6911959949994,900.6911959949994,900.6911959949994,900.6911959949994,900.6911959949994,900.6911959949994,900.6911959949994,1,-1,rojo,0,['N_B'],906.8154637120006,906.8154637120006,906.8154637120006,906.8154637120006,908.8512439599999,908.8512439599999,908.8512439599999,908.8512439599999,908.8512439599999,908.8512439599999,908.8512439599999,908.8512439599999,910.8859502180003,910.8859502180003,910.8859502180003,910.8859502180003,,,,,,,,,,,,,,,,,,,,,,,,,,,,,,,,,,,,,,,03,007,2022-09-23_14h40.32.875,test2,2022.2.4,59.996668985023845,
0,0,0,0,133,0,133,0,910.8859502180003,910.8859502180003,910.8859502180003,910.8859502180003,910.8859502180003,910.8859502180003,910.8859502180003,-1,-1,rojo,0,['N_A'],913.1215401779991,913.1215401779991,913.1215401779991,913.1215401779991,915.1583458789992,915.1583458789992,915.1583458789992,915.1583458789992,915.1583458789992,915.1583458789992,915.1583458789992,915.1583458789992,917.1936973089996,917.1936973089996,917.1936973089996,917.1936973089996,,,,,,,,,,,,,,,,,,,,,,,,,,,,,,,,,,,,,,,03,007,2022-09-23_14h40.32.875,test2,2022.2.4,59.996668985023845,
0,0,0,0,134,0,134,0,917.1936973089996,917.1936973089996,917.1936973089996,917.1936973089996,917.1936973089996,917.1936973089996,917.1936973089996,1,-1,rojo,0,['N_B'],920.1134953029996,920.1134953029996,920.1134953029996,920.1134953029996,922.1490914299993,922.1490914299993,922.1490914299993,922.1490914299993,922.1490914299993,922.1490914299993,922.1490914299993,922.1490914299993,924.1843996490006,924.1843996490006,924.1843996490006,924.1843996490006,,,,,,,,,,,,,,,,,,,,,,,,,,,,,,,,,,,,,,,03,007,2022-09-23_14h40.32.875,test2,2022.2.4,59.996668985023845,
0,0,0,0,135,0,135,0,924.1843996490006,924.1843996490006,924.1843996490006,924.1843996490006,924.1843996490006,924.1843996490006,924.1843996490006,1,1,azul,0,['N_A'],926.3697321269992,926.3697321269992,926.3697321269992,926.3697321269992,928.4051636210006,928.4051636210006,928.4051636210006,928.4051636210006,928.4051636210006,928.4051636210006,928.4051636210006,928.4051636210006,930.4414105300002,930.4414105300002,930.4414105300002,930.4414105300002,,,,,,,,,,,,,,,,,,,,,,,,,,,,,,,,,,,,,,,03,007,2022-09-23_14h40.32.875,test2,2022.2.4,59.996668985023845,
0,0,0,0,136,0,136,0,930.4414105300002,930.4414105300002,930.4414105300002,930.4414105300002,930.4414105300002,930.4414105300002,930.4414105300002,1,-1,rojo,0,['N_B'],932.4266650879999,932.4266650879999,932.4266650879999,932.4266650879999,934.4621187800003,934.4621187800003,934.4621187800003,934.4621187800003,934.4621187800003,934.4621187800003,934.4621187800003,934.4621187800003,936.4975541240001,936.4975541240001,936.4975541240001,936.4975541240001,,,,,,,,,,,,,,,,,,,,,,,,,,,,,,,,,,,,,,,03,007,2022-09-23_14h40.32.875,test2,2022.2.4,59.996668985023845,
0,0,0,0,137,0,137,0,936.4975541240001,936.4975541240001,936.4975541240001,936.4975541240001,936.4975541240001,936.4975541240001,936.4975541240001,1,-1,azul,0,['N_A'],938.2831296160002,938.2831296160002,938.2831296160002,938.2831296160002,940.318937349999,940.318937349999,940.318937349999,940.318937349999,940.318937349999,940.318937349999,940.318937349999,940.318937349999,942.3543715680007,942.3543715680007,942.3543715680007,942.3543715680007,,,,,,,,,,,,,,,,,,,,,,,,,,,,,,,,,,,,,,,03,007,2022-09-23_14h40.32.875,test2,2022.2.4,59.996668985023845,
0,0,0,0,138,0,138,0,942.3543715680007,942.3543715680007,942.3543715680007,942.3543715680007,942.3543715680007,942.3543715680007,942.3543715680007,1,-1,rojo,1,['N_A'],943.8555281429999,943.8555281429999,943.8555281429999,943.8555281429999,945.8923868309994,945.8923868309994,945.8923868309994,945.8923868309994,945.8923868309994,945.8923868309994,945.8923868309994,945.8923868309994,947.927098791999,947.927098791999,947.927098791999,947.927098791999,,,,,,,,,,,,,,,,,,,,,,,,,,,,,,,,,,,,,,,03,007,2022-09-23_14h40.32.875,test2,2022.2.4,59.996668985023845,
0,0,0,0,139,0,139,0,947.927098791999,947.927098791999,947.927098791999,947.927098791999,947.927098791999,947.927098791999,947.927098791999,1,-1,rojo,1,['N_A'],949.795728694,949.795728694,949.795728694,949.795728694,951.8319497600005,951.8319497600005,951.8319497600005,951.8319497600005,951.8319497600005,951.8319497600005,951.8319497600005,951.8319497600005,953.867643439,953.867643439,953.867643439,953.867643439,,,,,,,,,,,,,,,,,,,,,,,,,,,,,,,,,,,,,,,03,007,2022-09-23_14h40.32.875,test2,2022.2.4,59.996668985023845,
0,0,0,0,140,0,140,0,953.867643439,953.867643439,953.867643439,953.867643439,953.867643439,953.867643439,953.867643439,1,-1,rojo,1,['N_A'],955.5194170659997,955.5194170659997,955.5194170659997,955.5194170659997,957.5542798759998,957.5542798759998,957.5542798759998,957.5542798759998,957.5542798759998,957.5542798759998,957.5542798759998,957.5542798759998,959.5906704480003,959.5906704480003,959.5906704480003,959.5906704480003,,,,,,,,,,,,,,,,,,,,,,,,,,,,,,,,,,,,,,,03,007,2022-09-23_14h40.32.875,test2,2022.2.4,59.996668985023845,
0,0,0,0,141,0,141,0,959.5906704480003,959.5906704480003,959.5906704480003,959.5906704480003,959.5906704480003,959.5906704480003,959.5906704480003,1,-1,rojo,1,['N_A'],961.5420101220006,961.5420101220006,961.5420101220006,961.5420101220006,963.5784292560002,963.5784292560002,963.5784292560002,963.5784292560002,963.5784292560002,963.5784292560002,963.5784292560002,963.5784292560002,965.6135764299997,965.6135764299997,965.6135764299997,965.6135764299997,,,,,,,,,,,,,,,,,,,,,,,,,,,,,,,,,,,,,,,03,007,2022-09-23_14h40.32.875,test2,2022.2.4,59.996668985023845,
0,0,0,0,142,0,142,0,965.6135764299997,965.6135764299997,965.6135764299997,965.6135764299997,965.6135764299997,965.6135764299997,965.6135764299997,1,-1,rojo,0,['N_B'],967.1653983460001,967.1653983460001,967.1653983460001,967.1653983460001,969.2008560899994,969.2008560899994,969.2008560899994,969.2008560899994,969.2008560899994,969.2008560899994,969.2008560899994,969.2008560899994,971.2357908720005,971.2357908720005,971.2357908720005,971.2357908720005,,,,,,,,,,,,,,,,,,,,,,,,,,,,,,,,,,,,,,,03,007,2022-09-23_14h40.32.875,test2,2022.2.4,59.996668985023845,
0,0,0,0,143,0,143,0,971.2357908720005,971.2357908720005,971.2357908720005,971.2357908720005,971.2357908720005,971.2357908720005,971.2357908720005,1,1,azul,0,['N_A'],972.9553009810006,972.9553009810006,972.9553009810006,972.9553009810006,974.9898347460003,974.9898347460003,974.9898347460003,974.9898347460003,974.9898347460003,974.9898347460003,974.9898347460003,974.9898347460003,977.026192932999,977.026192932999,977.026192932999,977.026192932999,,,,,,,,,,,,,,,,,,,,,,,,,,,,,,,,,,,,,,,03,007,2022-09-23_14h40.32.875,test2,2022.2.4,59.996668985023845,
0,0,0,0,144,0,144,0,977.026192932999,977.026192932999,977.026192932999,977.026192932999,977.026192932999,977.026192932999,977.026192932999,1,-1,rojo,1,['N_A'],1004.0727017989993,1004.0727017989993,1004.0727017989993,1004.0727017989993,1006.1082771300007,1006.1082771300007,1006.1082771300007,1006.1082771300007,1006.1082771300007,1006.1082771300007,1006.1082771300007,1006.1082771300007,1008.1436665910005,1008.1436665910005,1008.1436665910005,1008.1436665910005,,,,,,,,,,,,,,,,,,,,,,,,,,,,,,,,,,,,,,,03,007,2022-09-23_14h40.32.875,test2,2022.2.4,59.996668985023845,
0,0,0,0,145,0,145,0,1008.1436665910005,1008.1436665910005,1008.1436665910005,1008.1436665910005,1008.1436665910005,1008.1436665910005,1008.1436665910005,1,-1,rojo,0,['N_B'],1009.7289513590003,1009.7289513590003,1009.7289513590003,1009.7289513590003,1011.7643623610002,1011.7643623610002,1011.7643623610002,1011.7643623610002,1011.7643623610002,1011.7643623610002,1011.7643623610002,1011.7643623610002,1013.7998189419995,1013.7998189419995,1013.7998189419995,1013.7998189419995,,,,,,,,,,,,,,,,,,,,,,,,,,,,,,,,,,,,,,,03,007,2022-09-23_14h40.32.875,test2,2022.2.4,59.996668985023845,
0,0,0,0,146,0,146,0,1013.7998189419995,1013.7998189419995,1013.7998189419995,1013.7998189419995,1013.7998189419995,1013.7998189419995,1013.7998189419995,1,-1,azul,0,['N_A'],1016.0356135170005,1016.0356135170005,1016.0356135170005,1016.0356135170005,1018.0715417890005,1018.0715417890005,1018.0715417890005,1018.0715417890005,1018.0715417890005,1018.0715417890005,1018.0715417890005,1018.0715417890005,1020.1068851340005,1020.1068851340005,1020.1068851340005,1020.1068851340005,,,,,,,,,,,,,,,,,,,,,,,,,,,,,,,,,,,,,,,03,007,2022-09-23_14h40.32.875,test2,2022.2.4,59.996668985023845,
0,0,0,0,147,0,147,0,1020.1068851340005,1020.1068851340005,1020.1068851340005,1020.1068851340005,1020.1068851340005,1020.1068851340005,1020.1068851340005,-1,-1,azul,1,['N_A'],1022.2262393509991,1022.2262393509991,1022.2262393509991,1022.2262393509991,1024.261970177,1024.261970177,1024.261970177,1024.261970177,1024.261970177,1024.261970177,1024.261970177,1024.261970177,1026.2962781879996,1026.2962781879996,1026.2962781879996,1026.2962781879996,,,,,,,,,,,,,,,,,,,,,,,,,,,,,,,,,,,,,,,03,007,2022-09-23_14h40.32.875,test2,2022.2.4,59.996668985023845,
0,0,0,0,148,0,148,0,1026.2962781879996,1026.2962781879996,1026.2962781879996,1026.2962781879996,1026.2962781879996,1026.2962781879996,1026.2962781879996,1,-1,rojo,1,['N_A'],1040.7628191540007,1040.7628191540007,1040.7628191540007,1040.7628191540007,1042.7989921139997,1042.7989921139997,1042.7989921139997,1042.7989921139997,1042.7989921139997,1042.7989921139997,1042.7989921139997,1042.7989921139997,1044.8335250439995,1044.8335250439995,1044.8335250439995,1044.8335250439995,,,,,,,,,,,,,,,,,,,,,,,,,,,,,,,,,,,,,,,03,007,2022-09-23_14h40.32.875,test2,2022.2.4,59.996668985023845,
0,0,0,0,149,0,149,0,1044.8335250439995,1044.8335250439995,1044.8335250439995,1044.8335250439995,1044.8335250439995,1044.8335250439995,1044.8335250439995,-1,-1,azul,1,['N_A'],1086.6967486600006,1086.6967486600006,1086.6967486600006,1086.6967486600006,1088.732729887999,1088.732729887999,1088.732729887999,1088.732729887999,1088.732729887999,1088.732729887999,1088.732729887999,1088.732729887999,1090.768374071,1090.768374071,1090.768374071,1090.768374071,,,,,,,,,,,,,,,,,,,,,,,,,,,,,,,,,,,,,,,03,007,2022-09-23_14h40.32.875,test2,2022.2.4,59.996668985023845,
0,0,0,0,150,0,150,0,1090.768374071,1090.768374071,1090.768374071,1090.768374071,1090.768374071,1090.768374071,1090.768374071,1,-1,rojo,0,['N_B'],1092.453507487,1092.453507487,1092.453507487,1092.453507487,1094.489033251999,1094.489033251999,1094.489033251999,1094.489033251999,1094.489033251999,1094.489033251999,1094.489033251999,1094.489033251999,1096.5245442209998,1096.5245442209998,1096.5245442209998,1096.5245442209998,,,,,,,,,,,,,,,,,,,,,,,,,,,,,,,,,,,,,,,03,007,2022-09-23_14h40.32.875,test2,2022.2.4,59.996668985023845,
0,0,0,0,151,0,151,0,1096.5245442209998,1096.5245442209998,1096.5245442209998,1096.5245442209998,1096.5245442209998,1096.5245442209998,1096.5245442209998,1,-1,azul,1,['N_B'],1098.276773436999,1098.276773436999,1098.276773436999,1098.276773436999,1100.3127777610007,1100.3127777610007,1100.3127777610007,1100.3127777610007,1100.3127777610007,1100.3127777610007,1100.3127777610007,1100.3127777610007,1102.3475838699997,1102.3475838699997,1102.3475838699997,1102.3475838699997,,,,,,,,,,,,,,,,,,,,,,,,,,,,,,,,,,,,,,,03,007,2022-09-23_14h40.32.875,test2,2022.2.4,59.996668985023845,
0,0,0,0,152,0,152,0,1102.3475838699997,1102.3475838699997,1102.3475838699997,1102.3475838699997,1102.3475838699997,1102.3475838699997,1102.3475838699997,1,-1,azul,1,['N_B'],1104.0994451509996,1104.0994451509996,1104.0994451509996,1104.0994451509996,1106.1355323200005,1106.1355323200005,1106.1355323200005,1106.1355323200005,1106.1355323200005,1106.1355323200005,1106.1355323200005,1106.1355323200005,1108.1708412789994,1108.1708412789994,1108.1708412789994,1108.1708412789994,,,,,,,,,,,,,,,,,,,,,,,,,,,,,,,,,,,,,,,03,007,2022-09-23_14h40.32.875,test2,2022.2.4,59.996668985023845,
0,0,0,0,153,0,153,0,1108.1708412789994,1108.1708412789994,1108.1708412789994,1108.1708412789994,1108.1708412789994,1108.1708412789994,1108.1708412789994,1,-1,azul,1,['N_B'],1109.822643177,1109.822643177,1109.822643177,1109.822643177,1111.8582230350003,1111.8582230350003,1111.8582230350003,1111.8582230350003,1111.8582230350003,1111.8582230350003,1111.8582230350003,1111.8582230350003,1113.8939843040007,1113.8939843040007,1113.8939843040007,1113.8939843040007,,,,,,,,,,,,,,,,,,,,,,,,,,,,,,,,,,,,,,,03,007,2022-09-23_14h40.32.875,test2,2022.2.4,59.996668985023845,
0,0,0,0,154,0,154,0,1113.8939843040007,1113.8939843040007,1113.8939843040007,1113.8939843040007,1113.8939843040007,1113.8939843040007,1113.8939843040007,1,1,azul,0,['N_A'],1115.5957949969998,1115.5957949969998,1115.5957949969998,1115.5957949969998,1117.63154631,1117.63154631,1117.63154631,1117.63154631,1117.63154631,1117.63154631,1117.63154631,1117.63154631,1119.6673212959995,1119.6673212959995,1119.6673212959995,1119.6673212959995,,,,,,,,,,,,,,,,,,,,,,,,,,,,,,,,,,,,,,,03,007,2022-09-23_14h40.32.875,test2,2022.2.4,59.996668985023845,
0,0,0,0,155,0,155,0,1119.6673212959995,1119.6673212959995,1119.6673212959995,1119.6673212959995,1119.6673212959995,1119.6673212959995,1119.6673212959995,1,-1,rojo,0,['N_B'],1122.0192163520005,1122.0192163520005,1122.0192163520005,1122.0192163520005,1124.0555026040001,1124.0555026040001,1124.0555026040001,1124.0555026040001,1124.0555026040001,1124.0555026040001,1124.0555026040001,1124.0555026040001,1126.0907895399996,1126.0907895399996,1126.0907895399996,1126.0907895399996,,,,,,,,,,,,,,,,,,,,,,,,,,,,,,,,,,,,,,,03,007,2022-09-23_14h40.32.875,test2,2022.2.4,59.996668985023845,
0,0,0,0,156,0,156,0,1126.0907895399996,1126.0907895399996,1126.0907895399996,1126.0907895399996,1126.0907895399996,1126.0907895399996,1126.0907895399996,1,1,azul,0,['N_A'],1130.578523065,1130.578523065,1130.578523065,1130.578523065,1132.5967881470006,1132.5967881470006,1132.5967881470006,1132.5967881470006,1132.5967881470006,1132.5967881470006,1132.5967881470006,1132.5967881470006,1134.6331483859994,1134.6331483859994,1134.6331483859994,1134.6331483859994,,,,,,,,,,,,,,,,,,,,,,,,,,,,,,,,,,,,,,,03,007,2022-09-23_14h40.32.875,test2,2022.2.4,59.996668985023845,
0,0,0,0,157,0,157,0,1134.6331483859994,1134.6331483859994,1134.6331483859994,1134.6331483859994,1134.6331483859994,1134.6331483859994,1134.6331483859994,-1,1,azul,0,['N_B'],1136.7687389080002,1136.7687389080002,1136.7687389080002,1136.7687389080002,1138.7873157550002,1138.7873157550002,1138.7873157550002,1138.7873157550002,1138.7873157550002,1138.7873157550002,1138.7873157550002,1138.7873157550002,1140.8237777270006,1140.8237777270006,1140.8237777270006,1140.8237777270006,,,,,,,,,,,,,,,,,,,,,,,,,,,,,,,,,,,,,,,03,007,2022-09-23_14h40.32.875,test2,2022.2.4,59.996668985023845,
0,0,0,0,158,0,158,0,1140.8237777270006,1140.8237777270006,1140.8237777270006,1140.8237777270006,1140.8237777270006,1140.8237777270006,1140.8237777270006,1,1,azul,0,['N_A'],1142.875930143,1142.875930143,1142.875930143,1142.875930143,1144.911126302999,1144.911126302999,1144.911126302999,1144.911126302999,1144.911126302999,1144.911126302999,1144.911126302999,1144.911126302999,1146.9468422909995,1146.9468422909995,1146.9468422909995,1146.9468422909995,,,,,,,,,,,,,,,,,,,,,,,,,,,,,,,,,,,,,,,03,007,2022-09-23_14h40.32.875,test2,2022.2.4,59.996668985023845,
0,0,0,0,159,0,159,0,1146.9468422909995,1146.9468422909995,1146.9468422909995,1146.9468422909995,1146.9468422909995,1146.9468422909995,1146.9468422909995,-1,-1,azul,0,['N_B'],1149.5663572720005,1149.5663572720005,1149.5663572720005,1149.5663572720005,1151.6020587219991,1151.6020587219991,1151.6020587219991,1151.6020587219991,1151.6020587219991,1151.6020587219991,1151.6020587219991,1151.6020587219991,1153.6374982809994,1153.6374982809994,1153.6374982809994,1153.6374982809994,,,,,,,,,,,,,,,,,,,,,,,,,,,,,,,,,,,,,,,03,007,2022-09-23_14h40.32.875,test2,2022.2.4,59.996668985023845,
0,0,0,0,160,0,160,0,1153.6374982809994,1153.6374982809994,1153.6374982809994,1153.6374982809994,1153.6374982809994,1153.6374982809994,1153.6374982809994,1,-1,azul,1,['N_B'],1155.372818370999,1155.372818370999,1155.372818370999,1155.372818370999,1157.407937766,1157.407937766,1157.407937766,1157.407937766,1157.407937766,1157.407937766,1157.407937766,1157.407937766,1159.4437414059994,1159.4437414059994,1159.4437414059994,1159.4437414059994,,,,,,,,,,,,,,,,,,,,,,,,,,,,,,,,,,,,,,,03,007,2022-09-23_14h40.32.875,test2,2022.2.4,59.996668985023845,
0,0,0,0,161,0,161,0,1159.4437414059994,1159.4437414059994,1159.4437414059994,1159.4437414059994,1159.4437414059994,1159.4437414059994,1159.4437414059994,1,1,azul,0,['N_A'],1161.0958728719997,1161.0958728719997,1161.0958728719997,1161.0958728719997,1163.131547551,1163.131547551,1163.131547551,1163.131547551,1163.131547551,1163.131547551,1163.131547551,1163.131547551,1165.1666014189996,1165.1666014189996,1165.1666014189996,1165.1666014189996,,,,,,,,,,,,,,,,,,,,,,,,,,,,,,,,,,,,,,,03,007,2022-09-23_14h40.32.875,test2,2022.2.4,59.996668985023845,
0,0,0,0,162,0,162,0,1165.1666014189996,1165.1666014189996,1165.1666014189996,1165.1666014189996,1165.1666014189996,1165.1666014189996,1165.1666014189996,-1,-1,azul,0,['N_B'],1166.9856524179995,1166.9856524179995,1166.9856524179995,1166.9856524179995,1169.0220185540002,1169.0220185540002,1169.0220185540002,1169.0220185540002,1169.0220185540002,1169.0220185540002,1169.0220185540002,1169.0220185540002,1171.056941204999,1171.056941204999,1171.056941204999,1171.056941204999,,,,,,,,,,,,,,,,,,,,,,,,,,,,,,,,,,,,,,,03,007,2022-09-23_14h40.32.875,test2,2022.2.4,59.996668985023845,
0,0,0,0,163,0,163,0,1171.056941204999,1171.056941204999,1171.056941204999,1171.056941204999,1171.056941204999,1171.056941204999,1171.056941204999,-1,-1,rojo,0,['N_A'],1181.6851468059995,1181.6851468059995,1181.6851468059995,1181.6851468059995,1183.7210068069999,1183.7210068069999,1183.7210068069999,1183.7210068069999,1183.7210068069999,1183.7210068069999,1183.7210068069999,1183.7210068069999,1185.7567412259996,1185.7567412259996,1185.7567412259996,1185.7567412259996,,,,,,,,,,,,,,,,,,,,,,,,,,,,,,,,,,,,,,,03,007,2022-09-23_14h40.32.875,test2,2022.2.4,59.996668985023845,
0,0,0,0,164,0,164,0,1185.7567412259996,1185.7567412259996,1185.7567412259996,1185.7567412259996,1185.7567412259996,1185.7567412259996,1185.7567412259996,1,-1,rojo,0,['N_B'],1187.290760508,1187.290760508,1187.290760508,1187.290760508,1189.3272984670002,1189.3272984670002,1189.3272984670002,1189.3272984670002,1189.3272984670002,1189.3272984670002,1189.3272984670002,1189.3272984670002,1191.3624191319996,1191.3624191319996,1191.3624191319996,1191.3624191319996,,,,,,,,,,,,,,,,,,,,,,,,,,,,,,,,,,,,,,,03,007,2022-09-23_14h40.32.875,test2,2022.2.4,59.996668985023845,
0,0,0,0,165,0,165,0,1191.3624191319996,1191.3624191319996,1191.3624191319996,1191.3624191319996,1191.3624191319996,1191.3624191319996,1191.3624191319996,1,-1,azul,0,['N_A'],1193.6653766689997,1193.6653766689997,1193.6653766689997,1193.6653766689997,1195.7011255180005,1195.7011255180005,1195.7011255180005,1195.7011255180005,1195.7011255180005,1195.7011255180005,1195.7011255180005,1195.7011255180005,1197.7359961109996,1197.7359961109996,1197.7359961109996,1197.7359961109996,,,,,,,,,,,,,,,,,,,,,,,,,,,,,,,,,,,,,,,03,007,2022-09-23_14h40.32.875,test2,2022.2.4,59.996668985023845,
0,0,0,0,166,0,166,0,1197.7359961109996,1197.7359961109996,1197.7359961109996,1197.7359961109996,1197.7359961109996,1197.7359961109996,1197.7359961109996,1,-1,rojo,0,['N_B'],1200.388857213,1200.388857213,1200.388857213,1200.388857213,1202.4252434709997,1202.4252434709997,1202.4252434709997,1202.4252434709997,1202.4252434709997,1202.4252434709997,1202.4252434709997,1202.4252434709997,1204.4606504879994,1204.4606504879994,1204.4606504879994,1204.4606504879994,,,,,,,,,,,,,,,,,,,,,,,,,,,,,,,,,,,,,,,03,007,2022-09-23_14h40.32.875,test2,2022.2.4,59.996668985023845,
0,0,0,0,167,0,167,0,1204.4606504879994,1204.4606504879994,1204.4606504879994,1204.4606504879994,1204.4606504879994,1204.4606504879994,1204.4606504879994,1,-1,azul,0,['N_A'],1206.3120421589992,1206.3120421589992,1206.3120421589992,1206.3120421589992,1208.348135229,1208.348135229,1208.348135229,1208.348135229,1208.348135229,1208.348135229,1208.348135229,1208.348135229,1210.3835826979994,1210.3835826979994,1210.3835826979994,1210.3835826979994,,,,,,,,,,,,,,,,,,,,,,,,,,,,,,,,,,,,,,,03,007,2022-09-23_14h40.32.875,test2,2022.2.4,59.996668985023845,
0,0,0,0,168,0,168,0,1210.3835826979994,1210.3835826979994,1210.3835826979994,1210.3835826979994,1210.3835826979994,1210.3835826979994,1210.3835826979994,-1,1,azul,0,['N_B'],1212.0688720729995,1212.0688720729995,1212.0688720729995,1212.0688720729995,1214.1048825819998,1214.1048825819998,1214.1048825819998,1214.1048825819998,1214.1048825819998,1214.1048825819998,1214.1048825819998,1214.1048825819998,1216.139848756,1216.139848756,1216.139848756,1216.139848756,,,,,,,,,,,,,,,,,,,,,,,,,,,,,,,,,,,,,,,03,007,2022-09-23_14h40.32.875,test2,2022.2.4,59.996668985023845,
0,0,0,0,169,0,169,0,1216.139848756,1216.139848756,1216.139848756,1216.139848756,1216.139848756,1216.139848756,1216.139848756,1,-1,azul,0,['N_A'],1220.9953939629995,1220.9953939629995,1220.9953939629995,1220.9953939629995,1223.0312829510003,1223.0312829510003,1223.0312829510003,1223.0312829510003,1223.0312829510003,1223.0312829510003,1223.0312829510003,1223.0312829510003,1225.0666656619997,1225.0666656619997,1225.0666656619997,1225.0666656619997,,,,,,,,,,,,,,,,,,,,,,,,,,,,,,,,,,,,,,,03,007,2022-09-23_14h40.32.875,test2,2022.2.4,59.996668985023845,
0,0,0,0,170,0,170,0,1225.0666656619997,1225.0666656619997,1225.0666656619997,1225.0666656619997,1225.0666656619997,1225.0666656619997,1225.0666656619997,1,-1,rojo,0,['N_B'],1227.5519921159994,1227.5519921159994,1227.5519921159994,1227.5519921159994,1229.5879657820005,1229.5879657820005,1229.5879657820005,1229.5879657820005,1229.5879657820005,1229.5879657820005,1229.5879657820005,1229.5879657820005,1231.6237976060002,1231.6237976060002,1231.6237976060002,1231.6237976060002,,,,,,,,,,,,,,,,,,,,,,,,,,,,,,,,,,,,,,,03,007,2022-09-23_14h40.32.875,test2,2022.2.4,59.996668985023845,
0,0,0,0,171,0,171,0,1231.6237976060002,1231.6237976060002,1231.6237976060002,1231.6237976060002,1231.6237976060002,1231.6237976060002,1231.6237976060002,1,-1,azul,0,['N_A'],1233.4752303719997,1233.4752303719997,1233.4752303719997,1233.4752303719997,1235.5119413119992,1235.5119413119992,1235.5119413119992,1235.5119413119992,1235.5119413119992,1235.5119413119992,1235.5119413119992,1235.5119413119992,1237.5471853559993,1237.5471853559993,1237.5471853559993,1237.5471853559993,,,,,,,,,,,,,,,,,,,,,,,,,,,,,,,,,,,,,,,03,007,2022-09-23_14h40.32.875,test2,2022.2.4,59.996668985023845,
0,0,0,0,172,0,172,0,1237.5471853559993,1237.5471853559993,1237.5471853559993,1237.5471853559993,1237.5471853559993,1237.5471853559993,1237.5471853559993,1,-1,rojo,1,['N_A'],1239.816268986,1239.816268986,1239.816268986,1239.816268986,1241.8516838720006,1241.8516838720006,1241.8516838720006,1241.8516838720006,1241.8516838720006,1241.8516838720006,1241.8516838720006,1241.8516838720006,1243.8877097370005,1243.8877097370005,1243.8877097370005,1243.8877097370005,,,,,,,,,,,,,,,,,,,,,,,,,,,,,,,,,,,,,,,03,007,2022-09-23_14h40.32.875,test2,2022.2.4,59.996668985023845,
0,0,0,0,173,0,173,0,1243.8877097370005,1243.8877097370005,1243.8877097370005,1243.8877097370005,1243.8877097370005,1243.8877097370005,1243.8877097370005,1,-1,rojo,0,['N_B'],1245.3891719059993,1245.3891719059993,1245.3891719059993,1245.3891719059993,1247.424438008,1247.424438008,1247.424438008,1247.424438008,1247.424438008,1247.424438008,1247.424438008,1247.424438008,1249.460126045,1249.460126045,1249.460126045,1249.460126045,,,,,,,,,,,,,,,,,,,,,,,,,,,,,,,,,,,,,,,03,007,2022-09-23_14h40.32.875,test2,2022.2.4,59.996668985023845,
0,0,0,0,174,0,174,0,1249.460126045,1249.460126045,1249.460126045,1249.460126045,1249.460126045,1249.460126045,1249.460126045,1,1,azul,1,['N_B'],1252.6801139119998,1252.6801139119998,1252.6801139119998,1252.6801139119998,1254.7155851030002,1254.7155851030002,1254.7155851030002,1254.7155851030002,1254.7155851030002,1254.7155851030002,1254.7155851030002,1254.7155851030002,1256.7516724369998,1256.7516724369998,1256.7516724369998,1256.7516724369998,,,,,,,,,,,,,,,,,,,,,,,,,,,,,,,,,,,,,,,03,007,2022-09-23_14h40.32.875,test2,2022.2.4,59.996668985023845,
0,0,0,0,175,0,175,0,1256.7516724369998,1256.7516724369998,1256.7516724369998,1256.7516724369998,1256.7516724369998,1256.7516724369998,1256.7516724369998,1,-1,azul,0,['N_A'],1258.4031919059998,1258.4031919059998,1258.4031919059998,1258.4031919059998,1260.438118259999,1260.438118259999,1260.438118259999,1260.438118259999,1260.438118259999,1260.438118259999,1260.438118259999,1260.438118259999,1262.4747176050005,1262.4747176050005,1262.4747176050005,1262.4747176050005,,,,,,,,,,,,,,,,,,,,,,,,,,,,,,,,,,,,,,,03,007,2022-09-23_14h40.32.875,test2,2022.2.4,59.996668985023845,
