trials_2.thisRepN,trials_2.thisTrialN,trials_2.thisN,trials_2.thisIndex,trials.thisRepN,trials.thisTrialN,trials.thisN,trials.thisIndex,Instrucción2.started,N_A_4.started,N_B_4.started,Exitos_3.started,Dias_3.started,Stimuli_1.started,Stimuli_2.started,Transitions,Rewards,Mode,Stay,Neighbour,Stimuli_3.started,Modo.started,Dias2.started,Exitos2.started,Stimuli_3.stopped,Modo.stopped,Dias2.stopped,Exitos2.stopped,Reward.started,Stimuli_reward.started,Exitos3.started,Dias3.started,Reward.stopped,Stimuli_reward.stopped,Exitos3.stopped,Dias3.stopped,Cue_text.started,Stimuli_4.started,Exitos4.started,Dias4.started,Stimuli_3_3.started,Stimuli_2_3.started,Instrucción.started,N_A.started,N_B.started,N_C.started,Exitos_2.started,Dias_2.started,Stimuli_1_3.started,Stimuli_3_2.started,Stimuli_2_2.started,Pregunta.started,N_A_2.started,N_B_2.started,N_C_2.started,Exitos5.started,Dias5.started,Stimuli_1_2.started,Resp_final_1,Modo2.started,Modo1.started,Pregunta_4.started,Modo3.started,Exitos7.started,Dias6.started,Resp_final_2,Modo1_2.started,Pregunta_3.started,Modo2_2.started,Exitos8.started,Dias7.started,Resp_final_3,Mensaje_Final2.started,Exitos6.started,participant,session,date,expName,psychopyVersion,frameRate,
0,0,0,0,0,0,0,0,1527.47488017,1527.47488017,1527.47488017,1527.47488017,1527.47488017,1527.47488017,1527.47488017,0,0,0,0,['N_A'],1538.385778468,1538.385778468,1538.385778468,1538.385778468,1540.454796744,1540.454796744,1540.454796744,1540.454796744,1540.454796744,1540.454796744,1540.454796744,1540.454796744,1542.491015171,1542.491015171,1542.491015171,1542.491015171,,,,,,,,,,,,,,,,,,,,,,,,,,,,,,,,,,,,,,,03,005,2022-09-23_10h28.53.477,test2,2022.2.4,59.89820360194903,
0,0,0,0,1,0,1,0,1542.491015171,1542.491015171,1542.491015171,1542.491015171,1542.491015171,1542.491015171,1542.491015171,-1,-1,azul,1,['N_A'],1546.611882495,1546.611882495,1546.611882495,1546.611882495,1548.647787504,1548.647787504,1548.647787504,1548.647787504,1548.647787504,1548.647787504,1548.647787504,1548.647787504,1550.683083255,1550.683083255,1550.683083255,1550.683083255,,,,,,,,,,,,,,,,,,,,,,,,,,,,,,,,,,,,,,,03,005,2022-09-23_10h28.53.477,test2,2022.2.4,59.89820360194903,
0,0,0,0,2,0,2,0,1550.683083255,1550.683083255,1550.683083255,1550.683083255,1550.683083255,1550.683083255,1550.683083255,1,-1,rojo,0,['N_B'],1552.601688349,1552.601688349,1552.601688349,1552.601688349,1554.637944474,1554.637944474,1554.637944474,1554.637944474,1554.637944474,1554.637944474,1554.637944474,1554.637944474,1556.6724833399999,1556.6724833399999,1556.6724833399999,1556.6724833399999,,,,,,,,,,,,,,,,,,,,,,,,,,,,,,,,,,,,,,,03,005,2022-09-23_10h28.53.477,test2,2022.2.4,59.89820360194903,
0,0,0,0,3,0,3,0,1556.6724833399999,1556.6724833399999,1556.6724833399999,1556.6724833399999,1556.6724833399999,1556.6724833399999,1556.6724833399999,1,-1,azul,1,['N_B'],1558.958539904,1558.958539904,1558.958539904,1558.958539904,1560.994551362,1560.994551362,1560.994551362,1560.994551362,1560.994551362,1560.994551362,1560.994551362,1560.994551362,1563.030023501,1563.030023501,1563.030023501,1563.030023501,,,,,,,,,,,,,,,,,,,,,,,,,,,,,,,,,,,,,,,03,005,2022-09-23_10h28.53.477,test2,2022.2.4,59.89820360194903,
0,0,0,0,4,0,4,0,1563.030023501,1563.030023501,1563.030023501,1563.030023501,1563.030023501,1563.030023501,1563.030023501,-1,-1,rojo,1,['N_B'],1565.015750258,1565.015750258,1565.015750258,1565.015750258,1567.067826827,1567.067826827,1567.067826827,1567.067826827,1567.067826827,1567.067826827,1567.067826827,1567.067826827,1569.103798543,1569.103798543,1569.103798543,1569.103798543,,,,,,,,,,,,,,,,,,,,,,,,,,,,,,,,,,,,,,,03,005,2022-09-23_10h28.53.477,test2,2022.2.4,59.89820360194903,
0,0,0,0,5,0,5,0,1569.103798543,1569.103798543,1569.103798543,1569.103798543,1569.103798543,1569.103798543,1569.103798543,1,1,azul,0,['N_A'],1571.4225767740002,1571.4225767740002,1571.4225767740002,1571.4225767740002,1573.4580593379999,1573.4580593379999,1573.4580593379999,1573.4580593379999,1573.4580593379999,1573.4580593379999,1573.4580593379999,1573.4580593379999,1575.493323756,1575.493323756,1575.493323756,1575.493323756,,,,,,,,,,,,,,,,,,,,,,,,,,,,,,,,,,,,,,,03,005,2022-09-23_10h28.53.477,test2,2022.2.4,59.89820360194903,
0,0,0,0,6,0,6,0,1575.493323756,1575.493323756,1575.493323756,1575.493323756,1575.493323756,1575.493323756,1575.493323756,1,-1,rojo,1,['N_A'],1577.84628774,1577.84628774,1577.84628774,1577.84628774,1579.8821760520002,1579.8821760520002,1579.8821760520002,1579.8821760520002,1579.8821760520002,1579.8821760520002,1579.8821760520002,1579.8821760520002,1581.9168759349998,1581.9168759349998,1581.9168759349998,1581.9168759349998,,,,,,,,,,,,,,,,,,,,,,,,,,,,,,,,,,,,,,,03,005,2022-09-23_10h28.53.477,test2,2022.2.4,59.89820360194903,
0,0,0,0,7,0,7,0,1581.9168759349998,1581.9168759349998,1581.9168759349998,1581.9168759349998,1581.9168759349998,1581.9168759349998,1581.9168759349998,1,-1,rojo,1,['N_A'],1589.342417905,1589.342417905,1589.342417905,1589.342417905,1591.3777189730001,1591.3777189730001,1591.3777189730001,1591.3777189730001,1591.3777189730001,1591.3777189730001,1591.3777189730001,1591.3777189730001,1593.413122411,1593.413122411,1593.413122411,1593.413122411,,,,,,,,,,,,,,,,,,,,,,,,,,,,,,,,,,,,,,,03,005,2022-09-23_10h28.53.477,test2,2022.2.4,59.89820360194903,
0,0,0,0,8,0,8,0,1593.413122411,1593.413122411,1593.413122411,1593.413122411,1593.413122411,1593.413122411,1593.413122411,1,-1,rojo,1,['N_A'],1604.676210552,1604.676210552,1604.676210552,1604.676210552,1606.7118087679999,1606.7118087679999,1606.7118087679999,1606.7118087679999,1606.7118087679999,1606.7118087679999,1606.7118087679999,1606.7118087679999,1608.746946601,1608.746946601,1608.746946601,1608.746946601,,,,,,,,,,,,,,,,,,,,,,,,,,,,,,,,,,,,,,,03,005,2022-09-23_10h28.53.477,test2,2022.2.4,59.89820360194903,
0,0,0,0,9,0,9,0,1608.746946601,1608.746946601,1608.746946601,1608.746946601,1608.746946601,1608.746946601,1608.746946601,1,-1,rojo,0,['N_B'],1611.6671589290002,1611.6671589290002,1611.6671589290002,1611.6671589290002,1613.703073288,1613.703073288,1613.703073288,1613.703073288,1613.703073288,1613.703073288,1613.703073288,1613.703073288,1615.737797425,1615.737797425,1615.737797425,1615.737797425,,,,,,,,,,,,,,,,,,,,,,,,,,,,,,,,,,,,,,,03,005,2022-09-23_10h28.53.477,test2,2022.2.4,59.89820360194903,
0,0,0,0,10,0,10,0,1615.737797425,1615.737797425,1615.737797425,1615.737797425,1615.737797425,1615.737797425,1615.737797425,1,-1,azul,1,['N_B'],1625.982399957,1625.982399957,1625.982399957,1625.982399957,1628.018871951,1628.018871951,1628.018871951,1628.018871951,1628.018871951,1628.018871951,1628.018871951,1628.018871951,1630.054493075,1630.054493075,1630.054493075,1630.054493075,,,,,,,,,,,,,,,,,,,,,,,,,,,,,,,,,,,,,,,03,005,2022-09-23_10h28.53.477,test2,2022.2.4,59.89820360194903,
0,0,0,0,11,0,11,0,1630.054493075,1630.054493075,1630.054493075,1630.054493075,1630.054493075,1630.054493075,1630.054493075,1,-1,azul,1,['N_B'],1651.6945478979999,1651.6945478979999,1651.6945478979999,1651.6945478979999,1653.7304386039998,1653.7304386039998,1653.7304386039998,1653.7304386039998,1653.7304386039998,1653.7304386039998,1653.7304386039998,1653.7304386039998,1655.765760984,1655.765760984,1655.765760984,1655.765760984,,,,,,,,,,,,,,,,,,,,,,,,,,,,,,,,,,,,,,,03,005,2022-09-23_10h28.53.477,test2,2022.2.4,59.89820360194903,
0,0,0,0,12,0,12,0,1655.765760984,1655.765760984,1655.765760984,1655.765760984,1655.765760984,1655.765760984,1655.765760984,1,-1,azul,0,['N_A'],1659.3534638630001,1659.3534638630001,1659.3534638630001,1659.3534638630001,1661.388944218,1661.388944218,1661.388944218,1661.388944218,1661.388944218,1661.388944218,1661.388944218,1661.388944218,1663.4240097260001,1663.4240097260001,1663.4240097260001,1663.4240097260001,,,,,,,,,,,,,,,,,,,,,,,,,,,,,,,,,,,,,,,03,005,2022-09-23_10h28.53.477,test2,2022.2.4,59.89820360194903,
0,0,0,0,13,0,13,0,1663.4240097260001,1663.4240097260001,1663.4240097260001,1663.4240097260001,1663.4240097260001,1663.4240097260001,1663.4240097260001,-1,-1,azul,1,['N_A'],1669.113832238,1669.113832238,1669.113832238,1669.113832238,1671.1499185280002,1671.1499185280002,1671.1499185280002,1671.1499185280002,1671.1499185280002,1671.1499185280002,1671.1499185280002,1671.1499185280002,1673.1853354409998,1673.1853354409998,1673.1853354409998,1673.1853354409998,,,,,,,,,,,,,,,,,,,,,,,,,,,,,,,,,,,,,,,03,005,2022-09-23_10h28.53.477,test2,2022.2.4,59.89820360194903,
0,0,0,0,14,0,14,0,1673.1853354409998,1673.1853354409998,1673.1853354409998,1673.1853354409998,1673.1853354409998,1673.1853354409998,1673.1853354409998,1,1,rojo,1,['N_A'],1678.074065352,1678.074065352,1678.074065352,1678.074065352,1680.0931510019998,1680.0931510019998,1680.0931510019998,1680.0931510019998,1680.0931510019998,1680.0931510019998,1680.0931510019998,1680.0931510019998,1682.127831769,1682.127831769,1682.127831769,1682.127831769,,,,,,,,,,,,,,,,,,,,,,,,,,,,,,,,,,,,,,,03,005,2022-09-23_10h28.53.477,test2,2022.2.4,59.89820360194903,
0,0,0,0,15,0,15,0,1682.127831769,1682.127831769,1682.127831769,1682.127831769,1682.127831769,1682.127831769,1682.127831769,1,1,rojo,0,['N_B'],1684.6475222689999,1684.6475222689999,1684.6475222689999,1684.6475222689999,1686.6670242019998,1686.6670242019998,1686.6670242019998,1686.6670242019998,1686.6670242019998,1686.6670242019998,1686.6670242019998,1686.6670242019998,1688.702650545,1688.702650545,1688.702650545,1688.702650545,,,,,,,,,,,,,,,,,,,,,,,,,,,,,,,,,,,,,,,03,005,2022-09-23_10h28.53.477,test2,2022.2.4,59.89820360194903,
0,0,0,0,16,0,16,0,1688.702650545,1688.702650545,1688.702650545,1688.702650545,1688.702650545,1688.702650545,1688.702650545,1,1,azul,0,['N_A'],1693.823794309,1693.823794309,1693.823794309,1693.823794309,1695.8419644970002,1695.8419644970002,1695.8419644970002,1695.8419644970002,1695.8419644970002,1695.8419644970002,1695.8419644970002,1695.8419644970002,1697.8791345809998,1697.8791345809998,1697.8791345809998,1697.8791345809998,,,,,,,,,,,,,,,,,,,,,,,,,,,,,,,,,,,,,,,03,005,2022-09-23_10h28.53.477,test2,2022.2.4,59.89820360194903,
0,0,0,0,17,0,17,0,1697.8791345809998,1697.8791345809998,1697.8791345809998,1697.8791345809998,1697.8791345809998,1697.8791345809998,1697.8791345809998,1,1,rojo,1,['N_A'],1700.482113153,1700.482113153,1700.482113153,1700.482113153,1702.499274008,1702.499274008,1702.499274008,1702.499274008,1702.499274008,1702.499274008,1702.499274008,1702.499274008,1704.536271222,1704.536271222,1704.536271222,1704.536271222,,,,,,,,,,,,,,,,,,,,,,,,,,,,,,,,,,,,,,,03,005,2022-09-23_10h28.53.477,test2,2022.2.4,59.89820360194903,
0,0,0,0,18,0,18,0,1704.536271222,1704.536271222,1704.536271222,1704.536271222,1704.536271222,1704.536271222,1704.536271222,1,1,rojo,1,['N_A'],1707.455698075,1707.455698075,1707.455698075,1707.455698075,1709.4917600800002,1709.4917600800002,1709.4917600800002,1709.4917600800002,1709.4917600800002,1709.4917600800002,1709.4917600800002,1709.4917600800002,1711.527687957,1711.527687957,1711.527687957,1711.527687957,,,,,,,,,,,,,,,,,,,,,,,,,,,,,,,,,,,,,,,03,005,2022-09-23_10h28.53.477,test2,2022.2.4,59.89820360194903,
0,0,0,0,19,0,19,0,1711.527687957,1711.527687957,1711.527687957,1711.527687957,1711.527687957,1711.527687957,1711.527687957,1,-1,rojo,0,['N_B'],1716.498745106,1716.498745106,1716.498745106,1716.498745106,1718.535090132,1718.535090132,1718.535090132,1718.535090132,1718.535090132,1718.535090132,1718.535090132,1718.535090132,1720.570785011,1720.570785011,1720.570785011,1720.570785011,,,,,,,,,,,,,,,,,,,,,,,,,,,,,,,,,,,,,,,03,005,2022-09-23_10h28.53.477,test2,2022.2.4,59.89820360194903,
0,0,0,0,20,0,20,0,1720.570785011,1720.570785011,1720.570785011,1720.570785011,1720.570785011,1720.570785011,1720.570785011,1,-1,azul,1,['N_B'],1730.7815309169998,1730.7815309169998,1730.7815309169998,1730.7815309169998,1732.817876849,1732.817876849,1732.817876849,1732.817876849,1732.817876849,1732.817876849,1732.817876849,1732.817876849,1734.853493072,1734.853493072,1734.853493072,1734.853493072,,,,,,,,,,,,,,,,,,,,,,,,,,,,,,,,,,,,,,,03,005,2022-09-23_10h28.53.477,test2,2022.2.4,59.89820360194903,
0,0,0,0,21,0,21,0,1734.853493072,1734.853493072,1734.853493072,1734.853493072,1734.853493072,1734.853493072,1734.853493072,1,-1,azul,1,['N_B'],1741.3097043280002,1741.3097043280002,1741.3097043280002,1741.3097043280002,1743.3455023879999,1743.3455023879999,1743.3455023879999,1743.3455023879999,1743.3455023879999,1743.3455023879999,1743.3455023879999,1743.3455023879999,1745.380779409,1745.380779409,1745.380779409,1745.380779409,,,,,,,,,,,,,,,,,,,,,,,,,,,,,,,,,,,,,,,03,005,2022-09-23_10h28.53.477,test2,2022.2.4,59.89820360194903,
0,0,0,0,22,0,22,0,1745.380779409,1745.380779409,1745.380779409,1745.380779409,1745.380779409,1745.380779409,1745.380779409,1,1,azul,1,['N_B'],1748.701362121,1748.701362121,1748.701362121,1748.701362121,1750.7208507809999,1750.7208507809999,1750.7208507809999,1750.7208507809999,1750.7208507809999,1750.7208507809999,1750.7208507809999,1750.7208507809999,1752.7565920529998,1752.7565920529998,1752.7565920529998,1752.7565920529998,,,,,,,,,,,,,,,,,,,,,,,,,,,,,,,,,,,,,,,03,005,2022-09-23_10h28.53.477,test2,2022.2.4,59.89820360194903,
0,0,0,0,23,0,23,0,1752.7565920529998,1752.7565920529998,1752.7565920529998,1752.7565920529998,1752.7565920529998,1752.7565920529998,1752.7565920529998,1,1,azul,0,['N_A'],1754.7416583259999,1754.7416583259999,1754.7416583259999,1754.7416583259999,1756.760716809,1756.760716809,1756.760716809,1756.760716809,1756.760716809,1756.760716809,1756.760716809,1756.760716809,1758.796060411,1758.796060411,1758.796060411,1758.796060411,,,,,,,,,,,,,,,,,,,,,,,,,,,,,,,,,,,,,,,03,005,2022-09-23_10h28.53.477,test2,2022.2.4,59.89820360194903,
0,0,0,0,24,0,24,0,1758.796060411,1758.796060411,1758.796060411,1758.796060411,1758.796060411,1758.796060411,1758.796060411,1,1,rojo,1,['N_A'],1762.9504528199998,1762.9504528199998,1762.9504528199998,1762.9504528199998,1764.986825241,1764.986825241,1764.986825241,1764.986825241,1764.986825241,1764.986825241,1764.986825241,1764.986825241,1767.021550912,1767.021550912,1767.021550912,1767.021550912,,,,,,,,,,,,,,,,,,,,,,,,,,,,,,,,,,,,,,,03,005,2022-09-23_10h28.53.477,test2,2022.2.4,59.89820360194903,
0,0,0,0,25,0,25,0,1767.021550912,1767.021550912,1767.021550912,1767.021550912,1767.021550912,1767.021550912,1767.021550912,1,-1,rojo,1,['N_A'],1776.532157891,1776.532157891,1776.532157891,1776.532157891,1778.568445103,1778.568445103,1778.568445103,1778.568445103,1778.568445103,1778.568445103,1778.568445103,1778.568445103,1780.6032760639998,1780.6032760639998,1780.6032760639998,1780.6032760639998,,,,,,,,,,,,,,,,,,,,,,,,,,,,,,,,,,,,,,,03,005,2022-09-23_10h28.53.477,test2,2022.2.4,59.89820360194903,
0,0,0,0,26,0,26,0,1780.6032760639998,1780.6032760639998,1780.6032760639998,1780.6032760639998,1780.6032760639998,1780.6032760639998,1780.6032760639998,-1,1,azul,1,['N_A'],1782.722720391,1782.722720391,1782.722720391,1782.722720391,1784.7583671250002,1784.7583671250002,1784.7583671250002,1784.7583671250002,1784.7583671250002,1784.7583671250002,1784.7583671250002,1784.7583671250002,1786.7934625639998,1786.7934625639998,1786.7934625639998,1786.7934625639998,,,,,,,,,,,,,,,,,,,,,,,,,,,,,,,,,,,,,,,03,005,2022-09-23_10h28.53.477,test2,2022.2.4,59.89820360194903,
0,0,0,0,27,0,27,0,1786.7934625639998,1786.7934625639998,1786.7934625639998,1786.7934625639998,1786.7934625639998,1786.7934625639998,1786.7934625639998,-1,-1,azul,0,['N_B'],1791.5492269,1791.5492269,1791.5492269,1791.5492269,1793.58391556,1793.58391556,1793.58391556,1793.58391556,1793.58391556,1793.58391556,1793.58391556,1793.58391556,1795.6199996889998,1795.6199996889998,1795.6199996889998,1795.6199996889998,,,,,,,,,,,,,,,,,,,,,,,,,,,,,,,,,,,,,,,03,005,2022-09-23_10h28.53.477,test2,2022.2.4,59.89820360194903,
0,0,0,0,28,0,28,0,1795.6199996889998,1795.6199996889998,1795.6199996889998,1795.6199996889998,1795.6199996889998,1795.6199996889998,1795.6199996889998,1,1,azul,1,['N_B'],1799.691557168,1799.691557168,1799.691557168,1799.691557168,1801.7102184940002,1801.7102184940002,1801.7102184940002,1801.7102184940002,1801.7102184940002,1801.7102184940002,1801.7102184940002,1801.7102184940002,1803.7452549470001,1803.7452549470001,1803.7452549470001,1803.7452549470001,,,,,,,,,,,,,,,,,,,,,,,,,,,,,,,,,,,,,,,03,005,2022-09-23_10h28.53.477,test2,2022.2.4,59.89820360194903,
0,0,0,0,29,0,29,0,1803.7452549470001,1803.7452549470001,1803.7452549470001,1803.7452549470001,1803.7452549470001,1803.7452549470001,1803.7452549470001,1,1,azul,1,['N_B'],1808.1009075059999,1808.1009075059999,1808.1009075059999,1808.1009075059999,1810.1189658649998,1810.1189658649998,1810.1189658649998,1810.1189658649998,1810.1189658649998,1810.1189658649998,1810.1189658649998,1810.1189658649998,1812.155523691,1812.155523691,1812.155523691,1812.155523691,,,,,,,,,,,,,,,,,,,,,,,,,,,,,,,,,,,,,,,03,005,2022-09-23_10h28.53.477,test2,2022.2.4,59.89820360194903,
0,0,0,0,30,0,30,0,1812.155523691,1812.155523691,1812.155523691,1812.155523691,1812.155523691,1812.155523691,1812.155523691,1,1,azul,1,['N_B'],1819.012656739,1819.012656739,1819.012656739,1819.012656739,1821.048280445,1821.048280445,1821.048280445,1821.048280445,1821.048280445,1821.048280445,1821.048280445,1821.048280445,1823.083336718,1823.083336718,1823.083336718,1823.083336718,,,,,,,,,,,,,,,,,,,,,,,,,,,,,,,,,,,,,,,03,005,2022-09-23_10h28.53.477,test2,2022.2.4,59.89820360194903,
0,0,0,0,31,0,31,0,1823.083336718,1823.083336718,1823.083336718,1823.083336718,1823.083336718,1823.083336718,1823.083336718,1,-1,azul,0,['N_A'],1826.370996373,1826.370996373,1826.370996373,1826.370996373,1828.4059942679999,1828.4059942679999,1828.4059942679999,1828.4059942679999,1828.4059942679999,1828.4059942679999,1828.4059942679999,1828.4059942679999,1830.4418121759998,1830.4418121759998,1830.4418121759998,1830.4418121759998,,,,,,,,,,,,,,,,,,,,,,,,,,,,,,,,,,,,,,,03,005,2022-09-23_10h28.53.477,test2,2022.2.4,59.89820360194903,
0,0,0,0,32,0,32,0,1830.4418121759998,1830.4418121759998,1830.4418121759998,1830.4418121759998,1830.4418121759998,1830.4418121759998,1830.4418121759998,-1,-1,azul,1,['N_A'],1832.3441085010002,1832.3441085010002,1832.3441085010002,1832.3441085010002,1834.3801859060002,1834.3801859060002,1834.3801859060002,1834.3801859060002,1834.3801859060002,1834.3801859060002,1834.3801859060002,1834.3801859060002,1836.4152608359998,1836.4152608359998,1836.4152608359998,1836.4152608359998,,,,,,,,,,,,,,,,,,,,,,,,,,,,,,,,,,,,,,,03,005,2022-09-23_10h28.53.477,test2,2022.2.4,59.89820360194903,
0,0,0,0,33,0,33,0,1836.4152608359998,1836.4152608359998,1836.4152608359998,1836.4152608359998,1836.4152608359998,1836.4152608359998,1836.4152608359998,1,-1,rojo,1,['N_A'],1838.5335853939998,1838.5335853939998,1838.5335853939998,1838.5335853939998,1840.569406883,1840.569406883,1840.569406883,1840.569406883,1840.569406883,1840.569406883,1840.569406883,1840.569406883,1842.605316511,1842.605316511,1842.605316511,1842.605316511,,,,,,,,,,,,,,,,,,,,,,,,,,,,,,,,,,,,,,,03,005,2022-09-23_10h28.53.477,test2,2022.2.4,59.89820360194903,
0,0,0,0,34,0,34,0,1842.605316511,1842.605316511,1842.605316511,1842.605316511,1842.605316511,1842.605316511,1842.605316511,1,1,rojo,1,['N_A'],1845.5413273349998,1845.5413273349998,1845.5413273349998,1845.5413273349998,1847.5596603319998,1847.5596603319998,1847.5596603319998,1847.5596603319998,1847.5596603319998,1847.5596603319998,1847.5596603319998,1847.5596603319998,1849.5967581799998,1849.5967581799998,1849.5967581799998,1849.5967581799998,,,,,,,,,,,,,,,,,,,,,,,,,,,,,,,,,,,,,,,03,005,2022-09-23_10h28.53.477,test2,2022.2.4,59.89820360194903,
0,0,0,0,35,0,35,0,1849.5967581799998,1849.5967581799998,1849.5967581799998,1849.5967581799998,1849.5967581799998,1849.5967581799998,1849.5967581799998,1,1,rojo,0,['N_B'],1853.133442041,1853.133442041,1853.133442041,1853.133442041,1855.152689935,1855.152689935,1855.152689935,1855.152689935,1855.152689935,1855.152689935,1855.152689935,1855.152689935,1857.1877449340002,1857.1877449340002,1857.1877449340002,1857.1877449340002,,,,,,,,,,,,,,,,,,,,,,,,,,,,,,,,,,,,,,,03,005,2022-09-23_10h28.53.477,test2,2022.2.4,59.89820360194903,
0,0,0,0,36,0,36,0,1857.1877449340002,1857.1877449340002,1857.1877449340002,1857.1877449340002,1857.1877449340002,1857.1877449340002,1857.1877449340002,1,1,azul,1,['N_B'],1860.2752234900001,1860.2752234900001,1860.2752234900001,1860.2752234900001,1862.2934596379998,1862.2934596379998,1862.2934596379998,1862.2934596379998,1862.2934596379998,1862.2934596379998,1862.2934596379998,1862.2934596379998,1864.32910475,1864.32910475,1864.32910475,1864.32910475,,,,,,,,,,,,,,,,,,,,,,,,,,,,,,,,,,,,,,,03,005,2022-09-23_10h28.53.477,test2,2022.2.4,59.89820360194903,
0,0,0,0,37,0,37,0,1864.32910475,1864.32910475,1864.32910475,1864.32910475,1864.32910475,1864.32910475,1864.32910475,-1,1,rojo,0,['N_A'],1867.8835549799999,1867.8835549799999,1867.8835549799999,1867.8835549799999,1869.9019014960002,1869.9019014960002,1869.9019014960002,1869.9019014960002,1869.9019014960002,1869.9019014960002,1869.9019014960002,1869.9019014960002,1871.937865318,1871.937865318,1871.937865318,1871.937865318,,,,,,,,,,,,,,,,,,,,,,,,,,,,,,,,,,,,,,,03,005,2022-09-23_10h28.53.477,test2,2022.2.4,59.89820360194903,
0,0,0,0,38,0,38,0,1871.937865318,1871.937865318,1871.937865318,1871.937865318,1871.937865318,1871.937865318,1871.937865318,1,1,rojo,1,['N_A'],1875.3916332709998,1875.3916332709998,1875.3916332709998,1875.3916332709998,1877.426804041,1877.426804041,1877.426804041,1877.426804041,1877.426804041,1877.426804041,1877.426804041,1877.426804041,1879.462880155,1879.462880155,1879.462880155,1879.462880155,,,,,,,,,,,,,,,,,,,,,,,,,,,,,,,,,,,,,,,03,005,2022-09-23_10h28.53.477,test2,2022.2.4,59.89820360194903,
0,0,0,0,39,0,39,0,1879.462880155,1879.462880155,1879.462880155,1879.462880155,1879.462880155,1879.462880155,1879.462880155,1,-1,rojo,1,['N_A'],1882.432887833,1882.432887833,1882.432887833,1882.432887833,1884.468322764,1884.468322764,1884.468322764,1884.468322764,1884.468322764,1884.468322764,1884.468322764,1884.468322764,1886.5035770719999,1886.5035770719999,1886.5035770719999,1886.5035770719999,,,,,,,,,,,,,,,,,,,,,,,,,,,,,,,,,,,,,,,03,005,2022-09-23_10h28.53.477,test2,2022.2.4,59.89820360194903,
0,0,0,0,40,0,40,0,1886.5035770719999,1886.5035770719999,1886.5035770719999,1886.5035770719999,1886.5035770719999,1886.5035770719999,1886.5035770719999,1,-1,rojo,1,['N_A'],1890.574740404,1890.574740404,1890.574740404,1890.574740404,1892.6104873289999,1892.6104873289999,1892.6104873289999,1892.6104873289999,1892.6104873289999,1892.6104873289999,1892.6104873289999,1892.6104873289999,1894.64565449,1894.64565449,1894.64565449,1894.64565449,,,,,,,,,,,,,,,,,,,,,,,,,,,,,,,,,,,,,,,03,005,2022-09-23_10h28.53.477,test2,2022.2.4,59.89820360194903,
0,0,0,0,41,0,41,0,1894.64565449,1894.64565449,1894.64565449,1894.64565449,1894.64565449,1894.64565449,1894.64565449,1,-1,rojo,1,['N_A'],1901.2036859399998,1901.2036859399998,1901.2036859399998,1901.2036859399998,1903.238937853,1903.238937853,1903.238937853,1903.238937853,1903.238937853,1903.238937853,1903.238937853,1903.238937853,1905.2741136819998,1905.2741136819998,1905.2741136819998,1905.2741136819998,,,,,,,,,,,,,,,,,,,,,,,,,,,,,,,,,,,,,,,03,005,2022-09-23_10h28.53.477,test2,2022.2.4,59.89820360194903,
0,0,0,0,42,0,42,0,1905.2741136819998,1905.2741136819998,1905.2741136819998,1905.2741136819998,1905.2741136819998,1905.2741136819998,1905.2741136819998,1,-1,rojo,1,['N_A'],1910.830624846,1910.830624846,1910.830624846,1910.830624846,1912.865625351,1912.865625351,1912.865625351,1912.865625351,1912.865625351,1912.865625351,1912.865625351,1912.865625351,1914.901372645,1914.901372645,1914.901372645,1914.901372645,,,,,,,,,,,,,,,,,,,,,,,,,,,,,,,,,,,,,,,03,005,2022-09-23_10h28.53.477,test2,2022.2.4,59.89820360194903,
0,0,0,0,43,0,43,0,1914.901372645,1914.901372645,1914.901372645,1914.901372645,1914.901372645,1914.901372645,1914.901372645,1,-1,rojo,0,['N_B'],1917.0370741519998,1917.0370741519998,1917.0370741519998,1917.0370741519998,1919.072762307,1919.072762307,1919.072762307,1919.072762307,1919.072762307,1919.072762307,1919.072762307,1919.072762307,1921.1079905160002,1921.1079905160002,1921.1079905160002,1921.1079905160002,,,,,,,,,,,,,,,,,,,,,,,,,,,,,,,,,,,,,,,03,005,2022-09-23_10h28.53.477,test2,2022.2.4,59.89820360194903,
0,0,0,0,44,0,44,0,1921.1079905160002,1921.1079905160002,1921.1079905160002,1921.1079905160002,1921.1079905160002,1921.1079905160002,1921.1079905160002,1,-1,azul,1,['N_B'],1924.161774252,1924.161774252,1924.161774252,1924.161774252,1926.1971772260001,1926.1971772260001,1926.1971772260001,1926.1971772260001,1926.1971772260001,1926.1971772260001,1926.1971772260001,1926.1971772260001,1928.232738977,1928.232738977,1928.232738977,1928.232738977,,,,,,,,,,,,,,,,,,,,,,,,,,,,,,,,,,,,,,,03,005,2022-09-23_10h28.53.477,test2,2022.2.4,59.89820360194903,
0,0,0,0,45,0,45,0,1928.232738977,1928.232738977,1928.232738977,1928.232738977,1928.232738977,1928.232738977,1928.232738977,1,1,azul,1,['N_B'],1930.184859973,1930.184859973,1930.184859973,1930.184859973,1932.220775133,1932.220775133,1932.220775133,1932.220775133,1932.220775133,1932.220775133,1932.220775133,1932.220775133,1934.255826027,1934.255826027,1934.255826027,1934.255826027,,,,,,,,,,,,,,,,,,,,,,,,,,,,,,,,,,,,,,,03,005,2022-09-23_10h28.53.477,test2,2022.2.4,59.89820360194903,
0,0,0,0,46,0,46,0,1934.255826027,1934.255826027,1934.255826027,1934.255826027,1934.255826027,1934.255826027,1934.255826027,1,-1,azul,1,['N_B'],1937.6772685140002,1937.6772685140002,1937.6772685140002,1937.6772685140002,1939.712490785,1939.712490785,1939.712490785,1939.712490785,1939.712490785,1939.712490785,1939.712490785,1939.712490785,1941.747746839,1941.747746839,1941.747746839,1941.747746839,,,,,,,,,,,,,,,,,,,,,,,,,,,,,,,,,,,,,,,03,005,2022-09-23_10h28.53.477,test2,2022.2.4,59.89820360194903,
0,0,0,0,47,0,47,0,1941.747746839,1941.747746839,1941.747746839,1941.747746839,1941.747746839,1941.747746839,1941.747746839,-1,-1,rojo,1,['N_B'],1944.0341532109999,1944.0341532109999,1944.0341532109999,1944.0341532109999,1946.068875447,1946.068875447,1946.068875447,1946.068875447,1946.068875447,1946.068875447,1946.068875447,1946.068875447,1948.105102287,1948.105102287,1948.105102287,1948.105102287,,,,,,,,,,,,,,,,,,,,,,,,,,,,,,,,,,,,,,,03,005,2022-09-23_10h28.53.477,test2,2022.2.4,59.89820360194903,
0,0,0,0,48,0,48,0,1948.105102287,1948.105102287,1948.105102287,1948.105102287,1948.105102287,1948.105102287,1948.105102287,1,1,azul,1,['N_B'],1951.0579120599998,1951.0579120599998,1951.0579120599998,1951.0579120599998,1953.0777578579998,1953.0777578579998,1953.0777578579998,1953.0777578579998,1953.0777578579998,1953.0777578579998,1953.0777578579998,1953.0777578579998,1955.1130958229999,1955.1130958229999,1955.1130958229999,1955.1130958229999,,,,,,,,,,,,,,,,,,,,,,,,,,,,,,,,,,,,,,,03,005,2022-09-23_10h28.53.477,test2,2022.2.4,59.89820360194903,
0,0,0,0,49,0,49,0,1955.1130958229999,1955.1130958229999,1955.1130958229999,1955.1130958229999,1955.1130958229999,1955.1130958229999,1955.1130958229999,1,1,azul,1,['N_B'],1958.399916957,1958.399916957,1958.399916957,1958.399916957,1960.4179511149998,1960.4179511149998,1960.4179511149998,1960.4179511149998,1960.4179511149998,1960.4179511149998,1960.4179511149998,1960.4179511149998,1962.4537302299998,1962.4537302299998,1962.4537302299998,1962.4537302299998,,,,,,,,,,,,,,,,,,,,,,,,,,,,,,,,,,,,,,,03,005,2022-09-23_10h28.53.477,test2,2022.2.4,59.89820360194903,
0,0,0,0,50,0,50,0,1962.4537302299998,1962.4537302299998,1962.4537302299998,1962.4537302299998,1962.4537302299998,1962.4537302299998,1962.4537302299998,1,1,azul,0,['N_A'],1965.741300325,1965.741300325,1965.741300325,1965.741300325,1967.776470435,1967.776470435,1967.776470435,1967.776470435,1967.776470435,1967.776470435,1967.776470435,1967.776470435,1969.811928112,1969.811928112,1969.811928112,1969.811928112,,,,,,,,,,,,,,,,,,,,,,,,,,,,,,,,,,,,,,,03,005,2022-09-23_10h28.53.477,test2,2022.2.4,59.89820360194903,
0,0,0,0,51,0,51,0,1969.811928112,1969.811928112,1969.811928112,1969.811928112,1969.811928112,1969.811928112,1969.811928112,1,-1,rojo,1,['N_A'],1972.265215735,1972.265215735,1972.265215735,1972.265215735,1974.3002977869999,1974.3002977869999,1974.3002977869999,1974.3002977869999,1974.3002977869999,1974.3002977869999,1974.3002977869999,1974.3002977869999,1976.3358772590002,1976.3358772590002,1976.3358772590002,1976.3358772590002,,,,,,,,,,,,,,,,,,,,,,,,,,,,,,,,,,,,,,,03,005,2022-09-23_10h28.53.477,test2,2022.2.4,59.89820360194903,
0,0,0,0,52,0,52,0,1976.3358772590002,1976.3358772590002,1976.3358772590002,1976.3358772590002,1976.3358772590002,1976.3358772590002,1976.3358772590002,1,1,rojo,1,['N_A'],1990.268058152,1990.268058152,1990.268058152,1990.268058152,1992.30356371,1992.30356371,1992.30356371,1992.30356371,1992.30356371,1992.30356371,1992.30356371,1992.30356371,1994.3393973,1994.3393973,1994.3393973,1994.3393973,,,,,,,,,,,,,,,,,,,,,,,,,,,,,,,,,,,,,,,03,005,2022-09-23_10h28.53.477,test2,2022.2.4,59.89820360194903,
0,0,0,0,53,0,53,0,1994.3393973,1994.3393973,1994.3393973,1994.3393973,1994.3393973,1994.3393973,1994.3393973,1,-1,rojo,0,['N_B'],1997.3595884979998,1997.3595884979998,1997.3595884979998,1997.3595884979998,1999.395322394,1999.395322394,1999.395322394,1999.395322394,1999.395322394,1999.395322394,1999.395322394,1999.395322394,2001.430829063,2001.430829063,2001.430829063,2001.430829063,,,,,,,,,,,,,,,,,,,,,,,,,,,,,,,,,,,,,,,03,005,2022-09-23_10h28.53.477,test2,2022.2.4,59.89820360194903,
0,0,0,0,54,0,54,0,2001.430829063,2001.430829063,2001.430829063,2001.430829063,2001.430829063,2001.430829063,2001.430829063,1,-1,azul,1,['N_B'],2011.291501157,2011.291501157,2011.291501157,2011.291501157,2013.3268598900002,2013.3268598900002,2013.3268598900002,2013.3268598900002,2013.3268598900002,2013.3268598900002,2013.3268598900002,2013.3268598900002,2015.362075629,2015.362075629,2015.362075629,2015.362075629,,,,,,,,,,,,,,,,,,,,,,,,,,,,,,,,,,,,,,,03,005,2022-09-23_10h28.53.477,test2,2022.2.4,59.89820360194903,
0,0,0,0,55,0,55,0,2015.362075629,2015.362075629,2015.362075629,2015.362075629,2015.362075629,2015.362075629,2015.362075629,-1,-1,rojo,1,['N_B'],2018.5824129,2018.5824129,2018.5824129,2018.5824129,2020.618054279,2020.618054279,2020.618054279,2020.618054279,2020.618054279,2020.618054279,2020.618054279,2020.618054279,2022.654269037,2022.654269037,2022.654269037,2022.654269037,,,,,,,,,,,,,,,,,,,,,,,,,,,,,,,,,,,,,,,03,005,2022-09-23_10h28.53.477,test2,2022.2.4,59.89820360194903,
0,0,0,0,56,0,56,0,2022.654269037,2022.654269037,2022.654269037,2022.654269037,2022.654269037,2022.654269037,2022.654269037,1,-1,azul,1,['N_B'],2025.307106862,2025.307106862,2025.307106862,2025.307106862,2027.3423663279998,2027.3423663279998,2027.3423663279998,2027.3423663279998,2027.3423663279998,2027.3423663279998,2027.3423663279998,2027.3423663279998,2029.3783207029999,2029.3783207029999,2029.3783207029999,2029.3783207029999,,,,,,,,,,,,,,,,,,,,,,,,,,,,,,,,,,,,,,,03,005,2022-09-23_10h28.53.477,test2,2022.2.4,59.89820360194903,
0,0,0,0,57,0,57,0,2029.3783207029999,2029.3783207029999,2029.3783207029999,2029.3783207029999,2029.3783207029999,2029.3783207029999,2029.3783207029999,-1,1,rojo,1,['N_B'],2031.446732793,2031.446732793,2031.446732793,2031.446732793,2033.4651461259998,2033.4651461259998,2033.4651461259998,2033.4651461259998,2033.4651461259998,2033.4651461259998,2033.4651461259998,2033.4651461259998,2035.5008355799998,2035.5008355799998,2035.5008355799998,2035.5008355799998,,,,,,,,,,,,,,,,,,,,,,,,,,,,,,,,,,,,,,,03,005,2022-09-23_10h28.53.477,test2,2022.2.4,59.89820360194903,
0,0,0,0,58,0,58,0,2035.5008355799998,2035.5008355799998,2035.5008355799998,2035.5008355799998,2035.5008355799998,2035.5008355799998,2035.5008355799998,1,1,azul,1,['N_B'],2039.839381859,2039.839381859,2039.839381859,2039.839381859,2041.8581874109998,2041.8581874109998,2041.8581874109998,2041.8581874109998,2041.8581874109998,2041.8581874109998,2041.8581874109998,2041.8581874109998,2043.8935172559998,2043.8935172559998,2043.8935172559998,2043.8935172559998,,,,,,,,,,,,,,,,,,,,,,,,,,,,,,,,,,,,,,,03,005,2022-09-23_10h28.53.477,test2,2022.2.4,59.89820360194903,
0,0,0,0,59,0,59,0,2043.8935172559998,2043.8935172559998,2043.8935172559998,2043.8935172559998,2043.8935172559998,2043.8935172559998,2043.8935172559998,-1,1,rojo,1,['N_B'],2046.8966974419998,2046.8966974419998,2046.8966974419998,2046.8966974419998,2048.916134413,2048.916134413,2048.916134413,2048.916134413,2048.916134413,2048.916134413,2048.916134413,2048.916134413,2050.9513804850003,2050.9513804850003,2050.9513804850003,2050.9513804850003,,,,,,,,,,,,,,,,,,,,,,,,,,,,,,,,,,,,,,,03,005,2022-09-23_10h28.53.477,test2,2022.2.4,59.89820360194903,
0,0,0,0,60,0,60,0,2050.9513804850003,2050.9513804850003,2050.9513804850003,2050.9513804850003,2050.9513804850003,2050.9513804850003,2050.9513804850003,1,1,azul,0,['N_A'],2053.104255812,2053.104255812,2053.104255812,2053.104255812,2055.1237440960003,2055.1237440960003,2055.1237440960003,2055.1237440960003,2055.1237440960003,2055.1237440960003,2055.1237440960003,2055.1237440960003,2057.158540034,2057.158540034,2057.158540034,2057.158540034,,,,,,,,,,,,,,,,,,,,,,,,,,,,,,,,,,,,,,,03,005,2022-09-23_10h28.53.477,test2,2022.2.4,59.89820360194903,
0,0,0,0,61,0,61,0,2057.158540034,2057.158540034,2057.158540034,2057.158540034,2057.158540034,2057.158540034,2057.158540034,1,1,rojo,0,['N_B'],2059.2605322400004,2059.2605322400004,2059.2605322400004,2059.2605322400004,2061.2795308980003,2061.2795308980003,2061.2795308980003,2061.2795308980003,2061.2795308980003,2061.2795308980003,2061.2795308980003,2061.2795308980003,2063.314956407,2063.314956407,2063.314956407,2063.314956407,,,,,,,,,,,,,,,,,,,,,,,,,,,,,,,,,,,,,,,03,005,2022-09-23_10h28.53.477,test2,2022.2.4,59.89820360194903,
0,0,0,0,62,0,62,0,2063.314956407,2063.314956407,2063.314956407,2063.314956407,2063.314956407,2063.314956407,2063.314956407,1,1,azul,1,['N_B'],2065.167698421,2065.167698421,2065.167698421,2065.167698421,2067.2030053669996,2067.2030053669996,2067.2030053669996,2067.2030053669996,2067.2030053669996,2067.2030053669996,2067.2030053669996,2067.2030053669996,2069.238147162,2069.238147162,2069.238147162,2069.238147162,,,,,,,,,,,,,,,,,,,,,,,,,,,,,,,,,,,,,,,03,005,2022-09-23_10h28.53.477,test2,2022.2.4,59.89820360194903,
0,0,0,0,63,0,63,0,2069.238147162,2069.238147162,2069.238147162,2069.238147162,2069.238147162,2069.238147162,2069.238147162,1,-1,azul,0,['N_A'],2071.156745909,2071.156745909,2071.156745909,2071.156745909,2073.19294585,2073.19294585,2073.19294585,2073.19294585,2073.19294585,2073.19294585,2073.19294585,2073.19294585,2075.2286989169997,2075.2286989169997,2075.2286989169997,2075.2286989169997,,,,,,,,,,,,,,,,,,,,,,,,,,,,,,,,,,,,,,,03,005,2022-09-23_10h28.53.477,test2,2022.2.4,59.89820360194903,
0,0,0,0,64,0,64,0,2075.2286989169997,2075.2286989169997,2075.2286989169997,2075.2286989169997,2075.2286989169997,2075.2286989169997,2075.2286989169997,1,-1,rojo,0,['N_B'],2080.0501380080004,2080.0501380080004,2080.0501380080004,2080.0501380080004,2082.08604654,2082.08604654,2082.08604654,2082.08604654,2082.08604654,2082.08604654,2082.08604654,2082.08604654,2084.1212703230003,2084.1212703230003,2084.1212703230003,2084.1212703230003,,,,,,,,,,,,,,,,,,,,,,,,,,,,,,,,,,,,,,,03,005,2022-09-23_10h28.53.477,test2,2022.2.4,59.89820360194903,
0,0,0,0,65,0,65,0,2084.1212703230003,2084.1212703230003,2084.1212703230003,2084.1212703230003,2084.1212703230003,2084.1212703230003,2084.1212703230003,1,-1,azul,0,['N_A'],2086.907824475,2086.907824475,2086.907824475,2086.907824475,2088.94400064,2088.94400064,2088.94400064,2088.94400064,2088.94400064,2088.94400064,2088.94400064,2088.94400064,2090.9791598069996,2090.9791598069996,2090.9791598069996,2090.9791598069996,,,,,,,,,,,,,,,,,,,,,,,,,,,,,,,,,,,,,,,03,005,2022-09-23_10h28.53.477,test2,2022.2.4,59.89820360194903,
0,0,0,0,66,0,66,0,2090.9791598069996,2090.9791598069996,2090.9791598069996,2090.9791598069996,2090.9791598069996,2090.9791598069996,2090.9791598069996,1,1,rojo,1,['N_A'],2093.1653512189996,2093.1653512189996,2093.1653512189996,2093.1653512189996,2095.200838003,2095.200838003,2095.200838003,2095.200838003,2095.200838003,2095.200838003,2095.200838003,2095.200838003,2097.235645146,2097.235645146,2097.235645146,2097.235645146,,,,,,,,,,,,,,,,,,,,,,,,,,,,,,,,,,,,,,,03,005,2022-09-23_10h28.53.477,test2,2022.2.4,59.89820360194903,
0,0,0,0,67,0,67,0,2097.235645146,2097.235645146,2097.235645146,2097.235645146,2097.235645146,2097.235645146,2097.235645146,1,-1,rojo,0,['N_B'],2100.1555103029996,2100.1555103029996,2100.1555103029996,2100.1555103029996,2102.192095953,2102.192095953,2102.192095953,2102.192095953,2102.192095953,2102.192095953,2102.192095953,2102.192095953,2104.2270956049997,2104.2270956049997,2104.2270956049997,2104.2270956049997,,,,,,,,,,,,,,,,,,,,,,,,,,,,,,,,,,,,,,,03,005,2022-09-23_10h28.53.477,test2,2022.2.4,59.89820360194903,
0,0,0,0,68,0,68,0,2104.2270956049997,2104.2270956049997,2104.2270956049997,2104.2270956049997,2104.2270956049997,2104.2270956049997,2104.2270956049997,1,-1,azul,1,['N_B'],2107.346871818,2107.346871818,2107.346871818,2107.346871818,2109.38342276,2109.38342276,2109.38342276,2109.38342276,2109.38342276,2109.38342276,2109.38342276,2109.38342276,2111.4188131299998,2111.4188131299998,2111.4188131299998,2111.4188131299998,,,,,,,,,,,,,,,,,,,,,,,,,,,,,,,,,,,,,,,03,005,2022-09-23_10h28.53.477,test2,2022.2.4,59.89820360194903,
0,0,0,0,69,0,69,0,2111.4188131299998,2111.4188131299998,2111.4188131299998,2111.4188131299998,2111.4188131299998,2111.4188131299998,2111.4188131299998,1,1,azul,1,['N_B'],2113.237083348,2113.237083348,2113.237083348,2113.237083348,2115.273058637,2115.273058637,2115.273058637,2115.273058637,2115.273058637,2115.273058637,2115.273058637,2115.273058637,2117.3087001269996,2117.3087001269996,2117.3087001269996,2117.3087001269996,,,,,,,,,,,,,,,,,,,,,,,,,,,,,,,,,,,,,,,03,005,2022-09-23_10h28.53.477,test2,2022.2.4,59.89820360194903,
0,0,0,0,70,0,70,0,2117.3087001269996,2117.3087001269996,2117.3087001269996,2117.3087001269996,2117.3087001269996,2117.3087001269996,2117.3087001269996,1,-1,azul,1,['N_B'],2120.9127577709996,2120.9127577709996,2120.9127577709996,2120.9127577709996,2122.9484224380003,2122.9484224380003,2122.9484224380003,2122.9484224380003,2122.9484224380003,2122.9484224380003,2122.9484224380003,2122.9484224380003,2124.9833820080003,2124.9833820080003,2124.9833820080003,2124.9833820080003,,,,,,,,,,,,,,,,,,,,,,,,,,,,,,,,,,,,,,,03,005,2022-09-23_10h28.53.477,test2,2022.2.4,59.89820360194903,
0,0,0,0,71,0,71,0,2124.9833820080003,2124.9833820080003,2124.9833820080003,2124.9833820080003,2124.9833820080003,2124.9833820080003,2124.9833820080003,1,1,azul,1,['N_B'],2127.936947716,2127.936947716,2127.936947716,2127.936947716,2129.956071472,2129.956071472,2129.956071472,2129.956071472,2129.956071472,2129.956071472,2129.956071472,2129.956071472,2131.9907745930004,2131.9907745930004,2131.9907745930004,2131.9907745930004,,,,,,,,,,,,,,,,,,,,,,,,,,,,,,,,,,,,,,,03,005,2022-09-23_10h28.53.477,test2,2022.2.4,59.89820360194903,
0,0,0,0,72,0,72,0,2131.9907745930004,2131.9907745930004,2131.9907745930004,2131.9907745930004,2131.9907745930004,2131.9907745930004,2131.9907745930004,1,1,azul,1,['N_B'],2134.076495124,2134.076495124,2134.076495124,2134.076495124,2136.0954803000004,2136.0954803000004,2136.0954803000004,2136.0954803000004,2136.0954803000004,2136.0954803000004,2136.0954803000004,2136.0954803000004,2138.130798,2138.130798,2138.130798,2138.130798,,,,,,,,,,,,,,,,,,,,,,,,,,,,,,,,,,,,,,,03,005,2022-09-23_10h28.53.477,test2,2022.2.4,59.89820360194903,
0,0,0,0,73,0,73,0,2138.130798,2138.130798,2138.130798,2138.130798,2138.130798,2138.130798,2138.130798,1,1,azul,1,['N_B'],2140.917318461,2140.917318461,2140.917318461,2140.917318461,2142.936428938,2142.936428938,2142.936428938,2142.936428938,2142.936428938,2142.936428938,2142.936428938,2142.936428938,2144.9722831010004,2144.9722831010004,2144.9722831010004,2144.9722831010004,,,,,,,,,,,,,,,,,,,,,,,,,,,,,,,,,,,,,,,03,005,2022-09-23_10h28.53.477,test2,2022.2.4,59.89820360194903,
0,0,0,0,74,0,74,0,2144.9722831010004,2144.9722831010004,2144.9722831010004,2144.9722831010004,2144.9722831010004,2144.9722831010004,2144.9722831010004,1,1,azul,0,['N_A'],2147.3575947689997,2147.3575947689997,2147.3575947689997,2147.3575947689997,2149.3936146710003,2149.3936146710003,2149.3936146710003,2149.3936146710003,2149.3936146710003,2149.3936146710003,2149.3936146710003,2149.3936146710003,2151.428922289,2151.428922289,2151.428922289,2151.428922289,,,,,,,,,,,,,,,,,,,,,,,,,,,,,,,,,,,,,,,03,005,2022-09-23_10h28.53.477,test2,2022.2.4,59.89820360194903,
0,0,0,0,75,0,75,0,2151.428922289,2151.428922289,2151.428922289,2151.428922289,2151.428922289,2151.428922289,2151.428922289,-1,-1,azul,1,['N_A'],2159.9220374690003,2159.9220374690003,2159.9220374690003,2159.9220374690003,2161.957077815,2161.957077815,2161.957077815,2161.957077815,2161.957077815,2161.957077815,2161.957077815,2161.957077815,2163.9932755849995,2163.9932755849995,2163.9932755849995,2163.9932755849995,,,,,,,,,,,,,,,,,,,,,,,,,,,,,,,,,,,,,,,03,005,2022-09-23_10h28.53.477,test2,2022.2.4,59.89820360194903,
0,0,0,0,76,0,76,0,2163.9932755849995,2163.9932755849995,2163.9932755849995,2163.9932755849995,2163.9932755849995,2163.9932755849995,2163.9932755849995,1,-1,rojo,1,['N_A'],2165.5952778339997,2165.5952778339997,2165.5952778339997,2165.5952778339997,2167.630134082,2167.630134082,2167.630134082,2167.630134082,2167.630134082,2167.630134082,2167.630134082,2167.630134082,2169.666539699,2169.666539699,2169.666539699,2169.666539699,,,,,,,,,,,,,,,,,,,,,,,,,,,,,,,,,,,,,,,03,005,2022-09-23_10h28.53.477,test2,2022.2.4,59.89820360194903,
0,0,0,0,77,0,77,0,2169.666539699,2169.666539699,2169.666539699,2169.666539699,2169.666539699,2169.666539699,2169.666539699,1,1,rojo,0,['N_B'],2171.6185990739996,2171.6185990739996,2171.6185990739996,2171.6185990739996,2173.6537711299998,2173.6537711299998,2173.6537711299998,2173.6537711299998,2173.6537711299998,2173.6537711299998,2173.6537711299998,2173.6537711299998,2175.689937192,2175.689937192,2175.689937192,2175.689937192,,,,,,,,,,,,,,,,,,,,,,,,,,,,,,,,,,,,,,,03,005,2022-09-23_10h28.53.477,test2,2022.2.4,59.89820360194903,
0,0,0,0,78,0,78,0,2175.689937192,2175.689937192,2175.689937192,2175.689937192,2175.689937192,2175.689937192,2175.689937192,1,-1,azul,1,['N_B'],2179.6604252489997,2179.6604252489997,2179.6604252489997,2179.6604252489997,2181.6961470180004,2181.6961470180004,2181.6961470180004,2181.6961470180004,2181.6961470180004,2181.6961470180004,2181.6961470180004,2181.6961470180004,2183.731329497,2183.731329497,2183.731329497,2183.731329497,,,,,,,,,,,,,,,,,,,,,,,,,,,,,,,,,,,,,,,03,005,2022-09-23_10h28.53.477,test2,2022.2.4,59.89820360194903,
0,0,0,0,79,0,79,0,2183.731329497,2183.731329497,2183.731329497,2183.731329497,2183.731329497,2183.731329497,2183.731329497,1,-1,azul,1,['N_B'],2189.9555908310003,2189.9555908310003,2189.9555908310003,2189.9555908310003,2191.9904481020003,2191.9904481020003,2191.9904481020003,2191.9904481020003,2191.9904481020003,2191.9904481020003,2191.9904481020003,2191.9904481020003,2194.026255729,2194.026255729,2194.026255729,2194.026255729,,,,,,,,,,,,,,,,,,,,,,,,,,,,,,,,,,,,,,,03,005,2022-09-23_10h28.53.477,test2,2022.2.4,59.89820360194903,
0,0,0,0,80,0,80,0,2194.026255729,2194.026255729,2194.026255729,2194.026255729,2194.026255729,2194.026255729,2194.026255729,-1,1,rojo,1,['N_B'],2197.8134836050003,2197.8134836050003,2197.8134836050003,2197.8134836050003,2199.832198815,2199.832198815,2199.832198815,2199.832198815,2199.832198815,2199.832198815,2199.832198815,2199.832198815,2201.868008959,2201.868008959,2201.868008959,2201.868008959,,,,,,,,,,,,,,,,,,,,,,,,,,,,,,,,,,,,,,,03,005,2022-09-23_10h28.53.477,test2,2022.2.4,59.89820360194903,
0,0,0,0,81,0,81,0,2201.868008959,2201.868008959,2201.868008959,2201.868008959,2201.868008959,2201.868008959,2201.868008959,1,1,azul,1,['N_B'],2204.421249309,2204.421249309,2204.421249309,2204.421249309,2206.4404726229996,2206.4404726229996,2206.4404726229996,2206.4404726229996,2206.4404726229996,2206.4404726229996,2206.4404726229996,2206.4404726229996,2208.4758869400002,2208.4758869400002,2208.4758869400002,2208.4758869400002,,,,,,,,,,,,,,,,,,,,,,,,,,,,,,,,,,,,,,,03,005,2022-09-23_10h28.53.477,test2,2022.2.4,59.89820360194903,
0,0,0,0,82,0,82,0,2208.4758869400002,2208.4758869400002,2208.4758869400002,2208.4758869400002,2208.4758869400002,2208.4758869400002,2208.4758869400002,1,1,azul,1,['N_B'],2212.2134755959996,2212.2134755959996,2212.2134755959996,2212.2134755959996,2214.2481059700003,2214.2481059700003,2214.2481059700003,2214.2481059700003,2214.2481059700003,2214.2481059700003,2214.2481059700003,2214.2481059700003,2216.284610228,2216.284610228,2216.284610228,2216.284610228,,,,,,,,,,,,,,,,,,,,,,,,,,,,,,,,,,,,,,,03,005,2022-09-23_10h28.53.477,test2,2022.2.4,59.89820360194903,
0,0,0,0,83,0,83,0,2216.284610228,2216.284610228,2216.284610228,2216.284610228,2216.284610228,2216.284610228,2216.284610228,1,-1,azul,0,['N_A'],2222.7742687620002,2222.7742687620002,2222.7742687620002,2222.7742687620002,2224.8107114389995,2224.8107114389995,2224.8107114389995,2224.8107114389995,2224.8107114389995,2224.8107114389995,2224.8107114389995,2224.8107114389995,2226.845825595,2226.845825595,2226.845825595,2226.845825595,,,,,,,,,,,,,,,,,,,,,,,,,,,,,,,,,,,,,,,03,005,2022-09-23_10h28.53.477,test2,2022.2.4,59.89820360194903,
0,0,0,0,84,0,84,0,2226.845825595,2226.845825595,2226.845825595,2226.845825595,2226.845825595,2226.845825595,2226.845825595,1,1,rojo,1,['N_A'],2230.766133243,2230.766133243,2230.766133243,2230.766133243,2232.8030453869997,2232.8030453869997,2232.8030453869997,2232.8030453869997,2232.8030453869997,2232.8030453869997,2232.8030453869997,2232.8030453869997,2234.8375380240004,2234.8375380240004,2234.8375380240004,2234.8375380240004,,,,,,,,,,,,,,,,,,,,,,,,,,,,,,,,,,,,,,,03,005,2022-09-23_10h28.53.477,test2,2022.2.4,59.89820360194903,
0,0,0,0,85,0,85,0,2234.8375380240004,2234.8375380240004,2234.8375380240004,2234.8375380240004,2234.8375380240004,2234.8375380240004,2234.8375380240004,1,-1,rojo,1,['N_A'],2237.607447495,2237.607447495,2237.607447495,2237.607447495,2239.6430920330004,2239.6430920330004,2239.6430920330004,2239.6430920330004,2239.6430920330004,2239.6430920330004,2239.6430920330004,2239.6430920330004,2241.678597798,2241.678597798,2241.678597798,2241.678597798,,,,,,,,,,,,,,,,,,,,,,,,,,,,,,,,,,,,,,,03,005,2022-09-23_10h28.53.477,test2,2022.2.4,59.89820360194903,
0,0,0,0,86,0,86,0,2241.678597798,2241.678597798,2241.678597798,2241.678597798,2241.678597798,2241.678597798,2241.678597798,-1,1,azul,0,['N_B'],2243.3979742049996,2243.3979742049996,2243.3979742049996,2243.3979742049996,2245.43321743,2245.43321743,2245.43321743,2245.43321743,2245.43321743,2245.43321743,2245.43321743,2245.43321743,2247.4684057060003,2247.4684057060003,2247.4684057060003,2247.4684057060003,,,,,,,,,,,,,,,,,,,,,,,,,,,,,,,,,,,,,,,03,005,2022-09-23_10h28.53.477,test2,2022.2.4,59.89820360194903,
0,0,0,0,87,0,87,0,2247.4684057060003,2247.4684057060003,2247.4684057060003,2247.4684057060003,2247.4684057060003,2247.4684057060003,2247.4684057060003,1,-1,azul,1,['N_B'],2249.2875600159996,2249.2875600159996,2249.2875600159996,2249.2875600159996,2251.322133967,2251.322133967,2251.322133967,2251.322133967,2251.322133967,2251.322133967,2251.322133967,2251.322133967,2253.358335168,2253.358335168,2253.358335168,2253.358335168,,,,,,,,,,,,,,,,,,,,,,,,,,,,,,,,,,,,,,,03,005,2022-09-23_10h28.53.477,test2,2022.2.4,59.89820360194903,
0,0,0,0,88,0,88,0,2253.358335168,2253.358335168,2253.358335168,2253.358335168,2253.358335168,2253.358335168,2253.358335168,1,-1,azul,1,['N_B'],2258.1640215589996,2258.1640215589996,2258.1640215589996,2258.1640215589996,2260.1995143390004,2260.1995143390004,2260.1995143390004,2260.1995143390004,2260.1995143390004,2260.1995143390004,2260.1995143390004,2260.1995143390004,2262.2350218869997,2262.2350218869997,2262.2350218869997,2262.2350218869997,,,,,,,,,,,,,,,,,,,,,,,,,,,,,,,,,,,,,,,03,005,2022-09-23_10h28.53.477,test2,2022.2.4,59.89820360194903,
0,0,0,0,89,0,89,0,2262.2350218869997,2262.2350218869997,2262.2350218869997,2262.2350218869997,2262.2350218869997,2262.2350218869997,2262.2350218869997,1,1,azul,1,['N_B'],2264.303564408,2264.303564408,2264.303564408,2264.303564408,2266.322414677,2266.322414677,2266.322414677,2266.322414677,2266.322414677,2266.322414677,2266.322414677,2266.322414677,2268.3584477040004,2268.3584477040004,2268.3584477040004,2268.3584477040004,,,,,,,,,,,,,,,,,,,,,,,,,,,,,,,,,,,,,,,03,005,2022-09-23_10h28.53.477,test2,2022.2.4,59.89820360194903,
0,0,0,0,90,0,90,0,2268.3584477040004,2268.3584477040004,2268.3584477040004,2268.3584477040004,2268.3584477040004,2268.3584477040004,2268.3584477040004,1,1,azul,1,['N_B'],2271.245421433,2271.245421433,2271.245421433,2271.245421433,2273.2624627229998,2273.2624627229998,2273.2624627229998,2273.2624627229998,2273.2624627229998,2273.2624627229998,2273.2624627229998,2273.2624627229998,2275.2995893019997,2275.2995893019997,2275.2995893019997,2275.2995893019997,,,,,,,,,,,,,,,,,,,,,,,,,,,,,,,,,,,,,,,03,005,2022-09-23_10h28.53.477,test2,2022.2.4,59.89820360194903,
0,0,0,0,91,0,91,0,2275.2995893019997,2275.2995893019997,2275.2995893019997,2275.2995893019997,2275.2995893019997,2275.2995893019997,2275.2995893019997,1,1,azul,1,['N_B'],2277.367867795,2277.367867795,2277.367867795,2277.367867795,2279.4035103979995,2279.4035103979995,2279.4035103979995,2279.4035103979995,2279.4035103979995,2279.4035103979995,2279.4035103979995,2279.4035103979995,2281.439839877,2281.439839877,2281.439839877,2281.439839877,,,,,,,,,,,,,,,,,,,,,,,,,,,,,,,,,,,,,,,03,005,2022-09-23_10h28.53.477,test2,2022.2.4,59.89820360194903,
0,0,0,0,92,0,92,0,2281.439839877,2281.439839877,2281.439839877,2281.439839877,2281.439839877,2281.439839877,2281.439839877,1,-1,azul,0,['N_A'],2283.5751195659996,2283.5751195659996,2283.5751195659996,2283.5751195659996,2285.6107262469995,2285.6107262469995,2285.6107262469995,2285.6107262469995,2285.6107262469995,2285.6107262469995,2285.6107262469995,2285.6107262469995,2287.6457981189997,2287.6457981189997,2287.6457981189997,2287.6457981189997,,,,,,,,,,,,,,,,,,,,,,,,,,,,,,,,,,,,,,,03,005,2022-09-23_10h28.53.477,test2,2022.2.4,59.89820360194903,
0,0,0,0,93,0,93,0,2287.6457981189997,2287.6457981189997,2287.6457981189997,2287.6457981189997,2287.6457981189997,2287.6457981189997,2287.6457981189997,1,-1,rojo,1,['N_A'],2289.464867111,2289.464867111,2289.464867111,2289.464867111,2291.5008822090003,2291.5008822090003,2291.5008822090003,2291.5008822090003,2291.5008822090003,2291.5008822090003,2291.5008822090003,2291.5008822090003,2293.535594522,2293.535594522,2293.535594522,2293.535594522,,,,,,,,,,,,,,,,,,,,,,,,,,,,,,,,,,,,,,,03,005,2022-09-23_10h28.53.477,test2,2022.2.4,59.89820360194903,
0,0,0,0,94,0,94,0,2293.535594522,2293.535594522,2293.535594522,2293.535594522,2293.535594522,2293.535594522,2293.535594522,1,-1,rojo,1,['N_A'],2297.3572946900003,2297.3572946900003,2297.3572946900003,2297.3572946900003,2299.392716911,2299.392716911,2299.392716911,2299.392716911,2299.392716911,2299.392716911,2299.392716911,2299.392716911,2301.4280096909997,2301.4280096909997,2301.4280096909997,2301.4280096909997,,,,,,,,,,,,,,,,,,,,,,,,,,,,,,,,,,,,,,,03,005,2022-09-23_10h28.53.477,test2,2022.2.4,59.89820360194903,
0,0,0,0,95,0,95,0,2301.4280096909997,2301.4280096909997,2301.4280096909997,2301.4280096909997,2301.4280096909997,2301.4280096909997,2301.4280096909997,1,-1,rojo,1,['N_A'],2306.5500607840004,2306.5500607840004,2306.5500607840004,2306.5500607840004,2308.5858817750004,2308.5858817750004,2308.5858817750004,2308.5858817750004,2308.5858817750004,2308.5858817750004,2308.5858817750004,2308.5858817750004,2310.6210551149998,2310.6210551149998,2310.6210551149998,2310.6210551149998,,,,,,,,,,,,,,,,,,,,,,,,,,,,,,,,,,,,,,,03,005,2022-09-23_10h28.53.477,test2,2022.2.4,59.89820360194903,
0,0,0,0,96,0,96,0,2310.6210551149998,2310.6210551149998,2310.6210551149998,2310.6210551149998,2310.6210551149998,2310.6210551149998,2310.6210551149998,1,-1,rojo,1,['N_A'],2317.5457013140003,2317.5457013140003,2317.5457013140003,2317.5457013140003,2319.581196743,2319.581196743,2319.581196743,2319.581196743,2319.581196743,2319.581196743,2319.581196743,2319.581196743,2321.6170157879997,2321.6170157879997,2321.6170157879997,2321.6170157879997,,,,,,,,,,,,,,,,,,,,,,,,,,,,,,,,,,,,,,,03,005,2022-09-23_10h28.53.477,test2,2022.2.4,59.89820360194903,
0,0,0,0,97,0,97,0,2321.6170157879997,2321.6170157879997,2321.6170157879997,2321.6170157879997,2321.6170157879997,2321.6170157879997,2321.6170157879997,1,-1,rojo,0,['N_B'],2323.919509384,2323.919509384,2323.919509384,2323.919509384,2325.9554434230004,2325.9554434230004,2325.9554434230004,2325.9554434230004,2325.9554434230004,2325.9554434230004,2325.9554434230004,2325.9554434230004,2327.990471172,2327.990471172,2327.990471172,2327.990471172,,,,,,,,,,,,,,,,,,,,,,,,,,,,,,,,,,,,,,,03,005,2022-09-23_10h28.53.477,test2,2022.2.4,59.89820360194903,
0,0,0,0,98,0,98,0,2327.990471172,2327.990471172,2327.990471172,2327.990471172,2327.990471172,2327.990471172,2327.990471172,-1,-1,rojo,1,['N_B'],2330.927335411,2330.927335411,2330.927335411,2330.927335411,2332.9627759249997,2332.9627759249997,2332.9627759249997,2332.9627759249997,2332.9627759249997,2332.9627759249997,2332.9627759249997,2332.9627759249997,2334.998852226,2334.998852226,2334.998852226,2334.998852226,,,,,,,,,,,,,,,,,,,,,,,,,,,,,,,,,,,,,,,03,005,2022-09-23_10h28.53.477,test2,2022.2.4,59.89820360194903,
0,0,0,0,99,0,99,0,2334.998852226,2334.998852226,2334.998852226,2334.998852226,2334.998852226,2334.998852226,2334.998852226,-1,-1,rojo,1,['N_B'],2337.48447844,2337.48447844,2337.48447844,2337.48447844,2339.5199752119997,2339.5199752119997,2339.5199752119997,2339.5199752119997,2339.5199752119997,2339.5199752119997,2339.5199752119997,2339.5199752119997,2341.555423746,2341.555423746,2341.555423746,2341.555423746,,,,,,,,,,,,,,,,,,,,,,,,,,,,,,,,,,,,,,,03,005,2022-09-23_10h28.53.477,test2,2022.2.4,59.89820360194903,
0,0,0,0,100,0,100,0,2341.555423746,2341.555423746,2341.555423746,2341.555423746,2341.555423746,2341.555423746,2341.555423746,1,1,azul,1,['N_B'],2343.4749155150002,2343.4749155150002,2343.4749155150002,2343.4749155150002,2345.509613423,2345.509613423,2345.509613423,2345.509613423,2345.509613423,2345.509613423,2345.509613423,2345.509613423,2347.545910418,2347.545910418,2347.545910418,2347.545910418,,,,,,,,,,,,,,,,,,,,,,,,,,,,,,,,,,,,,,,03,005,2022-09-23_10h28.53.477,test2,2022.2.4,59.89820360194903,
0,0,0,0,101,0,101,0,2347.545910418,2347.545910418,2347.545910418,2347.545910418,2347.545910418,2347.545910418,2347.545910418,-1,-1,rojo,0,['N_A'],2352.7013254940002,2352.7013254940002,2352.7013254940002,2352.7013254940002,2354.7370730189996,2354.7370730189996,2354.7370730189996,2354.7370730189996,2354.7370730189996,2354.7370730189996,2354.7370730189996,2354.7370730189996,2356.7720191999997,2356.7720191999997,2356.7720191999997,2356.7720191999997,,,,,,,,,,,,,,,,,,,,,,,,,,,,,,,,,,,,,,,03,005,2022-09-23_10h28.53.477,test2,2022.2.4,59.89820360194903,
0,0,0,0,102,0,102,0,2356.7720191999997,2356.7720191999997,2356.7720191999997,2356.7720191999997,2356.7720191999997,2356.7720191999997,2356.7720191999997,1,1,rojo,1,['N_A'],2358.791305695,2358.791305695,2358.791305695,2358.791305695,2360.8103160769997,2360.8103160769997,2360.8103160769997,2360.8103160769997,2360.8103160769997,2360.8103160769997,2360.8103160769997,2360.8103160769997,2362.8458235099997,2362.8458235099997,2362.8458235099997,2362.8458235099997,,,,,,,,,,,,,,,,,,,,,,,,,,,,,,,,,,,,,,,03,005,2022-09-23_10h28.53.477,test2,2022.2.4,59.89820360194903,
0,0,0,0,103,0,103,0,2362.8458235099997,2362.8458235099997,2362.8458235099997,2362.8458235099997,2362.8458235099997,2362.8458235099997,2362.8458235099997,-1,1,azul,0,['N_B'],2364.8648285589998,2364.8648285589998,2364.8648285589998,2364.8648285589998,2366.900167707,2366.900167707,2366.900167707,2366.900167707,2366.900167707,2366.900167707,2366.900167707,2366.900167707,2368.936362685,2368.936362685,2368.936362685,2368.936362685,,,,,,,,,,,,,,,,,,,,,,,,,,,,,,,,,,,,,,,03,005,2022-09-23_10h28.53.477,test2,2022.2.4,59.89820360194903,
0,0,0,0,104,0,104,0,2368.936362685,2368.936362685,2368.936362685,2368.936362685,2368.936362685,2368.936362685,2368.936362685,-1,-1,rojo,0,['N_A'],2371.271801737,2371.271801737,2371.271801737,2371.271801737,2373.307255924,2373.307255924,2373.307255924,2373.307255924,2373.307255924,2373.307255924,2373.307255924,2373.307255924,2375.342745862,2375.342745862,2375.342745862,2375.342745862,,,,,,,,,,,,,,,,,,,,,,,,,,,,,,,,,,,,,,,03,005,2022-09-23_10h28.53.477,test2,2022.2.4,59.89820360194903,
0,0,0,0,105,0,105,0,2375.342745862,2375.342745862,2375.342745862,2375.342745862,2375.342745862,2375.342745862,2375.342745862,1,-1,rojo,1,['N_A'],2377.9625785079998,2377.9625785079998,2377.9625785079998,2377.9625785079998,2379.997658403,2379.997658403,2379.997658403,2379.997658403,2379.997658403,2379.997658403,2379.997658403,2379.997658403,2382.0340940739998,2382.0340940739998,2382.0340940739998,2382.0340940739998,,,,,,,,,,,,,,,,,,,,,,,,,,,,,,,,,,,,,,,03,005,2022-09-23_10h28.53.477,test2,2022.2.4,59.89820360194903,
0,0,0,0,106,0,106,0,2382.0340940739998,2382.0340940739998,2382.0340940739998,2382.0340940739998,2382.0340940739998,2382.0340940739998,2382.0340940739998,1,1,rojo,1,['N_A'],2384.536774462,2384.536774462,2384.536774462,2384.536774462,2386.572603746,2386.572603746,2386.572603746,2386.572603746,2386.572603746,2386.572603746,2386.572603746,2386.572603746,2388.60741901,2388.60741901,2388.60741901,2388.60741901,,,,,,,,,,,,,,,,,,,,,,,,,,,,,,,,,,,,,,,03,005,2022-09-23_10h28.53.477,test2,2022.2.4,59.89820360194903,
0,0,0,0,107,0,107,0,2388.60741901,2388.60741901,2388.60741901,2388.60741901,2388.60741901,2388.60741901,2388.60741901,-1,-1,azul,1,['N_A'],2391.1107373900004,2391.1107373900004,2391.1107373900004,2391.1107373900004,2393.1454088500004,2393.1454088500004,2393.1454088500004,2393.1454088500004,2393.1454088500004,2393.1454088500004,2393.1454088500004,2393.1454088500004,2395.181058786,2395.181058786,2395.181058786,2395.181058786,,,,,,,,,,,,,,,,,,,,,,,,,,,,,,,,,,,,,,,03,005,2022-09-23_10h28.53.477,test2,2022.2.4,59.89820360194903,
0,0,0,0,108,0,108,0,2395.181058786,2395.181058786,2395.181058786,2395.181058786,2395.181058786,2395.181058786,2395.181058786,-1,1,azul,1,['N_A'],2398.418828758,2398.418828758,2398.418828758,2398.418828758,2400.43761292,2400.43761292,2400.43761292,2400.43761292,2400.43761292,2400.43761292,2400.43761292,2400.43761292,2402.4735641079997,2402.4735641079997,2402.4735641079997,2402.4735641079997,,,,,,,,,,,,,,,,,,,,,,,,,,,,,,,,,,,,,,,03,005,2022-09-23_10h28.53.477,test2,2022.2.4,59.89820360194903,
0,0,0,0,109,0,109,0,2402.4735641079997,2402.4735641079997,2402.4735641079997,2402.4735641079997,2402.4735641079997,2402.4735641079997,2402.4735641079997,1,1,rojo,0,['N_B'],2404.458190212,2404.458190212,2404.458190212,2404.458190212,2406.476955571,2406.476955571,2406.476955571,2406.476955571,2406.476955571,2406.476955571,2406.476955571,2406.476955571,2408.512442176,2408.512442176,2408.512442176,2408.512442176,,,,,,,,,,,,,,,,,,,,,,,,,,,,,,,,,,,,,,,03,005,2022-09-23_10h28.53.477,test2,2022.2.4,59.89820360194903,
0,0,0,0,110,0,110,0,2408.512442176,2408.512442176,2408.512442176,2408.512442176,2408.512442176,2408.512442176,2408.512442176,1,1,azul,1,['N_B'],2410.715943815,2410.715943815,2410.715943815,2410.715943815,2412.7513995070003,2412.7513995070003,2412.7513995070003,2412.7513995070003,2412.7513995070003,2412.7513995070003,2412.7513995070003,2412.7513995070003,2414.7865806480004,2414.7865806480004,2414.7865806480004,2414.7865806480004,,,,,,,,,,,,,,,,,,,,,,,,,,,,,,,,,,,,,,,03,005,2022-09-23_10h28.53.477,test2,2022.2.4,59.89820360194903,
0,0,0,0,111,0,111,0,2414.7865806480004,2414.7865806480004,2414.7865806480004,2414.7865806480004,2414.7865806480004,2414.7865806480004,2414.7865806480004,1,-1,azul,0,['N_A'],2418.1066420199995,2418.1066420199995,2418.1066420199995,2418.1066420199995,2420.1425981479997,2420.1425981479997,2420.1425981479997,2420.1425981479997,2420.1425981479997,2420.1425981479997,2420.1425981479997,2420.1425981479997,2422.178048168,2422.178048168,2422.178048168,2422.178048168,,,,,,,,,,,,,,,,,,,,,,,,,,,,,,,,,,,,,,,03,005,2022-09-23_10h28.53.477,test2,2022.2.4,59.89820360194903,
0,0,0,0,112,0,112,0,2422.178048168,2422.178048168,2422.178048168,2422.178048168,2422.178048168,2422.178048168,2422.178048168,-1,1,azul,0,['N_B'],2424.1638158980004,2424.1638158980004,2424.1638158980004,2424.1638158980004,2426.1815883030004,2426.1815883030004,2426.1815883030004,2426.1815883030004,2426.1815883030004,2426.1815883030004,2426.1815883030004,2426.1815883030004,2428.2176121840002,2428.2176121840002,2428.2176121840002,2428.2176121840002,,,,,,,,,,,,,,,,,,,,,,,,,,,,,,,,,,,,,,,03,005,2022-09-23_10h28.53.477,test2,2022.2.4,59.89820360194903,
0,0,0,0,113,0,113,0,2428.2176121840002,2428.2176121840002,2428.2176121840002,2428.2176121840002,2428.2176121840002,2428.2176121840002,2428.2176121840002,-1,1,rojo,1,['N_B'],2430.002917889,2430.002917889,2430.002917889,2430.002917889,2432.0225693519997,2432.0225693519997,2432.0225693519997,2432.0225693519997,2432.0225693519997,2432.0225693519997,2432.0225693519997,2432.0225693519997,2434.057889578,2434.057889578,2434.057889578,2434.057889578,,,,,,,,,,,,,,,,,,,,,,,,,,,,,,,,,,,,,,,03,005,2022-09-23_10h28.53.477,test2,2022.2.4,59.89820360194903,
0,0,0,0,114,0,114,0,2434.057889578,2434.057889578,2434.057889578,2434.057889578,2434.057889578,2434.057889578,2434.057889578,1,1,azul,0,['N_A'],2440.864262424,2440.864262424,2440.864262424,2440.864262424,2442.9016374720004,2442.9016374720004,2442.9016374720004,2442.9016374720004,2442.9016374720004,2442.9016374720004,2442.9016374720004,2442.9016374720004,2444.935693677,2444.935693677,2444.935693677,2444.935693677,,,,,,,,,,,,,,,,,,,,,,,,,,,,,,,,,,,,,,,03,005,2022-09-23_10h28.53.477,test2,2022.2.4,59.89820360194903,
0,0,0,0,115,0,115,0,2444.935693677,2444.935693677,2444.935693677,2444.935693677,2444.935693677,2444.935693677,2444.935693677,1,-1,rojo,1,['N_A'],2446.8548296219997,2446.8548296219997,2446.8548296219997,2446.8548296219997,2448.89094371,2448.89094371,2448.89094371,2448.89094371,2448.89094371,2448.89094371,2448.89094371,2448.89094371,2450.926761855,2450.926761855,2450.926761855,2450.926761855,,,,,,,,,,,,,,,,,,,,,,,,,,,,,,,,,,,,,,,03,005,2022-09-23_10h28.53.477,test2,2022.2.4,59.89820360194903,
0,0,0,0,116,0,116,0,2450.926761855,2450.926761855,2450.926761855,2450.926761855,2450.926761855,2450.926761855,2450.926761855,1,-1,rojo,1,['N_A'],2452.978239936,2452.978239936,2452.978239936,2452.978239936,2455.014859133,2455.014859133,2455.014859133,2455.014859133,2455.014859133,2455.014859133,2455.014859133,2455.014859133,2457.049714248,2457.049714248,2457.049714248,2457.049714248,,,,,,,,,,,,,,,,,,,,,,,,,,,,,,,,,,,,,,,03,005,2022-09-23_10h28.53.477,test2,2022.2.4,59.89820360194903,
0,0,0,0,117,0,117,0,2457.049714248,2457.049714248,2457.049714248,2457.049714248,2457.049714248,2457.049714248,2457.049714248,-1,1,azul,1,['N_A'],2460.1369435220004,2460.1369435220004,2460.1369435220004,2460.1369435220004,2462.1726710929997,2462.1726710929997,2462.1726710929997,2462.1726710929997,2462.1726710929997,2462.1726710929997,2462.1726710929997,2462.1726710929997,2464.2073942469997,2464.2073942469997,2464.2073942469997,2464.2073942469997,,,,,,,,,,,,,,,,,,,,,,,,,,,,,,,,,,,,,,,03,005,2022-09-23_10h28.53.477,test2,2022.2.4,59.89820360194903,
0,0,0,0,118,0,118,0,2464.2073942469997,2464.2073942469997,2464.2073942469997,2464.2073942469997,2464.2073942469997,2464.2073942469997,2464.2073942469997,1,-1,rojo,0,['N_B'],2466.093518807,2466.093518807,2466.093518807,2466.093518807,2468.12847202,2468.12847202,2468.12847202,2468.12847202,2468.12847202,2468.12847202,2468.12847202,2468.12847202,2470.164674066,2470.164674066,2470.164674066,2470.164674066,,,,,,,,,,,,,,,,,,,,,,,,,,,,,,,,,,,,,,,03,005,2022-09-23_10h28.53.477,test2,2022.2.4,59.89820360194903,
0,0,0,0,119,0,119,0,2470.164674066,2470.164674066,2470.164674066,2470.164674066,2470.164674066,2470.164674066,2470.164674066,1,1,azul,1,['N_B'],2472.3835737279996,2472.3835737279996,2472.3835737279996,2472.3835737279996,2474.401030383,2474.401030383,2474.401030383,2474.401030383,2474.401030383,2474.401030383,2474.401030383,2474.401030383,2476.4377560370003,2476.4377560370003,2476.4377560370003,2476.4377560370003,,,,,,,,,,,,,,,,,,,,,,,,,,,,,,,,,,,,,,,03,005,2022-09-23_10h28.53.477,test2,2022.2.4,59.89820360194903,
0,0,0,0,120,0,120,0,2476.4377560370003,2476.4377560370003,2476.4377560370003,2476.4377560370003,2476.4377560370003,2476.4377560370003,2476.4377560370003,1,1,azul,1,['N_B'],2480.158771685,2480.158771685,2480.158771685,2480.158771685,2482.195031419,2482.195031419,2482.195031419,2482.195031419,2482.195031419,2482.195031419,2482.195031419,2482.195031419,2484.2292025320003,2484.2292025320003,2484.2292025320003,2484.2292025320003,,,,,,,,,,,,,,,,,,,,,,,,,,,,,,,,,,,,,,,03,005,2022-09-23_10h28.53.477,test2,2022.2.4,59.89820360194903,
0,0,0,0,121,0,121,0,2484.2292025320003,2484.2292025320003,2484.2292025320003,2484.2292025320003,2484.2292025320003,2484.2292025320003,2484.2292025320003,1,-1,azul,1,['N_B'],2488.284160403,2488.284160403,2488.284160403,2488.284160403,2490.319934876,2490.319934876,2490.319934876,2490.319934876,2490.319934876,2490.319934876,2490.319934876,2490.319934876,2492.355444553,2492.355444553,2492.355444553,2492.355444553,,,,,,,,,,,,,,,,,,,,,,,,,,,,,,,,,,,,,,,03,005,2022-09-23_10h28.53.477,test2,2022.2.4,59.89820360194903,
0,0,0,0,122,0,122,0,2492.355444553,2492.355444553,2492.355444553,2492.355444553,2492.355444553,2492.355444553,2492.355444553,-1,-1,rojo,1,['N_B'],2495.008860883,2495.008860883,2495.008860883,2495.008860883,2497.044542863,2497.044542863,2497.044542863,2497.044542863,2497.044542863,2497.044542863,2497.044542863,2497.044542863,2499.0798481660004,2499.0798481660004,2499.0798481660004,2499.0798481660004,,,,,,,,,,,,,,,,,,,,,,,,,,,,,,,,,,,,,,,03,005,2022-09-23_10h28.53.477,test2,2022.2.4,59.89820360194903,
0,0,0,0,123,0,123,0,2499.0798481660004,2499.0798481660004,2499.0798481660004,2499.0798481660004,2499.0798481660004,2499.0798481660004,2499.0798481660004,1,1,azul,1,['N_B'],2500.931887601,2500.931887601,2500.931887601,2500.931887601,2502.949894777,2502.949894777,2502.949894777,2502.949894777,2502.949894777,2502.949894777,2502.949894777,2502.949894777,2504.9859102789997,2504.9859102789997,2504.9859102789997,2504.9859102789997,,,,,,,,,,,,,,,,,,,,,,,,,,,,,,,,,,,,,,,03,005,2022-09-23_10h28.53.477,test2,2022.2.4,59.89820360194903,
0,0,0,0,124,0,124,0,2504.9859102789997,2504.9859102789997,2504.9859102789997,2504.9859102789997,2504.9859102789997,2504.9859102789997,2504.9859102789997,1,1,azul,1,['N_B'],2506.9379997839997,2506.9379997839997,2506.9379997839997,2506.9379997839997,2508.957361772,2508.957361772,2508.957361772,2508.957361772,2508.957361772,2508.957361772,2508.957361772,2508.957361772,2510.992139492,2510.992139492,2510.992139492,2510.992139492,,,,,,,,,,,,,,,,,,,,,,,,,,,,,,,,,,,,,,,03,005,2022-09-23_10h28.53.477,test2,2022.2.4,59.89820360194903,
0,0,0,0,125,0,125,0,2510.992139492,2510.992139492,2510.992139492,2510.992139492,2510.992139492,2510.992139492,2510.992139492,1,1,azul,0,['N_A'],2512.9782433210003,2512.9782433210003,2512.9782433210003,2512.9782433210003,2515.0135644660004,2515.0135644660004,2515.0135644660004,2515.0135644660004,2515.0135644660004,2515.0135644660004,2515.0135644660004,2515.0135644660004,2517.0486763159997,2517.0486763159997,2517.0486763159997,2517.0486763159997,,,,,,,,,,,,,,,,,,,,,,,,,,,,,,,,,,,,,,,03,005,2022-09-23_10h28.53.477,test2,2022.2.4,59.89820360194903,
0,0,0,0,126,0,126,0,2517.0486763159997,2517.0486763159997,2517.0486763159997,2517.0486763159997,2517.0486763159997,2517.0486763159997,2517.0486763159997,-1,-1,azul,1,['N_A'],2518.8343038880002,2518.8343038880002,2518.8343038880002,2518.8343038880002,2520.8700118899997,2520.8700118899997,2520.8700118899997,2520.8700118899997,2520.8700118899997,2520.8700118899997,2520.8700118899997,2520.8700118899997,2522.906125022,2522.906125022,2522.906125022,2522.906125022,,,,,,,,,,,,,,,,,,,,,,,,,,,,,,,,,,,,,,,03,005,2022-09-23_10h28.53.477,test2,2022.2.4,59.89820360194903,
0,0,0,0,127,0,127,0,2522.906125022,2522.906125022,2522.906125022,2522.906125022,2522.906125022,2522.906125022,2522.906125022,1,-1,rojo,1,['N_A'],2525.024771763,2525.024771763,2525.024771763,2525.024771763,2527.0600376089997,2527.0600376089997,2527.0600376089997,2527.0600376089997,2527.0600376089997,2527.0600376089997,2527.0600376089997,2527.0600376089997,2529.095601033,2529.095601033,2529.095601033,2529.095601033,,,,,,,,,,,,,,,,,,,,,,,,,,,,,,,,,,,,,,,03,005,2022-09-23_10h28.53.477,test2,2022.2.4,59.89820360194903,
0,0,0,0,128,0,128,0,2529.095601033,2529.095601033,2529.095601033,2529.095601033,2529.095601033,2529.095601033,2529.095601033,-1,1,azul,1,['N_A'],2531.181423913,2531.181423913,2531.181423913,2531.181423913,2533.2011725740003,2533.2011725740003,2533.2011725740003,2533.2011725740003,2533.2011725740003,2533.2011725740003,2533.2011725740003,2533.2011725740003,2535.2362500130002,2535.2362500130002,2535.2362500130002,2535.2362500130002,,,,,,,,,,,,,,,,,,,,,,,,,,,,,,,,,,,,,,,03,005,2022-09-23_10h28.53.477,test2,2022.2.4,59.89820360194903,
0,0,0,0,129,0,129,0,2535.2362500130002,2535.2362500130002,2535.2362500130002,2535.2362500130002,2535.2362500130002,2535.2362500130002,2535.2362500130002,-1,1,azul,0,['N_B'],2537.171203567,2537.171203567,2537.171203567,2537.171203567,2539.189809454,2539.189809454,2539.189809454,2539.189809454,2539.189809454,2539.189809454,2539.189809454,2539.189809454,2541.225686799,2541.225686799,2541.225686799,2541.225686799,,,,,,,,,,,,,,,,,,,,,,,,,,,,,,,,,,,,,,,03,005,2022-09-23_10h28.53.477,test2,2022.2.4,59.89820360194903,
0,0,0,0,130,0,130,0,2541.225686799,2541.225686799,2541.225686799,2541.225686799,2541.225686799,2541.225686799,2541.225686799,1,1,azul,1,['N_B'],2543.060762139,2543.060762139,2543.060762139,2543.060762139,2545.080774753,2545.080774753,2545.080774753,2545.080774753,2545.080774753,2545.080774753,2545.080774753,2545.080774753,2547.116264137,2547.116264137,2547.116264137,2547.116264137,,,,,,,,,,,,,,,,,,,,,,,,,,,,,,,,,,,,,,,03,005,2022-09-23_10h28.53.477,test2,2022.2.4,59.89820360194903,
0,0,0,0,131,0,131,0,2547.116264137,2547.116264137,2547.116264137,2547.116264137,2547.116264137,2547.116264137,2547.116264137,1,1,azul,1,['N_B'],2549.134410353,2549.134410353,2549.134410353,2549.134410353,2551.1535315459996,2551.1535315459996,2551.1535315459996,2551.1535315459996,2551.1535315459996,2551.1535315459996,2551.1535315459996,2551.1535315459996,2553.1884150180003,2553.1884150180003,2553.1884150180003,2553.1884150180003,,,,,,,,,,,,,,,,,,,,,,,,,,,,,,,,,,,,,,,03,005,2022-09-23_10h28.53.477,test2,2022.2.4,59.89820360194903,
0,0,0,0,132,0,132,0,2553.1884150180003,2553.1884150180003,2553.1884150180003,2553.1884150180003,2553.1884150180003,2553.1884150180003,2553.1884150180003,1,1,azul,1,['N_B'],2555.008253749,2555.008253749,2555.008253749,2555.008253749,2557.027133474,2557.027133474,2557.027133474,2557.027133474,2557.027133474,2557.027133474,2557.027133474,2557.027133474,2559.0621138409997,2559.0621138409997,2559.0621138409997,2559.0621138409997,,,,,,,,,,,,,,,,,,,,,,,,,,,,,,,,,,,,,,,03,005,2022-09-23_10h28.53.477,test2,2022.2.4,59.89820360194903,
0,0,0,0,133,0,133,0,2559.0621138409997,2559.0621138409997,2559.0621138409997,2559.0621138409997,2559.0621138409997,2559.0621138409997,2559.0621138409997,1,1,azul,1,['N_B'],2560.8477118869996,2560.8477118869996,2560.8477118869996,2560.8477118869996,2562.865186766,2562.865186766,2562.865186766,2562.865186766,2562.865186766,2562.865186766,2562.865186766,2562.865186766,2564.901624442,2564.901624442,2564.901624442,2564.901624442,,,,,,,,,,,,,,,,,,,,,,,,,,,,,,,,,,,,,,,03,005,2022-09-23_10h28.53.477,test2,2022.2.4,59.89820360194903,
0,0,0,0,134,0,134,0,2564.901624442,2564.901624442,2564.901624442,2564.901624442,2564.901624442,2564.901624442,2564.901624442,1,1,azul,0,['N_A'],2567.1212418060004,2567.1212418060004,2567.1212418060004,2567.1212418060004,2569.13903647,2569.13903647,2569.13903647,2569.13903647,2569.13903647,2569.13903647,2569.13903647,2569.13903647,2571.1758945909996,2571.1758945909996,2571.1758945909996,2571.1758945909996,,,,,,,,,,,,,,,,,,,,,,,,,,,,,,,,,,,,,,,03,005,2022-09-23_10h28.53.477,test2,2022.2.4,59.89820360194903,
0,0,0,0,135,0,135,0,2571.1758945909996,2571.1758945909996,2571.1758945909996,2571.1758945909996,2571.1758945909996,2571.1758945909996,2571.1758945909996,1,1,rojo,1,['N_A'],2573.261448546,2573.261448546,2573.261448546,2573.261448546,2575.297440247,2575.297440247,2575.297440247,2575.297440247,2575.297440247,2575.297440247,2575.297440247,2575.297440247,2577.3332518770003,2577.3332518770003,2577.3332518770003,2577.3332518770003,,,,,,,,,,,,,,,,,,,,,,,,,,,,,,,,,,,,,,,03,005,2022-09-23_10h28.53.477,test2,2022.2.4,59.89820360194903,
0,0,0,0,136,0,136,0,2577.3332518770003,2577.3332518770003,2577.3332518770003,2577.3332518770003,2577.3332518770003,2577.3332518770003,2577.3332518770003,1,-1,rojo,0,['N_B'],2579.7854411830003,2579.7854411830003,2579.7854411830003,2579.7854411830003,2581.8212604459995,2581.8212604459995,2581.8212604459995,2581.8212604459995,2581.8212604459995,2581.8212604459995,2581.8212604459995,2581.8212604459995,2583.8557621789996,2583.8557621789996,2583.8557621789996,2583.8557621789996,,,,,,,,,,,,,,,,,,,,,,,,,,,,,,,,,,,,,,,03,005,2022-09-23_10h28.53.477,test2,2022.2.4,59.89820360194903,
0,0,0,0,137,0,137,0,2583.8557621789996,2583.8557621789996,2583.8557621789996,2583.8557621789996,2583.8557621789996,2583.8557621789996,2583.8557621789996,1,-1,azul,0,['N_A'],2586.3089829970004,2586.3089829970004,2586.3089829970004,2586.3089829970004,2588.3450770540003,2588.3450770540003,2588.3450770540003,2588.3450770540003,2588.3450770540003,2588.3450770540003,2588.3450770540003,2588.3450770540003,2590.3804010430003,2590.3804010430003,2590.3804010430003,2590.3804010430003,,,,,,,,,,,,,,,,,,,,,,,,,,,,,,,,,,,,,,,03,005,2022-09-23_10h28.53.477,test2,2022.2.4,59.89820360194903,
0,0,0,0,138,0,138,0,2590.3804010430003,2590.3804010430003,2590.3804010430003,2590.3804010430003,2590.3804010430003,2590.3804010430003,2590.3804010430003,-1,1,azul,1,['N_A'],2592.0993091500004,2592.0993091500004,2592.0993091500004,2592.0993091500004,2594.1342486820004,2594.1342486820004,2594.1342486820004,2594.1342486820004,2594.1342486820004,2594.1342486820004,2594.1342486820004,2594.1342486820004,2596.1703082189997,2596.1703082189997,2596.1703082189997,2596.1703082189997,,,,,,,,,,,,,,,,,,,,,,,,,,,,,,,,,,,,,,,03,005,2022-09-23_10h28.53.477,test2,2022.2.4,59.89820360194903,
0,0,0,0,139,0,139,0,2596.1703082189997,2596.1703082189997,2596.1703082189997,2596.1703082189997,2596.1703082189997,2596.1703082189997,2596.1703082189997,1,-1,rojo,0,['N_B'],2597.98859833,2597.98859833,2597.98859833,2597.98859833,2600.0239850469998,2600.0239850469998,2600.0239850469998,2600.0239850469998,2600.0239850469998,2600.0239850469998,2600.0239850469998,2600.0239850469998,2602.060280267,2602.060280267,2602.060280267,2602.060280267,,,,,,,,,,,,,,,,,,,,,,,,,,,,,,,,,,,,,,,03,005,2022-09-23_10h28.53.477,test2,2022.2.4,59.89820360194903,
0,0,0,0,140,0,140,0,2602.060280267,2602.060280267,2602.060280267,2602.060280267,2602.060280267,2602.060280267,2602.060280267,1,1,azul,1,['N_B'],2603.7287820270003,2603.7287820270003,2603.7287820270003,2603.7287820270003,2605.746863042,2605.746863042,2605.746863042,2605.746863042,2605.746863042,2605.746863042,2605.746863042,2605.746863042,2607.782791718,2607.782791718,2607.782791718,2607.782791718,,,,,,,,,,,,,,,,,,,,,,,,,,,,,,,,,,,,,,,03,005,2022-09-23_10h28.53.477,test2,2022.2.4,59.89820360194903,
0,0,0,0,141,0,141,0,2607.782791718,2607.782791718,2607.782791718,2607.782791718,2607.782791718,2607.782791718,2607.782791718,1,1,azul,1,['N_B'],2609.6343417709995,2609.6343417709995,2609.6343417709995,2609.6343417709995,2611.6707491099996,2611.6707491099996,2611.6707491099996,2611.6707491099996,2611.6707491099996,2611.6707491099996,2611.6707491099996,2611.6707491099996,2613.705865842,2613.705865842,2613.705865842,2613.705865842,,,,,,,,,,,,,,,,,,,,,,,,,,,,,,,,,,,,,,,03,005,2022-09-23_10h28.53.477,test2,2022.2.4,59.89820360194903,
0,0,0,0,142,0,142,0,2613.705865842,2613.705865842,2613.705865842,2613.705865842,2613.705865842,2613.705865842,2613.705865842,-1,-1,rojo,0,['N_A'],2615.391745555,2615.391745555,2615.391745555,2615.391745555,2617.4271825079995,2617.4271825079995,2617.4271825079995,2617.4271825079995,2617.4271825079995,2617.4271825079995,2617.4271825079995,2617.4271825079995,2619.4625450209996,2619.4625450209996,2619.4625450209996,2619.4625450209996,,,,,,,,,,,,,,,,,,,,,,,,,,,,,,,,,,,,,,,03,005,2022-09-23_10h28.53.477,test2,2022.2.4,59.89820360194903,
0,0,0,0,143,0,143,0,2619.4625450209996,2619.4625450209996,2619.4625450209996,2619.4625450209996,2619.4625450209996,2619.4625450209996,2619.4625450209996,-1,1,azul,1,['N_A'],2621.130347565,2621.130347565,2621.130347565,2621.130347565,2623.1671378130004,2623.1671378130004,2623.1671378130004,2623.1671378130004,2623.1671378130004,2623.1671378130004,2623.1671378130004,2623.1671378130004,2625.2018636820003,2625.2018636820003,2625.2018636820003,2625.2018636820003,,,,,,,,,,,,,,,,,,,,,,,,,,,,,,,,,,,,,,,03,005,2022-09-23_10h28.53.477,test2,2022.2.4,59.89820360194903,
0,0,0,0,144,0,144,0,2625.2018636820003,2625.2018636820003,2625.2018636820003,2625.2018636820003,2625.2018636820003,2625.2018636820003,2625.2018636820003,1,-1,rojo,1,['N_A'],2627.237416576,2627.237416576,2627.237416576,2627.237416576,2629.273267169,2629.273267169,2629.273267169,2629.273267169,2629.273267169,2629.273267169,2629.273267169,2629.273267169,2631.3086997049995,2631.3086997049995,2631.3086997049995,2631.3086997049995,,,,,,,,,,,,,,,,,,,,,,,,,,,,,,,,,,,,,,,03,005,2022-09-23_10h28.53.477,test2,2022.2.4,59.89820360194903,
0,0,0,0,145,0,145,0,2631.3086997049995,2631.3086997049995,2631.3086997049995,2631.3086997049995,2631.3086997049995,2631.3086997049995,2631.3086997049995,-1,1,azul,1,['N_A'],2633.6449851649995,2633.6449851649995,2633.6449851649995,2633.6449851649995,2635.6798826080003,2635.6798826080003,2635.6798826080003,2635.6798826080003,2635.6798826080003,2635.6798826080003,2635.6798826080003,2635.6798826080003,2637.7156081169996,2637.7156081169996,2637.7156081169996,2637.7156081169996,,,,,,,,,,,,,,,,,,,,,,,,,,,,,,,,,,,,,,,03,005,2022-09-23_10h28.53.477,test2,2022.2.4,59.89820360194903,
0,0,0,0,146,0,146,0,2637.7156081169996,2637.7156081169996,2637.7156081169996,2637.7156081169996,2637.7156081169996,2637.7156081169996,2637.7156081169996,1,-1,rojo,0,['N_B'],2639.467164492,2639.467164492,2639.467164492,2639.467164492,2641.503847561,2641.503847561,2641.503847561,2641.503847561,2641.503847561,2641.503847561,2641.503847561,2641.503847561,2643.5390483150004,2643.5390483150004,2643.5390483150004,2643.5390483150004,,,,,,,,,,,,,,,,,,,,,,,,,,,,,,,,,,,,,,,03,005,2022-09-23_10h28.53.477,test2,2022.2.4,59.89820360194903,
0,0,0,0,147,0,147,0,2643.5390483150004,2643.5390483150004,2643.5390483150004,2643.5390483150004,2643.5390483150004,2643.5390483150004,2643.5390483150004,1,1,azul,1,['N_B'],2645.457952807,2645.457952807,2645.457952807,2645.457952807,2647.4937838449996,2647.4937838449996,2647.4937838449996,2647.4937838449996,2647.4937838449996,2647.4937838449996,2647.4937838449996,2647.4937838449996,2649.5283973389996,2649.5283973389996,2649.5283973389996,2649.5283973389996,,,,,,,,,,,,,,,,,,,,,,,,,,,,,,,,,,,,,,,03,005,2022-09-23_10h28.53.477,test2,2022.2.4,59.89820360194903,
0,0,0,0,148,0,148,0,2649.5283973389996,2649.5283973389996,2649.5283973389996,2649.5283973389996,2649.5283973389996,2649.5283973389996,2649.5283973389996,-1,-1,rojo,1,['N_B'],2651.5810319949996,2651.5810319949996,2651.5810319949996,2651.5810319949996,2653.617116421,2653.617116421,2653.617116421,2653.617116421,2653.617116421,2653.617116421,2653.617116421,2653.617116421,2655.6519329519997,2655.6519329519997,2655.6519329519997,2655.6519329519997,,,,,,,,,,,,,,,,,,,,,,,,,,,,,,,,,,,,,,,03,005,2022-09-23_10h28.53.477,test2,2022.2.4,59.89820360194903,
0,0,0,0,149,0,149,0,2655.6519329519997,2655.6519329519997,2655.6519329519997,2655.6519329519997,2655.6519329519997,2655.6519329519997,2655.6519329519997,-1,-1,rojo,0,['N_A'],2658.9222778390003,2658.9222778390003,2658.9222778390003,2658.9222778390003,2660.957574794,2660.957574794,2660.957574794,2660.957574794,2660.957574794,2660.957574794,2660.957574794,2660.957574794,2662.993479185,2662.993479185,2662.993479185,2662.993479185,,,,,,,,,,,,,,,,,,,,,,,,,,,,,,,,,,,,,,,03,005,2022-09-23_10h28.53.477,test2,2022.2.4,59.89820360194903,
0,0,0,0,150,0,150,0,2662.993479185,2662.993479185,2662.993479185,2662.993479185,2662.993479185,2662.993479185,2662.993479185,-1,-1,azul,1,['N_A'],2664.678432611,2664.678432611,2664.678432611,2664.678432611,2666.7145385189997,2666.7145385189997,2666.7145385189997,2666.7145385189997,2666.7145385189997,2666.7145385189997,2666.7145385189997,2666.7145385189997,2668.750177191,2668.750177191,2668.750177191,2668.750177191,,,,,,,,,,,,,,,,,,,,,,,,,,,,,,,,,,,,,,,03,005,2022-09-23_10h28.53.477,test2,2022.2.4,59.89820360194903,
0,0,0,0,151,0,151,0,2668.750177191,2668.750177191,2668.750177191,2668.750177191,2668.750177191,2668.750177191,2668.750177191,1,-1,rojo,1,['N_A'],2670.652750376,2670.652750376,2670.652750376,2670.652750376,2672.6877586909995,2672.6877586909995,2672.6877586909995,2672.6877586909995,2672.6877586909995,2672.6877586909995,2672.6877586909995,2672.6877586909995,2674.7234318170003,2674.7234318170003,2674.7234318170003,2674.7234318170003,,,,,,,,,,,,,,,,,,,,,,,,,,,,,,,,,,,,,,,03,005,2022-09-23_10h28.53.477,test2,2022.2.4,59.89820360194903,
0,0,0,0,152,0,152,0,2674.7234318170003,2674.7234318170003,2674.7234318170003,2674.7234318170003,2674.7234318170003,2674.7234318170003,2674.7234318170003,1,-1,rojo,0,['N_B'],2676.5915199270003,2676.5915199270003,2676.5915199270003,2676.5915199270003,2678.62751027,2678.62751027,2678.62751027,2678.62751027,2678.62751027,2678.62751027,2678.62751027,2678.62751027,2680.662689504,2680.662689504,2680.662689504,2680.662689504,,,,,,,,,,,,,,,,,,,,,,,,,,,,,,,,,,,,,,,03,005,2022-09-23_10h28.53.477,test2,2022.2.4,59.89820360194903,
0,0,0,0,153,0,153,0,2680.662689504,2680.662689504,2680.662689504,2680.662689504,2680.662689504,2680.662689504,2680.662689504,1,1,azul,0,['N_A'],2682.9155891090004,2682.9155891090004,2682.9155891090004,2682.9155891090004,2684.934493844,2684.934493844,2684.934493844,2684.934493844,2684.934493844,2684.934493844,2684.934493844,2684.934493844,2686.9701923370003,2686.9701923370003,2686.9701923370003,2686.9701923370003,,,,,,,,,,,,,,,,,,,,,,,,,,,,,,,,,,,,,,,03,005,2022-09-23_10h28.53.477,test2,2022.2.4,59.89820360194903,
0,0,0,0,154,0,154,0,2686.9701923370003,2686.9701923370003,2686.9701923370003,2686.9701923370003,2686.9701923370003,2686.9701923370003,2686.9701923370003,1,1,rojo,1,['N_A'],2688.739407835,2688.739407835,2688.739407835,2688.739407835,2690.7745472670003,2690.7745472670003,2690.7745472670003,2690.7745472670003,2690.7745472670003,2690.7745472670003,2690.7745472670003,2690.7745472670003,2692.810109878,2692.810109878,2692.810109878,2692.810109878,,,,,,,,,,,,,,,,,,,,,,,,,,,,,,,,,,,,,,,03,005,2022-09-23_10h28.53.477,test2,2022.2.4,59.89820360194903,
0,0,0,0,155,0,155,0,2692.810109878,2692.810109878,2692.810109878,2692.810109878,2692.810109878,2692.810109878,2692.810109878,1,-1,rojo,0,['N_B'],2694.345000638,2694.345000638,2694.345000638,2694.345000638,2696.380933403,2696.380933403,2696.380933403,2696.380933403,2696.380933403,2696.380933403,2696.380933403,2696.380933403,2698.415871239,2698.415871239,2698.415871239,2698.415871239,,,,,,,,,,,,,,,,,,,,,,,,,,,,,,,,,,,,,,,03,005,2022-09-23_10h28.53.477,test2,2022.2.4,59.89820360194903,
0,0,0,0,156,0,156,0,2698.415871239,2698.415871239,2698.415871239,2698.415871239,2698.415871239,2698.415871239,2698.415871239,-1,-1,rojo,1,['N_B'],2700.31840663,2700.31840663,2700.31840663,2700.31840663,2702.353673758,2702.353673758,2702.353673758,2702.353673758,2702.353673758,2702.353673758,2702.353673758,2702.353673758,2704.3890575469995,2704.3890575469995,2704.3890575469995,2704.3890575469995,,,,,,,,,,,,,,,,,,,,,,,,,,,,,,,,,,,,,,,03,005,2022-09-23_10h28.53.477,test2,2022.2.4,59.89820360194903,
0,0,0,0,157,0,157,0,2704.3890575469995,2704.3890575469995,2704.3890575469995,2704.3890575469995,2704.3890575469995,2704.3890575469995,2704.3890575469995,1,1,azul,1,['N_B'],2706.9753939129996,2706.9753939129996,2706.9753939129996,2706.9753939129996,2709.0115192760004,2709.0115192760004,2709.0115192760004,2709.0115192760004,2709.0115192760004,2709.0115192760004,2709.0115192760004,2709.0115192760004,2711.0465411269997,2711.0465411269997,2711.0465411269997,2711.0465411269997,,,,,,,,,,,,,,,,,,,,,,,,,,,,,,,,,,,,,,,03,005,2022-09-23_10h28.53.477,test2,2022.2.4,59.89820360194903,
0,0,0,0,158,0,158,0,2711.0465411269997,2711.0465411269997,2711.0465411269997,2711.0465411269997,2711.0465411269997,2711.0465411269997,2711.0465411269997,-1,-1,rojo,1,['N_B'],2712.7155385570004,2712.7155385570004,2712.7155385570004,2712.7155385570004,2714.7504820739996,2714.7504820739996,2714.7504820739996,2714.7504820739996,2714.7504820739996,2714.7504820739996,2714.7504820739996,2714.7504820739996,2716.785921801,2716.785921801,2716.785921801,2716.785921801,,,,,,,,,,,,,,,,,,,,,,,,,,,,,,,,,,,,,,,03,005,2022-09-23_10h28.53.477,test2,2022.2.4,59.89820360194903,
0,0,0,0,159,0,159,0,2716.785921801,2716.785921801,2716.785921801,2716.785921801,2716.785921801,2716.785921801,2716.785921801,1,1,azul,0,['N_A'],2718.7054077820003,2718.7054077820003,2718.7054077820003,2718.7054077820003,2720.7410399909995,2720.7410399909995,2720.7410399909995,2720.7410399909995,2720.7410399909995,2720.7410399909995,2720.7410399909995,2720.7410399909995,2722.775922279,2722.775922279,2722.775922279,2722.775922279,,,,,,,,,,,,,,,,,,,,,,,,,,,,,,,,,,,,,,,03,005,2022-09-23_10h28.53.477,test2,2022.2.4,59.89820360194903,
0,0,0,0,160,0,160,0,2722.775922279,2722.775922279,2722.775922279,2722.775922279,2722.775922279,2722.775922279,2722.775922279,1,-1,rojo,0,['N_B'],2724.427889187,2724.427889187,2724.427889187,2724.427889187,2726.4643518149996,2726.4643518149996,2726.4643518149996,2726.4643518149996,2726.4643518149996,2726.4643518149996,2726.4643518149996,2726.4643518149996,2728.498962744,2728.498962744,2728.498962744,2728.498962744,,,,,,,,,,,,,,,,,,,,,,,,,,,,,,,,,,,,,,,03,005,2022-09-23_10h28.53.477,test2,2022.2.4,59.89820360194903,
0,0,0,0,161,0,161,0,2728.498962744,2728.498962744,2728.498962744,2728.498962744,2728.498962744,2728.498962744,2728.498962744,-1,1,rojo,1,['N_B'],2730.518530478,2730.518530478,2730.518530478,2730.518530478,2732.5363307569996,2732.5363307569996,2732.5363307569996,2732.5363307569996,2732.5363307569996,2732.5363307569996,2732.5363307569996,2732.5363307569996,2734.57244026,2734.57244026,2734.57244026,2734.57244026,,,,,,,,,,,,,,,,,,,,,,,,,,,,,,,,,,,,,,,03,005,2022-09-23_10h28.53.477,test2,2022.2.4,59.89820360194903,
0,0,0,0,162,0,162,0,2734.57244026,2734.57244026,2734.57244026,2734.57244026,2734.57244026,2734.57244026,2734.57244026,1,1,azul,0,['N_A'],2736.491377247,2736.491377247,2736.491377247,2736.491377247,2738.5267757909996,2738.5267757909996,2738.5267757909996,2738.5267757909996,2738.5267757909996,2738.5267757909996,2738.5267757909996,2738.5267757909996,2740.5624685579996,2740.5624685579996,2740.5624685579996,2740.5624685579996,,,,,,,,,,,,,,,,,,,,,,,,,,,,,,,,,,,,,,,03,005,2022-09-23_10h28.53.477,test2,2022.2.4,59.89820360194903,
0,0,0,0,163,0,163,0,2740.5624685579996,2740.5624685579996,2740.5624685579996,2740.5624685579996,2740.5624685579996,2740.5624685579996,2740.5624685579996,1,-1,rojo,1,['N_A'],2742.514800584,2742.514800584,2742.514800584,2742.514800584,2744.549663263,2744.549663263,2744.549663263,2744.549663263,2744.549663263,2744.549663263,2744.549663263,2744.549663263,2746.5856898519996,2746.5856898519996,2746.5856898519996,2746.5856898519996,,,,,,,,,,,,,,,,,,,,,,,,,,,,,,,,,,,,,,,03,005,2022-09-23_10h28.53.477,test2,2022.2.4,59.89820360194903,
0,0,0,0,164,0,164,0,2746.5856898519996,2746.5856898519996,2746.5856898519996,2746.5856898519996,2746.5856898519996,2746.5856898519996,2746.5856898519996,1,-1,rojo,1,['N_A'],2748.037248879,2748.037248879,2748.037248879,2748.037248879,2750.0726209819995,2750.0726209819995,2750.0726209819995,2750.0726209819995,2750.0726209819995,2750.0726209819995,2750.0726209819995,2750.0726209819995,2752.1082169479996,2752.1082169479996,2752.1082169479996,2752.1082169479996,,,,,,,,,,,,,,,,,,,,,,,,,,,,,,,,,,,,,,,03,005,2022-09-23_10h28.53.477,test2,2022.2.4,59.89820360194903,
0,0,0,0,165,0,165,0,2752.1082169479996,2752.1082169479996,2752.1082169479996,2752.1082169479996,2752.1082169479996,2752.1082169479996,2752.1082169479996,1,-1,rojo,1,['N_A'],2754.7118555509996,2754.7118555509996,2754.7118555509996,2754.7118555509996,2756.747591784,2756.747591784,2756.747591784,2756.747591784,2756.747591784,2756.747591784,2756.747591784,2756.747591784,2758.782266053,2758.782266053,2758.782266053,2758.782266053,,,,,,,,,,,,,,,,,,,,,,,,,,,,,,,,,,,,,,,03,005,2022-09-23_10h28.53.477,test2,2022.2.4,59.89820360194903,
0,0,0,0,166,0,166,0,2758.782266053,2758.782266053,2758.782266053,2758.782266053,2758.782266053,2758.782266053,2758.782266053,1,-1,rojo,0,['N_B'],2760.651062545,2760.651062545,2760.651062545,2760.651062545,2762.6865465089995,2762.6865465089995,2762.6865465089995,2762.6865465089995,2762.6865465089995,2762.6865465089995,2762.6865465089995,2762.6865465089995,2764.7223631589995,2764.7223631589995,2764.7223631589995,2764.7223631589995,,,,,,,,,,,,,,,,,,,,,,,,,,,,,,,,,,,,,,,03,005,2022-09-23_10h28.53.477,test2,2022.2.4,59.89820360194903,
0,0,0,0,167,0,167,0,2764.7223631589995,2764.7223631589995,2764.7223631589995,2764.7223631589995,2764.7223631589995,2764.7223631589995,2764.7223631589995,1,1,azul,0,['N_A'],2767.207944017,2767.207944017,2767.207944017,2767.207944017,2769.22722581,2769.22722581,2769.22722581,2769.22722581,2769.22722581,2769.22722581,2769.22722581,2769.22722581,2771.2624429939997,2771.2624429939997,2771.2624429939997,2771.2624429939997,,,,,,,,,,,,,,,,,,,,,,,,,,,,,,,,,,,,,,,03,005,2022-09-23_10h28.53.477,test2,2022.2.4,59.89820360194903,
0,0,0,0,168,0,168,0,2771.2624429939997,2771.2624429939997,2771.2624429939997,2771.2624429939997,2771.2624429939997,2771.2624429939997,2771.2624429939997,-1,1,azul,1,['N_A'],2773.2657944559996,2773.2657944559996,2773.2657944559996,2773.2657944559996,2775.2843543400004,2775.2843543400004,2775.2843543400004,2775.2843543400004,2775.2843543400004,2775.2843543400004,2775.2843543400004,2775.2843543400004,2777.319715816,2777.319715816,2777.319715816,2777.319715816,,,,,,,,,,,,,,,,,,,,,,,,,,,,,,,,,,,,,,,03,005,2022-09-23_10h28.53.477,test2,2022.2.4,59.89820360194903,
0,0,0,0,169,0,169,0,2777.319715816,2777.319715816,2777.319715816,2777.319715816,2777.319715816,2777.319715816,2777.319715816,1,1,rojo,0,['N_B'],2778.904409729,2778.904409729,2778.904409729,2778.904409729,2780.924100426,2780.924100426,2780.924100426,2780.924100426,2780.924100426,2780.924100426,2780.924100426,2780.924100426,2782.9591938470003,2782.9591938470003,2782.9591938470003,2782.9591938470003,,,,,,,,,,,,,,,,,,,,,,,,,,,,,,,,,,,,,,,03,005,2022-09-23_10h28.53.477,test2,2022.2.4,59.89820360194903,
0,0,0,0,170,0,170,0,2782.9591938470003,2782.9591938470003,2782.9591938470003,2782.9591938470003,2782.9591938470003,2782.9591938470003,2782.9591938470003,1,1,azul,1,['N_B'],2784.7437100409998,2784.7437100409998,2784.7437100409998,2784.7437100409998,2786.7796164929996,2786.7796164929996,2786.7796164929996,2786.7796164929996,2786.7796164929996,2786.7796164929996,2786.7796164929996,2786.7796164929996,2788.815405745,2788.815405745,2788.815405745,2788.815405745,,,,,,,,,,,,,,,,,,,,,,,,,,,,,,,,,,,,,,,03,005,2022-09-23_10h28.53.477,test2,2022.2.4,59.89820360194903,
0,0,0,0,171,0,171,0,2788.815405745,2788.815405745,2788.815405745,2788.815405745,2788.815405745,2788.815405745,2788.815405745,-1,-1,rojo,1,['N_B'],2790.500580271,2790.500580271,2790.500580271,2790.500580271,2792.536816342,2792.536816342,2792.536816342,2792.536816342,2792.536816342,2792.536816342,2792.536816342,2792.536816342,2794.5718716210004,2794.5718716210004,2794.5718716210004,2794.5718716210004,,,,,,,,,,,,,,,,,,,,,,,,,,,,,,,,,,,,,,,03,005,2022-09-23_10h28.53.477,test2,2022.2.4,59.89820360194903,
0,0,0,0,172,0,172,0,2794.5718716210004,2794.5718716210004,2794.5718716210004,2794.5718716210004,2794.5718716210004,2794.5718716210004,2794.5718716210004,1,1,azul,1,['N_B'],2796.241033583,2796.241033583,2796.241033583,2796.241033583,2798.2761396879996,2798.2761396879996,2798.2761396879996,2798.2761396879996,2798.2761396879996,2798.2761396879996,2798.2761396879996,2798.2761396879996,2800.3117149749996,2800.3117149749996,2800.3117149749996,2800.3117149749996,,,,,,,,,,,,,,,,,,,,,,,,,,,,,,,,,,,,,,,03,005,2022-09-23_10h28.53.477,test2,2022.2.4,59.89820360194903,
0,0,0,0,173,0,173,0,2800.3117149749996,2800.3117149749996,2800.3117149749996,2800.3117149749996,2800.3117149749996,2800.3117149749996,2800.3117149749996,-1,-1,rojo,1,['N_B'],2802.047442762,2802.047442762,2802.047442762,2802.047442762,2804.0827107249997,2804.0827107249997,2804.0827107249997,2804.0827107249997,2804.0827107249997,2804.0827107249997,2804.0827107249997,2804.0827107249997,2806.118602339,2806.118602339,2806.118602339,2806.118602339,,,,,,,,,,,,,,,,,,,,,,,,,,,,,,,,,,,,,,,03,005,2022-09-23_10h28.53.477,test2,2022.2.4,59.89820360194903,
0,0,0,0,174,0,174,0,2806.118602339,2806.118602339,2806.118602339,2806.118602339,2806.118602339,2806.118602339,2806.118602339,-1,-1,rojo,1,['N_B'],2807.5365930999997,2807.5365930999997,2807.5365930999997,2807.5365930999997,2809.571589737,2809.571589737,2809.571589737,2809.571589737,2809.571589737,2809.571589737,2809.571589737,2809.571589737,2811.6073007289997,2811.6073007289997,2811.6073007289997,2811.6073007289997,,,,,,,,,,,,,,,,,,,,,,,,,,,,,,,,,,,,,,,03,005,2022-09-23_10h28.53.477,test2,2022.2.4,59.89820360194903,
0,0,0,0,175,0,175,0,2811.6073007289997,2811.6073007289997,2811.6073007289997,2811.6073007289997,2811.6073007289997,2811.6073007289997,2811.6073007289997,-1,-1,rojo,1,['N_B'],2813.4263594370004,2813.4263594370004,2813.4263594370004,2813.4263594370004,2815.4621303229997,2815.4621303229997,2815.4621303229997,2815.4621303229997,2815.4621303229997,2815.4621303229997,2815.4621303229997,2815.4621303229997,2817.4979222009997,2817.4979222009997,2817.4979222009997,2817.4979222009997,,,,,,,,,,,,,,,,,,,,,,,,,,,,,,,,,,,,,,,03,005,2022-09-23_10h28.53.477,test2,2022.2.4,59.89820360194903,
0,0,0,0,176,0,176,0,2817.4979222009997,2817.4979222009997,2817.4979222009997,2817.4979222009997,2817.4979222009997,2817.4979222009997,2817.4979222009997,-1,1,rojo,1,['N_B'],2820.7172429459997,2820.7172429459997,2820.7172429459997,2820.7172429459997,2822.7353955050003,2822.7353955050003,2822.7353955050003,2822.7353955050003,2822.7353955050003,2822.7353955050003,2822.7353955050003,2822.7353955050003,2824.7717742610002,2824.7717742610002,2824.7717742610002,2824.7717742610002,,,,,,,,,,,,,,,,,,,,,,,,,,,,,,,,,,,,,,,03,005,2022-09-23_10h28.53.477,test2,2022.2.4,59.89820360194903,
0,0,0,0,177,0,177,0,2824.7717742610002,2824.7717742610002,2824.7717742610002,2824.7717742610002,2824.7717742610002,2824.7717742610002,2824.7717742610002,1,1,azul,1,['N_B'],2826.6408735450004,2826.6408735450004,2826.6408735450004,2826.6408735450004,2828.677066526,2828.677066526,2828.677066526,2828.677066526,2828.677066526,2828.677066526,2828.677066526,2828.677066526,2830.712074418,2830.712074418,2830.712074418,2830.712074418,,,,,,,,,,,,,,,,,,,,,,,,,,,,,,,,,,,,,,,03,005,2022-09-23_10h28.53.477,test2,2022.2.4,59.89820360194903,
0,0,0,0,178,0,178,0,2830.712074418,2830.712074418,2830.712074418,2830.712074418,2830.712074418,2830.712074418,2830.712074418,-1,-1,rojo,0,['N_A'],2832.163226036,2832.163226036,2832.163226036,2832.163226036,2834.199325486,2834.199325486,2834.199325486,2834.199325486,2834.199325486,2834.199325486,2834.199325486,2834.199325486,2836.234805588,2836.234805588,2836.234805588,2836.234805588,,,,,,,,,,,,,,,,,,,,,,,,,,,,,,,,,,,,,,,03,005,2022-09-23_10h28.53.477,test2,2022.2.4,59.89820360194903,
0,0,0,0,179,0,179,0,2836.234805588,2836.234805588,2836.234805588,2836.234805588,2836.234805588,2836.234805588,2836.234805588,-1,-1,azul,1,['N_A'],2837.9029562610003,2837.9029562610003,2837.9029562610003,2837.9029562610003,2839.939018027,2839.939018027,2839.939018027,2839.939018027,2839.939018027,2839.939018027,2839.939018027,2839.939018027,2841.9743463980003,2841.9743463980003,2841.9743463980003,2841.9743463980003,,,,,,,,,,,,,,,,,,,,,,,,,,,,,,,,,,,,,,,03,005,2022-09-23_10h28.53.477,test2,2022.2.4,59.89820360194903,
0,0,0,0,180,0,180,0,2841.9743463980003,2841.9743463980003,2841.9743463980003,2841.9743463980003,2841.9743463980003,2841.9743463980003,2841.9743463980003,1,-1,rojo,1,['N_A'],2843.5928958269997,2843.5928958269997,2843.5928958269997,2843.5928958269997,2845.628663171,2845.628663171,2845.628663171,2845.628663171,2845.628663171,2845.628663171,2845.628663171,2845.628663171,2847.663667819,2847.663667819,2847.663667819,2847.663667819,,,,,,,,,,,,,,,,,,,,,,,,,,,,,,,,,,,,,,,03,005,2022-09-23_10h28.53.477,test2,2022.2.4,59.89820360194903,
0,0,0,0,181,0,181,0,2847.663667819,2847.663667819,2847.663667819,2847.663667819,2847.663667819,2847.663667819,2847.663667819,-1,1,azul,1,['N_A'],2849.249077869,2849.249077869,2849.249077869,2849.249077869,2851.284597709,2851.284597709,2851.284597709,2851.284597709,2851.284597709,2851.284597709,2851.284597709,2851.284597709,2853.319819651,2853.319819651,2853.319819651,2853.319819651,,,,,,,,,,,,,,,,,,,,,,,,,,,,,,,,,,,,,,,03,005,2022-09-23_10h28.53.477,test2,2022.2.4,59.89820360194903,
0,0,0,0,182,0,182,0,2853.319819651,2853.319819651,2853.319819651,2853.319819651,2853.319819651,2853.319819651,2853.319819651,1,-1,rojo,0,['N_B'],2854.9058965900003,2854.9058965900003,2854.9058965900003,2854.9058965900003,2856.9411913860004,2856.9411913860004,2856.9411913860004,2856.9411913860004,2856.9411913860004,2856.9411913860004,2856.9411913860004,2856.9411913860004,2858.976559513,2858.976559513,2858.976559513,2858.976559513,,,,,,,,,,,,,,,,,,,,,,,,,,,,,,,,,,,,,,,03,005,2022-09-23_10h28.53.477,test2,2022.2.4,59.89820360194903,
0,0,0,0,183,0,183,0,2858.976559513,2858.976559513,2858.976559513,2858.976559513,2858.976559513,2858.976559513,2858.976559513,1,1,azul,1,['N_B'],2860.5616114080003,2860.5616114080003,2860.5616114080003,2860.5616114080003,2862.5810526019995,2862.5810526019995,2862.5810526019995,2862.5810526019995,2862.5810526019995,2862.5810526019995,2862.5810526019995,2862.5810526019995,2864.615804401,2864.615804401,2864.615804401,2864.615804401,,,,,,,,,,,,,,,,,,,,,,,,,,,,,,,,,,,,,,,03,005,2022-09-23_10h28.53.477,test2,2022.2.4,59.89820360194903,
0,0,0,0,184,0,184,0,2864.615804401,2864.615804401,2864.615804401,2864.615804401,2864.615804401,2864.615804401,2864.615804401,1,1,azul,1,['N_B'],2866.500981262,2866.500981262,2866.500981262,2866.500981262,2868.5366114400003,2868.5366114400003,2868.5366114400003,2868.5366114400003,2868.5366114400003,2868.5366114400003,2868.5366114400003,2868.5366114400003,2870.5729555489997,2870.5729555489997,2870.5729555489997,2870.5729555489997,,,,,,,,,,,,,,,,,,,,,,,,,,,,,,,,,,,,,,,03,005,2022-09-23_10h28.53.477,test2,2022.2.4,59.89820360194903,
0,0,0,0,185,0,185,0,2870.5729555489997,2870.5729555489997,2870.5729555489997,2870.5729555489997,2870.5729555489997,2870.5729555489997,2870.5729555489997,-1,-1,rojo,0,['N_A'],2875.061167965,2875.061167965,2875.061167965,2875.061167965,2877.0970511080004,2877.0970511080004,2877.0970511080004,2877.0970511080004,2877.0970511080004,2877.0970511080004,2877.0970511080004,2877.0970511080004,2879.1319687289997,2879.1319687289997,2879.1319687289997,2879.1319687289997,,,,,,,,,,,,,,,,,,,,,,,,,,,,,,,,,,,,,,,03,005,2022-09-23_10h28.53.477,test2,2022.2.4,59.89820360194903,
