trials_2.thisRepN,trials_2.thisTrialN,trials_2.thisN,trials_2.thisIndex,trials.thisRepN,trials.thisTrialN,trials.thisN,trials.thisIndex,Instrucción2.started,N_A_4.started,N_B_4.started,Exitos_3.started,Dias_3.started,Stimuli_1.started,Stimuli_2.started,Transitions,Rewards,Mode,Stay,Neighbour,Stimuli_3.started,Modo.started,Dias2.started,Exitos2.started,Stimuli_3.stopped,Modo.stopped,Dias2.stopped,Exitos2.stopped,Reward.started,Stimuli_reward.started,Exitos3.started,Dias3.started,Reward.stopped,Stimuli_reward.stopped,Exitos3.stopped,Dias3.stopped,Cue_text.started,Stimuli_4.started,Exitos4.started,Dias4.started,Stimuli_3_3.started,Stimuli_2_3.started,Instrucción.started,N_A.started,N_B.started,N_C.started,Exitos_2.started,Dias_2.started,Stimuli_1_3.started,Stimuli_3_2.started,Stimuli_2_2.started,Pregunta.started,N_A_2.started,N_B_2.started,N_C_2.started,Exitos5.started,Dias5.started,Stimuli_1_2.started,Resp_final_1,Modo2.started,Modo1.started,Pregunta_4.started,Modo3.started,Exitos7.started,Dias6.started,Resp_final_2,Modo1_2.started,Pregunta_3.started,Modo2_2.started,Exitos8.started,Dias7.started,Resp_final_3,Mensaje_Final2.started,Exitos6.started,participant,session,date,expName,psychopyVersion,frameRate,
0,0,0,0,0,0,0,0,527.0870478919999,527.0870478919999,527.0870478919999,527.0870478919999,527.0870478919999,527.0870478919999,527.0870478919999,0,0,0,0,['N_A'],541.887279178,541.887279178,541.887279178,541.887279178,543.9563071149998,543.9563071149998,543.9563071149998,543.9563071149998,543.9563071149998,543.9563071149998,543.9563071149998,543.9563071149998,545.9922324709999,545.9922324709999,545.9922324709999,545.9922324709999,,,,,,,,,,,,,,,,,,,,,,,,,,,,,,,,,,,,,,,03,011,2022-09-27_09h06.40.007,test2,2022.2.4,59.94492799523171,
0,0,0,0,1,0,1,0,545.9922324709999,545.9922324709999,545.9922324709999,545.9922324709999,545.9922324709999,545.9922324709999,545.9922324709999,1,-1,rojo,1,['N_A'],552.649674801,552.649674801,552.649674801,552.649674801,554.6851063070001,554.6851063070001,554.6851063070001,554.6851063070001,554.6851063070001,554.6851063070001,554.6851063070001,554.6851063070001,556.7205730539999,556.7205730539999,556.7205730539999,556.7205730539999,,,,,,,,,,,,,,,,,,,,,,,,,,,,,,,,,,,,,,,03,011,2022-09-27_09h06.40.007,test2,2022.2.4,59.94492799523171,
0,0,0,0,2,0,2,0,556.7205730539999,556.7205730539999,556.7205730539999,556.7205730539999,556.7205730539999,556.7205730539999,556.7205730539999,1,-1,rojo,0,['N_B'],560.9093155579999,560.9093155579999,560.9093155579999,560.9093155579999,562.9446274879999,562.9446274879999,562.9446274879999,562.9446274879999,562.9446274879999,562.9446274879999,562.9446274879999,562.9446274879999,564.980705277,564.980705277,564.980705277,564.980705277,,,,,,,,,,,,,,,,,,,,,,,,,,,,,,,,,,,,,,,03,011,2022-09-27_09h06.40.007,test2,2022.2.4,59.94492799523171,
0,0,0,0,3,0,3,0,564.980705277,564.980705277,564.980705277,564.980705277,564.980705277,564.980705277,564.980705277,1,-1,azul,1,['N_B'],569.935790946,569.935790946,569.935790946,569.935790946,571.9704939169999,571.9704939169999,571.9704939169999,571.9704939169999,571.9704939169999,571.9704939169999,571.9704939169999,571.9704939169999,574.0066002169999,574.0066002169999,574.0066002169999,574.0066002169999,,,,,,,,,,,,,,,,,,,,,,,,,,,,,,,,,,,,,,,03,011,2022-09-27_09h06.40.007,test2,2022.2.4,59.94492799523171,
0,0,0,0,4,0,4,0,574.0066002169999,574.0066002169999,574.0066002169999,574.0066002169999,574.0066002169999,574.0066002169999,574.0066002169999,1,-1,azul,0,['N_A'],583.2503394400001,583.2503394400001,583.2503394400001,583.2503394400001,585.3358075019999,585.3358075019999,585.3358075019999,585.3358075019999,585.3358075019999,585.3358075019999,585.3358075019999,585.3358075019999,587.3712768539999,587.3712768539999,587.3712768539999,587.3712768539999,,,,,,,,,,,,,,,,,,,,,,,,,,,,,,,,,,,,,,,03,011,2022-09-27_09h06.40.007,test2,2022.2.4,59.94492799523171,
0,0,0,0,5,0,5,0,587.3712768539999,587.3712768539999,587.3712768539999,587.3712768539999,587.3712768539999,587.3712768539999,587.3712768539999,-1,1,azul,1,['N_A'],589.7569472329999,589.7569472329999,589.7569472329999,589.7569472329999,591.7934130839999,591.7934130839999,591.7934130839999,591.7934130839999,591.7934130839999,591.7934130839999,591.7934130839999,591.7934130839999,593.828781118,593.828781118,593.828781118,593.828781118,,,,,,,,,,,,,,,,,,,,,,,,,,,,,,,,,,,,,,,03,011,2022-09-27_09h06.40.007,test2,2022.2.4,59.94492799523171,
0,0,0,0,6,0,6,0,593.828781118,593.828781118,593.828781118,593.828781118,593.828781118,593.828781118,593.828781118,1,-1,rojo,1,['N_A'],595.814441899,595.814441899,595.814441899,595.814441899,597.8495902939999,597.8495902939999,597.8495902939999,597.8495902939999,597.8495902939999,597.8495902939999,597.8495902939999,597.8495902939999,599.8852870430001,599.8852870430001,599.8852870430001,599.8852870430001,,,,,,,,,,,,,,,,,,,,,,,,,,,,,,,,,,,,,,,03,011,2022-09-27_09h06.40.007,test2,2022.2.4,59.94492799523171,
0,0,0,0,7,0,7,0,599.8852870430001,599.8852870430001,599.8852870430001,599.8852870430001,599.8852870430001,599.8852870430001,599.8852870430001,1,-1,rojo,1,['N_A'],601.7372152529999,601.7372152529999,601.7372152529999,601.7372152529999,603.7731460779999,603.7731460779999,603.7731460779999,603.7731460779999,603.7731460779999,603.7731460779999,603.7731460779999,603.7731460779999,605.808471587,605.808471587,605.808471587,605.808471587,,,,,,,,,,,,,,,,,,,,,,,,,,,,,,,,,,,,,,,03,011,2022-09-27_09h06.40.007,test2,2022.2.4,59.94492799523171,
0,0,0,0,8,0,8,0,605.808471587,605.808471587,605.808471587,605.808471587,605.808471587,605.808471587,605.808471587,1,-1,rojo,0,['N_B'],609.395601902,609.395601902,609.395601902,609.395601902,611.431588398,611.431588398,611.431588398,611.431588398,611.431588398,611.431588398,611.431588398,611.431588398,613.4669667149999,613.4669667149999,613.4669667149999,613.4669667149999,,,,,,,,,,,,,,,,,,,,,,,,,,,,,,,,,,,,,,,03,011,2022-09-27_09h06.40.007,test2,2022.2.4,59.94492799523171,
0,0,0,0,9,0,9,0,613.4669667149999,613.4669667149999,613.4669667149999,613.4669667149999,613.4669667149999,613.4669667149999,613.4669667149999,-1,1,rojo,1,['N_B'],615.652543677,615.652543677,615.652543677,615.652543677,617.6879731249999,617.6879731249999,617.6879731249999,617.6879731249999,617.6879731249999,617.6879731249999,617.6879731249999,617.6879731249999,619.723345829,619.723345829,619.723345829,619.723345829,,,,,,,,,,,,,,,,,,,,,,,,,,,,,,,,,,,,,,,03,011,2022-09-27_09h06.40.007,test2,2022.2.4,59.94492799523171,
0,0,0,0,10,0,10,0,619.723345829,619.723345829,619.723345829,619.723345829,619.723345829,619.723345829,619.723345829,1,-1,azul,1,['N_B'],621.459615601,621.459615601,621.459615601,621.459615601,623.494096655,623.494096655,623.494096655,623.494096655,623.494096655,623.494096655,623.494096655,623.494096655,625.5306081819999,625.5306081819999,625.5306081819999,625.5306081819999,,,,,,,,,,,,,,,,,,,,,,,,,,,,,,,,,,,,,,,03,011,2022-09-27_09h06.40.007,test2,2022.2.4,59.94492799523171,
0,0,0,0,11,0,11,0,625.5306081819999,625.5306081819999,625.5306081819999,625.5306081819999,625.5306081819999,625.5306081819999,625.5306081819999,1,1,azul,1,['N_B'],629.2513979119999,629.2513979119999,629.2513979119999,629.2513979119999,631.286297115,631.286297115,631.286297115,631.286297115,631.286297115,631.286297115,631.286297115,631.286297115,633.322426511,633.322426511,633.322426511,633.322426511,,,,,,,,,,,,,,,,,,,,,,,,,,,,,,,,,,,,,,,03,011,2022-09-27_09h06.40.007,test2,2022.2.4,59.94492799523171,
0,0,0,0,12,0,12,0,633.322426511,633.322426511,633.322426511,633.322426511,633.322426511,633.322426511,633.322426511,1,-1,azul,1,['N_B'],634.807249185,634.807249185,634.807249185,634.807249185,636.842664512,636.842664512,636.842664512,636.842664512,636.842664512,636.842664512,636.842664512,636.842664512,638.877925837,638.877925837,638.877925837,638.877925837,,,,,,,,,,,,,,,,,,,,,,,,,,,,,,,,,,,,,,,03,011,2022-09-27_09h06.40.007,test2,2022.2.4,59.94492799523171,
0,0,0,0,13,0,13,0,638.877925837,638.877925837,638.877925837,638.877925837,638.877925837,638.877925837,638.877925837,1,1,azul,0,['N_A'],642.665799306,642.665799306,642.665799306,642.665799306,644.7012533079999,644.7012533079999,644.7012533079999,644.7012533079999,644.7012533079999,644.7012533079999,644.7012533079999,644.7012533079999,646.7374981139999,646.7374981139999,646.7374981139999,646.7374981139999,,,,,,,,,,,,,,,,,,,,,,,,,,,,,,,,,,,,,,,03,011,2022-09-27_09h06.40.007,test2,2022.2.4,59.94492799523171,
0,0,0,0,14,0,14,0,646.7374981139999,646.7374981139999,646.7374981139999,646.7374981139999,646.7374981139999,646.7374981139999,646.7374981139999,-1,-1,azul,0,['N_B'],648.155794901,648.155794901,648.155794901,648.155794901,650.190378255,650.190378255,650.190378255,650.190378255,650.190378255,650.190378255,650.190378255,650.190378255,652.2266987620001,652.2266987620001,652.2266987620001,652.2266987620001,,,,,,,,,,,,,,,,,,,,,,,,,,,,,,,,,,,,,,,03,011,2022-09-27_09h06.40.007,test2,2022.2.4,59.94492799523171,
0,0,0,0,15,0,15,0,652.2266987620001,652.2266987620001,652.2266987620001,652.2266987620001,652.2266987620001,652.2266987620001,652.2266987620001,-1,1,rojo,1,['N_B'],655.346341494,655.346341494,655.346341494,655.346341494,657.366069488,657.366069488,657.366069488,657.366069488,657.366069488,657.366069488,657.366069488,657.366069488,659.400556132,659.400556132,659.400556132,659.400556132,,,,,,,,,,,,,,,,,,,,,,,,,,,,,,,,,,,,,,,03,011,2022-09-27_09h06.40.007,test2,2022.2.4,59.94492799523171,
0,0,0,0,16,0,16,0,659.400556132,659.400556132,659.400556132,659.400556132,659.400556132,659.400556132,659.400556132,1,1,azul,1,['N_B'],662.3544212029999,662.3544212029999,662.3544212029999,662.3544212029999,664.3892447000001,664.3892447000001,664.3892447000001,664.3892447000001,664.3892447000001,664.3892447000001,664.3892447000001,664.3892447000001,666.4260338439999,666.4260338439999,666.4260338439999,666.4260338439999,,,,,,,,,,,,,,,,,,,,,,,,,,,,,,,,,,,,,,,03,011,2022-09-27_09h06.40.007,test2,2022.2.4,59.94492799523171,
0,0,0,0,17,0,17,0,666.4260338439999,666.4260338439999,666.4260338439999,666.4260338439999,666.4260338439999,666.4260338439999,666.4260338439999,-1,-1,rojo,1,['N_B'],668.644751022,668.644751022,668.644751022,668.644751022,670.6806060209999,670.6806060209999,670.6806060209999,670.6806060209999,670.6806060209999,670.6806060209999,670.6806060209999,670.6806060209999,672.71654979,672.71654979,672.71654979,672.71654979,,,,,,,,,,,,,,,,,,,,,,,,,,,,,,,,,,,,,,,03,011,2022-09-27_09h06.40.007,test2,2022.2.4,59.94492799523171,
0,0,0,0,18,0,18,0,672.71654979,672.71654979,672.71654979,672.71654979,672.71654979,672.71654979,672.71654979,1,1,azul,1,['N_B'],677.638142908,677.638142908,677.638142908,677.638142908,679.673927546,679.673927546,679.673927546,679.673927546,679.673927546,679.673927546,679.673927546,679.673927546,681.7087700269999,681.7087700269999,681.7087700269999,681.7087700269999,,,,,,,,,,,,,,,,,,,,,,,,,,,,,,,,,,,,,,,03,011,2022-09-27_09h06.40.007,test2,2022.2.4,59.94492799523171,
0,0,0,0,19,0,19,0,681.7087700269999,681.7087700269999,681.7087700269999,681.7087700269999,681.7087700269999,681.7087700269999,681.7087700269999,1,-1,azul,1,['N_B'],683.8942809339999,683.8942809339999,683.8942809339999,683.8942809339999,685.929975757,685.929975757,685.929975757,685.929975757,685.929975757,685.929975757,685.929975757,685.929975757,687.965443633,687.965443633,687.965443633,687.965443633,,,,,,,,,,,,,,,,,,,,,,,,,,,,,,,,,,,,,,,03,011,2022-09-27_09h06.40.007,test2,2022.2.4,59.94492799523171,
0,0,0,0,20,0,20,0,687.965443633,687.965443633,687.965443633,687.965443633,687.965443633,687.965443633,687.965443633,1,-1,azul,1,['N_B'],689.6847208259999,689.6847208259999,689.6847208259999,689.6847208259999,691.719654985,691.719654985,691.719654985,691.719654985,691.719654985,691.719654985,691.719654985,691.719654985,693.755214561,693.755214561,693.755214561,693.755214561,,,,,,,,,,,,,,,,,,,,,,,,,,,,,,,,,,,,,,,03,011,2022-09-27_09h06.40.007,test2,2022.2.4,59.94492799523171,
0,0,0,0,21,0,21,0,693.755214561,693.755214561,693.755214561,693.755214561,693.755214561,693.755214561,693.755214561,1,-1,azul,0,['N_A'],695.224016568,695.224016568,695.224016568,695.224016568,697.2597028119999,697.2597028119999,697.2597028119999,697.2597028119999,697.2597028119999,697.2597028119999,697.2597028119999,697.2597028119999,699.2951735249999,699.2951735249999,699.2951735249999,699.2951735249999,,,,,,,,,,,,,,,,,,,,,,,,,,,,,,,,,,,,,,,03,011,2022-09-27_09h06.40.007,test2,2022.2.4,59.94492799523171,
0,0,0,0,22,0,22,0,699.2951735249999,699.2951735249999,699.2951735249999,699.2951735249999,699.2951735249999,699.2951735249999,699.2951735249999,1,-1,rojo,1,['N_A'],702.9492938799999,702.9492938799999,702.9492938799999,702.9492938799999,704.9846436089999,704.9846436089999,704.9846436089999,704.9846436089999,704.9846436089999,704.9846436089999,704.9846436089999,704.9846436089999,707.0205150419999,707.0205150419999,707.0205150419999,707.0205150419999,,,,,,,,,,,,,,,,,,,,,,,,,,,,,,,,,,,,,,,03,011,2022-09-27_09h06.40.007,test2,2022.2.4,59.94492799523171,
0,0,0,0,23,0,23,0,707.0205150419999,707.0205150419999,707.0205150419999,707.0205150419999,707.0205150419999,707.0205150419999,707.0205150419999,1,-1,rojo,1,['N_A'],709.372795948,709.372795948,709.372795948,709.372795948,711.4073786199999,711.4073786199999,711.4073786199999,711.4073786199999,711.4073786199999,711.4073786199999,711.4073786199999,711.4073786199999,713.4440433899999,713.4440433899999,713.4440433899999,713.4440433899999,,,,,,,,,,,,,,,,,,,,,,,,,,,,,,,,,,,,,,,03,011,2022-09-27_09h06.40.007,test2,2022.2.4,59.94492799523171,
0,0,0,0,24,0,24,0,713.4440433899999,713.4440433899999,713.4440433899999,713.4440433899999,713.4440433899999,713.4440433899999,713.4440433899999,1,-1,rojo,1,['N_A'],715.462651732,715.462651732,715.462651732,715.462651732,717.4980001649999,717.4980001649999,717.4980001649999,717.4980001649999,717.4980001649999,717.4980001649999,717.4980001649999,717.4980001649999,719.5339709299999,719.5339709299999,719.5339709299999,719.5339709299999,,,,,,,,,,,,,,,,,,,,,,,,,,,,,,,,,,,,,,,03,011,2022-09-27_09h06.40.007,test2,2022.2.4,59.94492799523171,
0,0,0,0,25,0,25,0,719.5339709299999,719.5339709299999,719.5339709299999,719.5339709299999,719.5339709299999,719.5339709299999,719.5339709299999,1,1,rojo,1,['N_A'],722.2370145759999,722.2370145759999,722.2370145759999,722.2370145759999,724.2722777659999,724.2722777659999,724.2722777659999,724.2722777659999,724.2722777659999,724.2722777659999,724.2722777659999,724.2722777659999,726.3075559399999,726.3075559399999,726.3075559399999,726.3075559399999,,,,,,,,,,,,,,,,,,,,,,,,,,,,,,,,,,,,,,,03,011,2022-09-27_09h06.40.007,test2,2022.2.4,59.94492799523171,
0,0,0,0,26,0,26,0,726.3075559399999,726.3075559399999,726.3075559399999,726.3075559399999,726.3075559399999,726.3075559399999,726.3075559399999,-1,-1,azul,1,['N_A'],728.160360698,728.160360698,728.160360698,728.160360698,730.195730309,730.195730309,730.195730309,730.195730309,730.195730309,730.195730309,730.195730309,730.195730309,732.2312417969999,732.2312417969999,732.2312417969999,732.2312417969999,,,,,,,,,,,,,,,,,,,,,,,,,,,,,,,,,,,,,,,03,011,2022-09-27_09h06.40.007,test2,2022.2.4,59.94492799523171,
0,0,0,0,27,0,27,0,732.2312417969999,732.2312417969999,732.2312417969999,732.2312417969999,732.2312417969999,732.2312417969999,732.2312417969999,1,-1,rojo,1,['N_A'],736.569051469,736.569051469,736.569051469,736.569051469,738.6050659059999,738.6050659059999,738.6050659059999,738.6050659059999,738.6050659059999,738.6050659059999,738.6050659059999,738.6050659059999,740.640062917,740.640062917,740.640062917,740.640062917,,,,,,,,,,,,,,,,,,,,,,,,,,,,,,,,,,,,,,,03,011,2022-09-27_09h06.40.007,test2,2022.2.4,59.94492799523171,
0,0,0,0,28,0,28,0,740.640062917,740.640062917,740.640062917,740.640062917,740.640062917,740.640062917,740.640062917,1,1,rojo,1,['N_A'],742.92610975,742.92610975,742.92610975,742.92610975,744.962407898,744.962407898,744.962407898,744.962407898,744.962407898,744.962407898,744.962407898,744.962407898,746.9972651420001,746.9972651420001,746.9972651420001,746.9972651420001,,,,,,,,,,,,,,,,,,,,,,,,,,,,,,,,,,,,,,,03,011,2022-09-27_09h06.40.007,test2,2022.2.4,59.94492799523171,
0,0,0,0,29,0,29,0,746.9972651420001,746.9972651420001,746.9972651420001,746.9972651420001,746.9972651420001,746.9972651420001,746.9972651420001,-1,-1,azul,1,['N_A'],748.8498768100001,748.8498768100001,748.8498768100001,748.8498768100001,750.884894173,750.884894173,750.884894173,750.884894173,750.884894173,750.884894173,750.884894173,750.884894173,752.920892441,752.920892441,752.920892441,752.920892441,,,,,,,,,,,,,,,,,,,,,,,,,,,,,,,,,,,,,,,03,011,2022-09-27_09h06.40.007,test2,2022.2.4,59.94492799523171,
0,0,0,0,30,0,30,0,752.920892441,752.920892441,752.920892441,752.920892441,752.920892441,752.920892441,752.920892441,1,1,rojo,1,['N_A'],758.4433999139999,758.4433999139999,758.4433999139999,758.4433999139999,760.461814256,760.461814256,760.461814256,760.461814256,760.461814256,760.461814256,760.461814256,760.461814256,762.498198536,762.498198536,762.498198536,762.498198536,,,,,,,,,,,,,,,,,,,,,,,,,,,,,,,,,,,,,,,03,011,2022-09-27_09h06.40.007,test2,2022.2.4,59.94492799523171,
0,0,0,0,31,0,31,0,762.498198536,762.498198536,762.498198536,762.498198536,762.498198536,762.498198536,762.498198536,1,1,rojo,1,['N_A'],765.5183670270001,765.5183670270001,765.5183670270001,765.5183670270001,767.5537928419999,767.5537928419999,767.5537928419999,767.5537928419999,767.5537928419999,767.5537928419999,767.5537928419999,767.5537928419999,769.5891424029999,769.5891424029999,769.5891424029999,769.5891424029999,,,,,,,,,,,,,,,,,,,,,,,,,,,,,,,,,,,,,,,03,011,2022-09-27_09h06.40.007,test2,2022.2.4,59.94492799523171,
0,0,0,0,32,0,32,0,769.5891424029999,769.5891424029999,769.5891424029999,769.5891424029999,769.5891424029999,769.5891424029999,769.5891424029999,1,-1,rojo,1,['N_A'],778.9161416489999,778.9161416489999,778.9161416489999,778.9161416489999,780.951401645,780.951401645,780.951401645,780.951401645,780.951401645,780.951401645,780.951401645,780.951401645,782.9871540649999,782.9871540649999,782.9871540649999,782.9871540649999,,,,,,,,,,,,,,,,,,,,,,,,,,,,,,,,,,,,,,,03,011,2022-09-27_09h06.40.007,test2,2022.2.4,59.94492799523171,
0,0,0,0,33,0,33,0,782.9871540649999,782.9871540649999,782.9871540649999,782.9871540649999,782.9871540649999,782.9871540649999,782.9871540649999,1,1,rojo,1,['N_A'],786.674768672,786.674768672,786.674768672,786.674768672,788.7105337739999,788.7105337739999,788.7105337739999,788.7105337739999,788.7105337739999,788.7105337739999,788.7105337739999,788.7105337739999,790.745609843,790.745609843,790.745609843,790.745609843,,,,,,,,,,,,,,,,,,,,,,,,,,,,,,,,,,,,,,,03,011,2022-09-27_09h06.40.007,test2,2022.2.4,59.94492799523171,
0,0,0,0,34,0,34,0,790.745609843,790.745609843,790.745609843,790.745609843,790.745609843,790.745609843,790.745609843,1,-1,rojo,1,['N_A'],792.1971458829998,792.1971458829998,792.1971458829998,792.1971458829998,794.233217724,794.233217724,794.233217724,794.233217724,794.233217724,794.233217724,794.233217724,794.233217724,796.2690047229999,796.2690047229999,796.2690047229999,796.2690047229999,,,,,,,,,,,,,,,,,,,,,,,,,,,,,,,,,,,,,,,03,011,2022-09-27_09h06.40.007,test2,2022.2.4,59.94492799523171,
0,0,0,0,35,0,35,0,796.2690047229999,796.2690047229999,796.2690047229999,796.2690047229999,796.2690047229999,796.2690047229999,796.2690047229999,1,-1,rojo,1,['N_A'],798.154441786,798.154441786,798.154441786,798.154441786,800.189287835,800.189287835,800.189287835,800.189287835,800.189287835,800.189287835,800.189287835,800.189287835,802.225242518,802.225242518,802.225242518,802.225242518,,,,,,,,,,,,,,,,,,,,,,,,,,,,,,,,,,,,,,,03,011,2022-09-27_09h06.40.007,test2,2022.2.4,59.94492799523171,
0,0,0,0,36,0,36,0,802.225242518,802.225242518,802.225242518,802.225242518,802.225242518,802.225242518,802.225242518,1,-1,rojo,0,['N_B'],804.7614286759999,804.7614286759999,804.7614286759999,804.7614286759999,806.797075485,806.797075485,806.797075485,806.797075485,806.797075485,806.797075485,806.797075485,806.797075485,808.832407717,808.832407717,808.832407717,808.832407717,,,,,,,,,,,,,,,,,,,,,,,,,,,,,,,,,,,,,,,03,011,2022-09-27_09h06.40.007,test2,2022.2.4,59.94492799523171,
0,0,0,0,37,0,37,0,808.832407717,808.832407717,808.832407717,808.832407717,808.832407717,808.832407717,808.832407717,1,-1,azul,1,['N_B'],811.3856813559998,811.3856813559998,811.3856813559998,811.3856813559998,813.4212337920001,813.4212337920001,813.4212337920001,813.4212337920001,813.4212337920001,813.4212337920001,813.4212337920001,813.4212337920001,815.4569310879999,815.4569310879999,815.4569310879999,815.4569310879999,,,,,,,,,,,,,,,,,,,,,,,,,,,,,,,,,,,,,,,03,011,2022-09-27_09h06.40.007,test2,2022.2.4,59.94492799523171,
0,0,0,0,38,0,38,0,815.4569310879999,815.4569310879999,815.4569310879999,815.4569310879999,815.4569310879999,815.4569310879999,815.4569310879999,1,1,azul,1,['N_B'],816.907827217,816.907827217,816.907827217,816.907827217,818.943821157,818.943821157,818.943821157,818.943821157,818.943821157,818.943821157,818.943821157,818.943821157,820.9794887840001,820.9794887840001,820.9794887840001,820.9794887840001,,,,,,,,,,,,,,,,,,,,,,,,,,,,,,,,,,,,,,,03,011,2022-09-27_09h06.40.007,test2,2022.2.4,59.94492799523171,
0,0,0,0,39,0,39,0,820.9794887840001,820.9794887840001,820.9794887840001,820.9794887840001,820.9794887840001,820.9794887840001,820.9794887840001,-1,-1,rojo,1,['N_B'],822.6313801609999,822.6313801609999,822.6313801609999,822.6313801609999,824.6667395909999,824.6667395909999,824.6667395909999,824.6667395909999,824.6667395909999,824.6667395909999,824.6667395909999,824.6667395909999,826.7025813610001,826.7025813610001,826.7025813610001,826.7025813610001,,,,,,,,,,,,,,,,,,,,,,,,,,,,,,,,,,,,,,,03,011,2022-09-27_09h06.40.007,test2,2022.2.4,59.94492799523171,
0,0,0,0,40,0,40,0,826.7025813610001,826.7025813610001,826.7025813610001,826.7025813610001,826.7025813610001,826.7025813610001,826.7025813610001,-1,1,rojo,1,['N_B'],828.286860019,828.286860019,828.286860019,828.286860019,830.323384328,830.323384328,830.323384328,830.323384328,830.323384328,830.323384328,830.323384328,830.323384328,832.358747769,832.358747769,832.358747769,832.358747769,,,,,,,,,,,,,,,,,,,,,,,,,,,,,,,,,,,,,,,03,011,2022-09-27_09h06.40.007,test2,2022.2.4,59.94492799523171,
0,0,0,0,41,0,41,0,832.358747769,832.358747769,832.358747769,832.358747769,832.358747769,832.358747769,832.358747769,1,-1,azul,1,['N_B'],834.1434191389999,834.1434191389999,834.1434191389999,834.1434191389999,836.1795270709999,836.1795270709999,836.1795270709999,836.1795270709999,836.1795270709999,836.1795270709999,836.1795270709999,836.1795270709999,838.214958475,838.214958475,838.214958475,838.214958475,,,,,,,,,,,,,,,,,,,,,,,,,,,,,,,,,,,,,,,03,011,2022-09-27_09h06.40.007,test2,2022.2.4,59.94492799523171,
0,0,0,0,42,0,42,0,838.214958475,838.214958475,838.214958475,838.214958475,838.214958475,838.214958475,838.214958475,-1,-1,rojo,1,['N_B'],839.700183185,839.700183185,839.700183185,839.700183185,841.7355429509998,841.7355429509998,841.7355429509998,841.7355429509998,841.7355429509998,841.7355429509998,841.7355429509998,841.7355429509998,843.7706684329999,843.7706684329999,843.7706684329999,843.7706684329999,,,,,,,,,,,,,,,,,,,,,,,,,,,,,,,,,,,,,,,03,011,2022-09-27_09h06.40.007,test2,2022.2.4,59.94492799523171,
0,0,0,0,43,0,43,0,843.7706684329999,843.7706684329999,843.7706684329999,843.7706684329999,843.7706684329999,843.7706684329999,843.7706684329999,1,-1,azul,1,['N_B'],845.822724161,845.822724161,845.822724161,845.822724161,847.8596495239999,847.8596495239999,847.8596495239999,847.8596495239999,847.8596495239999,847.8596495239999,847.8596495239999,847.8596495239999,849.895055357,849.895055357,849.895055357,849.895055357,,,,,,,,,,,,,,,,,,,,,,,,,,,,,,,,,,,,,,,03,011,2022-09-27_09h06.40.007,test2,2022.2.4,59.94492799523171,
0,0,0,0,44,0,44,0,849.895055357,849.895055357,849.895055357,849.895055357,849.895055357,849.895055357,849.895055357,-1,1,rojo,1,['N_B'],851.6799154739999,851.6799154739999,851.6799154739999,851.6799154739999,853.7149004,853.7149004,853.7149004,853.7149004,853.7149004,853.7149004,853.7149004,853.7149004,855.750636883,855.750636883,855.750636883,855.750636883,,,,,,,,,,,,,,,,,,,,,,,,,,,,,,,,,,,,,,,03,011,2022-09-27_09h06.40.007,test2,2022.2.4,59.94492799523171,
0,0,0,0,45,0,45,0,855.750636883,855.750636883,855.750636883,855.750636883,855.750636883,855.750636883,855.750636883,1,-1,azul,1,['N_B'],857.2026862569999,857.2026862569999,857.2026862569999,857.2026862569999,859.2378138449999,859.2378138449999,859.2378138449999,859.2378138449999,859.2378138449999,859.2378138449999,859.2378138449999,859.2378138449999,861.27344668,861.27344668,861.27344668,861.27344668,,,,,,,,,,,,,,,,,,,,,,,,,,,,,,,,,,,,,,,03,011,2022-09-27_09h06.40.007,test2,2022.2.4,59.94492799523171,
0,0,0,0,46,0,46,0,861.27344668,861.27344668,861.27344668,861.27344668,861.27344668,861.27344668,861.27344668,-1,-1,rojo,0,['N_A'],863.1927642769999,863.1927642769999,863.1927642769999,863.1927642769999,865.2282140959999,865.2282140959999,865.2282140959999,865.2282140959999,865.2282140959999,865.2282140959999,865.2282140959999,865.2282140959999,867.2632554639999,867.2632554639999,867.2632554639999,867.2632554639999,,,,,,,,,,,,,,,,,,,,,,,,,,,,,,,,,,,,,,,03,011,2022-09-27_09h06.40.007,test2,2022.2.4,59.94492799523171,
0,0,0,0,47,0,47,0,867.2632554639999,867.2632554639999,867.2632554639999,867.2632554639999,867.2632554639999,867.2632554639999,867.2632554639999,1,-1,rojo,1,['N_A'],868.798912579,868.798912579,868.798912579,868.798912579,870.8343065259999,870.8343065259999,870.8343065259999,870.8343065259999,870.8343065259999,870.8343065259999,870.8343065259999,870.8343065259999,872.869986937,872.869986937,872.869986937,872.869986937,,,,,,,,,,,,,,,,,,,,,,,,,,,,,,,,,,,,,,,03,011,2022-09-27_09h06.40.007,test2,2022.2.4,59.94492799523171,
0,0,0,0,48,0,48,0,872.869986937,872.869986937,872.869986937,872.869986937,872.869986937,872.869986937,872.869986937,1,1,rojo,1,['N_A'],874.621519027,874.621519027,874.621519027,874.621519027,876.639783692,876.639783692,876.639783692,876.639783692,876.639783692,876.639783692,876.639783692,876.639783692,878.675703079,878.675703079,878.675703079,878.675703079,,,,,,,,,,,,,,,,,,,,,,,,,,,,,,,,,,,,,,,03,011,2022-09-27_09h06.40.007,test2,2022.2.4,59.94492799523171,
0,0,0,0,49,0,49,0,878.675703079,878.675703079,878.675703079,878.675703079,878.675703079,878.675703079,878.675703079,1,1,rojo,1,['N_A'],880.511556507,880.511556507,880.511556507,880.511556507,882.530920834,882.530920834,882.530920834,882.530920834,882.530920834,882.530920834,882.530920834,882.530920834,884.5663401919999,884.5663401919999,884.5663401919999,884.5663401919999,,,,,,,,,,,,,,,,,,,,,,,,,,,,,,,,,,,,,,,03,011,2022-09-27_09h06.40.007,test2,2022.2.4,59.94492799523171,
0,0,0,0,50,0,50,0,884.5663401919999,884.5663401919999,884.5663401919999,884.5663401919999,884.5663401919999,884.5663401919999,884.5663401919999,-1,1,azul,1,['N_A'],886.7355884419999,886.7355884419999,886.7355884419999,886.7355884419999,888.754267457,888.754267457,888.754267457,888.754267457,888.754267457,888.754267457,888.754267457,888.754267457,890.7897354510001,890.7897354510001,890.7897354510001,890.7897354510001,,,,,,,,,,,,,,,,,,,,,,,,,,,,,,,,,,,,,,,03,011,2022-09-27_09h06.40.007,test2,2022.2.4,59.94492799523171,
0,0,0,0,51,0,51,0,890.7897354510001,890.7897354510001,890.7897354510001,890.7897354510001,890.7897354510001,890.7897354510001,890.7897354510001,1,1,rojo,1,['N_A'],892.341542339,892.341542339,892.341542339,892.341542339,894.3606914229999,894.3606914229999,894.3606914229999,894.3606914229999,894.3606914229999,894.3606914229999,894.3606914229999,894.3606914229999,896.395313387,896.395313387,896.395313387,896.395313387,,,,,,,,,,,,,,,,,,,,,,,,,,,,,,,,,,,,,,,03,011,2022-09-27_09h06.40.007,test2,2022.2.4,59.94492799523171,
0,0,0,0,52,0,52,0,896.395313387,896.395313387,896.395313387,896.395313387,896.395313387,896.395313387,896.395313387,1,1,rojo,1,['N_A'],898.398081432,898.398081432,898.398081432,898.398081432,900.417036633,900.417036633,900.417036633,900.417036633,900.417036633,900.417036633,900.417036633,900.417036633,902.4520931729999,902.4520931729999,902.4520931729999,902.4520931729999,,,,,,,,,,,,,,,,,,,,,,,,,,,,,,,,,,,,,,,03,011,2022-09-27_09h06.40.007,test2,2022.2.4,59.94492799523171,
0,0,0,0,53,0,53,0,902.4520931729999,902.4520931729999,902.4520931729999,902.4520931729999,902.4520931729999,902.4520931729999,902.4520931729999,1,1,rojo,1,['N_A'],904.2373723000001,904.2373723000001,904.2373723000001,904.2373723000001,906.2555389730001,906.2555389730001,906.2555389730001,906.2555389730001,906.2555389730001,906.2555389730001,906.2555389730001,906.2555389730001,908.2926361769998,908.2926361769998,908.2926361769998,908.2926361769998,,,,,,,,,,,,,,,,,,,,,,,,,,,,,,,,,,,,,,,03,011,2022-09-27_09h06.40.007,test2,2022.2.4,59.94492799523171,
0,0,0,0,54,0,54,0,908.2926361769998,908.2926361769998,908.2926361769998,908.2926361769998,908.2926361769998,908.2926361769998,908.2926361769998,-1,1,azul,1,['N_A'],911.3121398849999,911.3121398849999,911.3121398849999,911.3121398849999,913.331621452,913.331621452,913.331621452,913.331621452,913.331621452,913.331621452,913.331621452,913.331621452,915.366985828,915.366985828,915.366985828,915.366985828,,,,,,,,,,,,,,,,,,,,,,,,,,,,,,,,,,,,,,,03,011,2022-09-27_09h06.40.007,test2,2022.2.4,59.94492799523171,
0,0,0,0,55,0,55,0,915.366985828,915.366985828,915.366985828,915.366985828,915.366985828,915.366985828,915.366985828,1,1,rojo,1,['N_A'],917.1856713529999,917.1856713529999,917.1856713529999,917.1856713529999,919.2207757900001,919.2207757900001,919.2207757900001,919.2207757900001,919.2207757900001,919.2207757900001,919.2207757900001,919.2207757900001,921.2568470399999,921.2568470399999,921.2568470399999,921.2568470399999,,,,,,,,,,,,,,,,,,,,,,,,,,,,,,,,,,,,,,,03,011,2022-09-27_09h06.40.007,test2,2022.2.4,59.94492799523171,
0,0,0,0,56,0,56,0,921.2568470399999,921.2568470399999,921.2568470399999,921.2568470399999,921.2568470399999,921.2568470399999,921.2568470399999,-1,-1,azul,1,['N_A'],922.874647421,922.874647421,922.874647421,922.874647421,924.9105291589999,924.9105291589999,924.9105291589999,924.9105291589999,924.9105291589999,924.9105291589999,924.9105291589999,924.9105291589999,926.9456582099999,926.9456582099999,926.9456582099999,926.9456582099999,,,,,,,,,,,,,,,,,,,,,,,,,,,,,,,,,,,,,,,03,011,2022-09-27_09h06.40.007,test2,2022.2.4,59.94492799523171,
0,0,0,0,57,0,57,0,926.9456582099999,926.9456582099999,926.9456582099999,926.9456582099999,926.9456582099999,926.9456582099999,926.9456582099999,1,1,rojo,1,['N_A'],928.5649953719999,928.5649953719999,928.5649953719999,928.5649953719999,930.583155953,930.583155953,930.583155953,930.583155953,930.583155953,930.583155953,930.583155953,930.583155953,932.618695937,932.618695937,932.618695937,932.618695937,,,,,,,,,,,,,,,,,,,,,,,,,,,,,,,,,,,,,,,03,011,2022-09-27_09h06.40.007,test2,2022.2.4,59.94492799523171,
0,0,0,0,58,0,58,0,932.618695937,932.618695937,932.618695937,932.618695937,932.618695937,932.618695937,932.618695937,1,1,rojo,1,['N_A'],934.237517261,934.237517261,934.237517261,934.237517261,936.25713931,936.25713931,936.25713931,936.25713931,936.25713931,936.25713931,936.25713931,936.25713931,938.292273862,938.292273862,938.292273862,938.292273862,,,,,,,,,,,,,,,,,,,,,,,,,,,,,,,,,,,,,,,03,011,2022-09-27_09h06.40.007,test2,2022.2.4,59.94492799523171,
0,0,0,0,59,0,59,0,938.292273862,938.292273862,938.292273862,938.292273862,938.292273862,938.292273862,938.292273862,-1,1,azul,1,['N_A'],939.843791131,939.843791131,939.843791131,939.843791131,941.8623006559999,941.8623006559999,941.8623006559999,941.8623006559999,941.8623006559999,941.8623006559999,941.8623006559999,941.8623006559999,943.8977919609999,943.8977919609999,943.8977919609999,943.8977919609999,,,,,,,,,,,,,,,,,,,,,,,,,,,,,,,,,,,,,,,03,011,2022-09-27_09h06.40.007,test2,2022.2.4,59.94492799523171,
0,0,0,0,60,0,60,0,943.8977919609999,943.8977919609999,943.8977919609999,943.8977919609999,943.8977919609999,943.8977919609999,943.8977919609999,1,1,rojo,1,['N_A'],946.167003649,946.167003649,946.167003649,946.167003649,948.1855952989999,948.1855952989999,948.1855952989999,948.1855952989999,948.1855952989999,948.1855952989999,948.1855952989999,948.1855952989999,950.2220236559999,950.2220236559999,950.2220236559999,950.2220236559999,,,,,,,,,,,,,,,,,,,,,,,,,,,,,,,,,,,,,,,03,011,2022-09-27_09h06.40.007,test2,2022.2.4,59.94492799523171,
0,0,0,0,61,0,61,0,950.2220236559999,950.2220236559999,950.2220236559999,950.2220236559999,950.2220236559999,950.2220236559999,950.2220236559999,1,1,rojo,1,['N_A'],952.2744047439999,952.2744047439999,952.2744047439999,952.2744047439999,954.3101012679999,954.3101012679999,954.3101012679999,954.3101012679999,954.3101012679999,954.3101012679999,954.3101012679999,954.3101012679999,956.3448040629999,956.3448040629999,956.3448040629999,956.3448040629999,,,,,,,,,,,,,,,,,,,,,,,,,,,,,,,,,,,,,,,03,011,2022-09-27_09h06.40.007,test2,2022.2.4,59.94492799523171,
0,0,0,0,62,0,62,0,956.3448040629999,956.3448040629999,956.3448040629999,956.3448040629999,956.3448040629999,956.3448040629999,956.3448040629999,-1,-1,azul,1,['N_A'],958.1969696609999,958.1969696609999,958.1969696609999,958.1969696609999,960.2328611620001,960.2328611620001,960.2328611620001,960.2328611620001,960.2328611620001,960.2328611620001,960.2328611620001,960.2328611620001,962.268729288,962.268729288,962.268729288,962.268729288,,,,,,,,,,,,,,,,,,,,,,,,,,,,,,,,,,,,,,,03,011,2022-09-27_09h06.40.007,test2,2022.2.4,59.94492799523171,
0,0,0,0,63,0,63,0,962.268729288,962.268729288,962.268729288,962.268729288,962.268729288,962.268729288,962.268729288,1,1,rojo,1,['N_A'],963.9199325049999,963.9199325049999,963.9199325049999,963.9199325049999,965.956141116,965.956141116,965.956141116,965.956141116,965.956141116,965.956141116,965.956141116,965.956141116,967.9915797429999,967.9915797429999,967.9915797429999,967.9915797429999,,,,,,,,,,,,,,,,,,,,,,,,,,,,,,,,,,,,,,,03,011,2022-09-27_09h06.40.007,test2,2022.2.4,59.94492799523171,
0,0,0,0,64,0,64,0,967.9915797429999,967.9915797429999,967.9915797429999,967.9915797429999,967.9915797429999,967.9915797429999,967.9915797429999,1,-1,rojo,1,['N_A'],970.027143234,970.027143234,970.027143234,970.027143234,972.062819145,972.062819145,972.062819145,972.062819145,972.062819145,972.062819145,972.062819145,972.062819145,974.0978506859999,974.0978506859999,974.0978506859999,974.0978506859999,,,,,,,,,,,,,,,,,,,,,,,,,,,,,,,,,,,,,,,03,011,2022-09-27_09h06.40.007,test2,2022.2.4,59.94492799523171,
0,0,0,0,65,0,65,0,974.0978506859999,974.0978506859999,974.0978506859999,974.0978506859999,974.0978506859999,974.0978506859999,974.0978506859999,1,-1,rojo,1,['N_A'],976.0833493099999,976.0833493099999,976.0833493099999,976.0833493099999,978.1194583029999,978.1194583029999,978.1194583029999,978.1194583029999,978.1194583029999,978.1194583029999,978.1194583029999,978.1194583029999,980.15466401,980.15466401,980.15466401,980.15466401,,,,,,,,,,,,,,,,,,,,,,,,,,,,,,,,,,,,,,,03,011,2022-09-27_09h06.40.007,test2,2022.2.4,59.94492799523171,
0,0,0,0,66,0,66,0,980.15466401,980.15466401,980.15466401,980.15466401,980.15466401,980.15466401,980.15466401,1,1,rojo,1,['N_A'],982.140328796,982.140328796,982.140328796,982.140328796,984.158529434,984.158529434,984.158529434,984.158529434,984.158529434,984.158529434,984.158529434,984.158529434,986.1950326029998,986.1950326029998,986.1950326029998,986.1950326029998,,,,,,,,,,,,,,,,,,,,,,,,,,,,,,,,,,,,,,,03,011,2022-09-27_09h06.40.007,test2,2022.2.4,59.94492799523171,
0,0,0,0,67,0,67,0,986.1950326029998,986.1950326029998,986.1950326029998,986.1950326029998,986.1950326029998,986.1950326029998,986.1950326029998,-1,1,azul,1,['N_A'],988.180713317,988.180713317,988.180713317,988.180713317,990.1994060439999,990.1994060439999,990.1994060439999,990.1994060439999,990.1994060439999,990.1994060439999,990.1994060439999,990.1994060439999,992.2345248489999,992.2345248489999,992.2345248489999,992.2345248489999,,,,,,,,,,,,,,,,,,,,,,,,,,,,,,,,,,,,,,,03,011,2022-09-27_09h06.40.007,test2,2022.2.4,59.94492799523171,
0,0,0,0,68,0,68,0,992.2345248489999,992.2345248489999,992.2345248489999,992.2345248489999,992.2345248489999,992.2345248489999,992.2345248489999,1,1,rojo,1,['N_A'],993.9863337439999,993.9863337439999,993.9863337439999,993.9863337439999,996.022216047,996.022216047,996.022216047,996.022216047,996.022216047,996.022216047,996.022216047,996.022216047,998.058305776,998.058305776,998.058305776,998.058305776,,,,,,,,,,,,,,,,,,,,,,,,,,,,,,,,,,,,,,,03,011,2022-09-27_09h06.40.007,test2,2022.2.4,59.94492799523171,
0,0,0,0,69,0,69,0,998.058305776,998.058305776,998.058305776,998.058305776,998.058305776,998.058305776,998.058305776,1,-1,rojo,1,['N_A'],999.709374796,999.709374796,999.709374796,999.709374796,1001.7449225309999,1001.7449225309999,1001.7449225309999,1001.7449225309999,1001.7449225309999,1001.7449225309999,1001.7449225309999,1001.7449225309999,1003.781489448,1003.781489448,1003.781489448,1003.781489448,,,,,,,,,,,,,,,,,,,,,,,,,,,,,,,,,,,,,,,03,011,2022-09-27_09h06.40.007,test2,2022.2.4,59.94492799523171,
0,0,0,0,70,0,70,0,1003.781489448,1003.781489448,1003.781489448,1003.781489448,1003.781489448,1003.781489448,1003.781489448,1,1,rojo,1,['N_A'],1005.832851143,1005.832851143,1005.832851143,1005.832851143,1007.850768908,1007.850768908,1007.850768908,1007.850768908,1007.850768908,1007.850768908,1007.850768908,1007.850768908,1009.8881744809999,1009.8881744809999,1009.8881744809999,1009.8881744809999,,,,,,,,,,,,,,,,,,,,,,,,,,,,,,,,,,,,,,,03,011,2022-09-27_09h06.40.007,test2,2022.2.4,59.94492799523171,
0,0,0,0,71,0,71,0,1009.8881744809999,1009.8881744809999,1009.8881744809999,1009.8881744809999,1009.8881744809999,1009.8881744809999,1009.8881744809999,-1,1,azul,1,['N_A'],1011.9734021029999,1011.9734021029999,1011.9734021029999,1011.9734021029999,1014.008808115,1014.008808115,1014.008808115,1014.008808115,1014.008808115,1014.008808115,1014.008808115,1014.008808115,1016.0448389420001,1016.0448389420001,1016.0448389420001,1016.0448389420001,,,,,,,,,,,,,,,,,,,,,,,,,,,,,,,,,,,,,,,03,011,2022-09-27_09h06.40.007,test2,2022.2.4,59.94492799523171,
0,0,0,0,72,0,72,0,1016.0448389420001,1016.0448389420001,1016.0448389420001,1016.0448389420001,1016.0448389420001,1016.0448389420001,1016.0448389420001,1,-1,rojo,1,['N_A'],1017.562823453,1017.562823453,1017.562823453,1017.562823453,1019.5984864929999,1019.5984864929999,1019.5984864929999,1019.5984864929999,1019.5984864929999,1019.5984864929999,1019.5984864929999,1019.5984864929999,1021.6345377319999,1021.6345377319999,1021.6345377319999,1021.6345377319999,,,,,,,,,,,,,,,,,,,,,,,,,,,,,,,,,,,,,,,03,011,2022-09-27_09h06.40.007,test2,2022.2.4,59.94492799523171,
0,0,0,0,73,0,73,0,1021.6345377319999,1021.6345377319999,1021.6345377319999,1021.6345377319999,1021.6345377319999,1021.6345377319999,1021.6345377319999,1,-1,rojo,1,['N_A'],1023.0528826069999,1023.0528826069999,1023.0528826069999,1023.0528826069999,1025.0881860529998,1025.0881860529998,1025.0881860529998,1025.0881860529998,1025.0881860529998,1025.0881860529998,1025.0881860529998,1025.0881860529998,1027.122776941,1027.122776941,1027.122776941,1027.122776941,,,,,,,,,,,,,,,,,,,,,,,,,,,,,,,,,,,,,,,03,011,2022-09-27_09h06.40.007,test2,2022.2.4,59.94492799523171,
0,0,0,0,74,0,74,0,1027.122776941,1027.122776941,1027.122776941,1027.122776941,1027.122776941,1027.122776941,1027.122776941,1,-1,rojo,0,['N_B'],1029.108886795,1029.108886795,1029.108886795,1029.108886795,1031.1445483969999,1031.1445483969999,1031.1445483969999,1031.1445483969999,1031.1445483969999,1031.1445483969999,1031.1445483969999,1031.1445483969999,1033.180376933,1033.180376933,1033.180376933,1033.180376933,,,,,,,,,,,,,,,,,,,,,,,,,,,,,,,,,,,,,,,03,011,2022-09-27_09h06.40.007,test2,2022.2.4,59.94492799523171,
0,0,0,0,75,0,75,0,1033.180376933,1033.180376933,1033.180376933,1033.180376933,1033.180376933,1033.180376933,1033.180376933,1,1,azul,1,['N_B'],1034.964780386,1034.964780386,1034.964780386,1034.964780386,1036.983168845,1036.983168845,1036.983168845,1036.983168845,1036.983168845,1036.983168845,1036.983168845,1036.983168845,1039.019675688,1039.019675688,1039.019675688,1039.019675688,,,,,,,,,,,,,,,,,,,,,,,,,,,,,,,,,,,,,,,03,011,2022-09-27_09h06.40.007,test2,2022.2.4,59.94492799523171,
0,0,0,0,76,0,76,0,1039.019675688,1039.019675688,1039.019675688,1039.019675688,1039.019675688,1039.019675688,1039.019675688,1,1,azul,1,['N_B'],1040.704663886,1040.704663886,1040.704663886,1040.704663886,1042.74118636,1042.74118636,1042.74118636,1042.74118636,1042.74118636,1042.74118636,1042.74118636,1042.74118636,1044.775935017,1044.775935017,1044.775935017,1044.775935017,,,,,,,,,,,,,,,,,,,,,,,,,,,,,,,,,,,,,,,03,011,2022-09-27_09h06.40.007,test2,2022.2.4,59.94492799523171,
0,0,0,0,77,0,77,0,1044.775935017,1044.775935017,1044.775935017,1044.775935017,1044.775935017,1044.775935017,1044.775935017,1,-1,azul,1,['N_B'],1046.5943330569999,1046.5943330569999,1046.5943330569999,1046.5943330569999,1048.629830132,1048.629830132,1048.629830132,1048.629830132,1048.629830132,1048.629830132,1048.629830132,1048.629830132,1050.665626021,1050.665626021,1050.665626021,1050.665626021,,,,,,,,,,,,,,,,,,,,,,,,,,,,,,,,,,,,,,,03,011,2022-09-27_09h06.40.007,test2,2022.2.4,59.94492799523171,
0,0,0,0,78,0,78,0,1050.665626021,1050.665626021,1050.665626021,1050.665626021,1050.665626021,1050.665626021,1050.665626021,-1,1,rojo,1,['N_B'],1052.768358065,1052.768358065,1052.768358065,1052.768358065,1054.803832562,1054.803832562,1054.803832562,1054.803832562,1054.803832562,1054.803832562,1054.803832562,1054.803832562,1056.839360399,1056.839360399,1056.839360399,1056.839360399,,,,,,,,,,,,,,,,,,,,,,,,,,,,,,,,,,,,,,,03,011,2022-09-27_09h06.40.007,test2,2022.2.4,59.94492799523171,
0,0,0,0,79,0,79,0,1056.839360399,1056.839360399,1056.839360399,1056.839360399,1056.839360399,1056.839360399,1056.839360399,1,-1,azul,1,['N_B'],1058.341619657,1058.341619657,1058.341619657,1058.341619657,1060.3771842669998,1060.3771842669998,1060.3771842669998,1060.3771842669998,1060.3771842669998,1060.3771842669998,1060.3771842669998,1060.3771842669998,1062.412623878,1062.412623878,1062.412623878,1062.412623878,,,,,,,,,,,,,,,,,,,,,,,,,,,,,,,,,,,,,,,03,011,2022-09-27_09h06.40.007,test2,2022.2.4,59.94492799523171,
0,0,0,0,80,0,80,0,1062.412623878,1062.412623878,1062.412623878,1062.412623878,1062.412623878,1062.412623878,1062.412623878,-1,-1,rojo,0,['N_A'],1063.83106425,1063.83106425,1063.83106425,1063.83106425,1065.865901944,1065.865901944,1065.865901944,1065.865901944,1065.865901944,1065.865901944,1065.865901944,1065.865901944,1067.901968769,1067.901968769,1067.901968769,1067.901968769,,,,,,,,,,,,,,,,,,,,,,,,,,,,,,,,,,,,,,,03,011,2022-09-27_09h06.40.007,test2,2022.2.4,59.94492799523171,
0,0,0,0,81,0,81,0,1067.901968769,1067.901968769,1067.901968769,1067.901968769,1067.901968769,1067.901968769,1067.901968769,-1,-1,azul,1,['N_A'],1069.686586075,1069.686586075,1069.686586075,1069.686586075,1071.722294471,1071.722294471,1071.722294471,1071.722294471,1071.722294471,1071.722294471,1071.722294471,1071.722294471,1073.758487711,1073.758487711,1073.758487711,1073.758487711,,,,,,,,,,,,,,,,,,,,,,,,,,,,,,,,,,,,,,,03,011,2022-09-27_09h06.40.007,test2,2022.2.4,59.94492799523171,
0,0,0,0,82,0,82,0,1073.758487711,1073.758487711,1073.758487711,1073.758487711,1073.758487711,1073.758487711,1073.758487711,1,-1,rojo,1,['N_A'],1075.376215697,1075.376215697,1075.376215697,1075.376215697,1077.4125180229998,1077.4125180229998,1077.4125180229998,1077.4125180229998,1077.4125180229998,1077.4125180229998,1077.4125180229998,1077.4125180229998,1079.448071147,1079.448071147,1079.448071147,1079.448071147,,,,,,,,,,,,,,,,,,,,,,,,,,,,,,,,,,,,,,,03,011,2022-09-27_09h06.40.007,test2,2022.2.4,59.94492799523171,
0,0,0,0,83,0,83,0,1079.448071147,1079.448071147,1079.448071147,1079.448071147,1079.448071147,1079.448071147,1079.448071147,-1,-1,azul,1,['N_A'],1080.883029936,1080.883029936,1080.883029936,1080.883029936,1082.9183322029999,1082.9183322029999,1082.9183322029999,1082.9183322029999,1082.9183322029999,1082.9183322029999,1082.9183322029999,1082.9183322029999,1084.953945007,1084.953945007,1084.953945007,1084.953945007,,,,,,,,,,,,,,,,,,,,,,,,,,,,,,,,,,,,,,,03,011,2022-09-27_09h06.40.007,test2,2022.2.4,59.94492799523171,
0,0,0,0,84,0,84,0,1084.953945007,1084.953945007,1084.953945007,1084.953945007,1084.953945007,1084.953945007,1084.953945007,-1,1,azul,1,['N_A'],1086.7392236409999,1086.7392236409999,1086.7392236409999,1086.7392236409999,1088.75766321,1088.75766321,1088.75766321,1088.75766321,1088.75766321,1088.75766321,1088.75766321,1088.75766321,1090.7939818989998,1090.7939818989998,1090.7939818989998,1090.7939818989998,,,,,,,,,,,,,,,,,,,,,,,,,,,,,,,,,,,,,,,03,011,2022-09-27_09h06.40.007,test2,2022.2.4,59.94492799523171,
0,0,0,0,85,0,85,0,1090.7939818989998,1090.7939818989998,1090.7939818989998,1090.7939818989998,1090.7939818989998,1090.7939818989998,1090.7939818989998,1,1,rojo,1,['N_A'],1092.646251698,1092.646251698,1092.646251698,1092.646251698,1094.664446429,1094.664446429,1094.664446429,1094.664446429,1094.664446429,1094.664446429,1094.664446429,1094.664446429,1096.700440507,1096.700440507,1096.700440507,1096.700440507,,,,,,,,,,,,,,,,,,,,,,,,,,,,,,,,,,,,,,,03,011,2022-09-27_09h06.40.007,test2,2022.2.4,59.94492799523171,
0,0,0,0,86,0,86,0,1096.700440507,1096.700440507,1096.700440507,1096.700440507,1096.700440507,1096.700440507,1096.700440507,1,1,rojo,1,['N_A'],1098.419271761,1098.419271761,1098.419271761,1098.419271761,1100.4366456359999,1100.4366456359999,1100.4366456359999,1100.4366456359999,1100.4366456359999,1100.4366456359999,1100.4366456359999,1100.4366456359999,1102.472668697,1102.472668697,1102.472668697,1102.472668697,,,,,,,,,,,,,,,,,,,,,,,,,,,,,,,,,,,,,,,03,011,2022-09-27_09h06.40.007,test2,2022.2.4,59.94492799523171,
0,0,0,0,87,0,87,0,1102.472668697,1102.472668697,1102.472668697,1102.472668697,1102.472668697,1102.472668697,1102.472668697,-1,1,azul,1,['N_A'],1105.877046186,1105.877046186,1105.877046186,1105.877046186,1107.894347852,1107.894347852,1107.894347852,1107.894347852,1107.894347852,1107.894347852,1107.894347852,1107.894347852,1109.931244334,1109.931244334,1109.931244334,1109.931244334,,,,,,,,,,,,,,,,,,,,,,,,,,,,,,,,,,,,,,,03,011,2022-09-27_09h06.40.007,test2,2022.2.4,59.94492799523171,
0,0,0,0,88,0,88,0,1109.931244334,1109.931244334,1109.931244334,1109.931244334,1109.931244334,1109.931244334,1109.931244334,1,1,rojo,1,['N_A'],1111.900415288,1111.900415288,1111.900415288,1111.900415288,1113.918790822,1113.918790822,1113.918790822,1113.918790822,1113.918790822,1113.918790822,1113.918790822,1113.918790822,1115.954652601,1115.954652601,1115.954652601,1115.954652601,,,,,,,,,,,,,,,,,,,,,,,,,,,,,,,,,,,,,,,03,011,2022-09-27_09h06.40.007,test2,2022.2.4,59.94492799523171,
0,0,0,0,89,0,89,0,1115.954652601,1115.954652601,1115.954652601,1115.954652601,1115.954652601,1115.954652601,1115.954652601,-1,1,azul,1,['N_A'],1120.493097094,1120.493097094,1120.493097094,1120.493097094,1122.512005518,1122.512005518,1122.512005518,1122.512005518,1122.512005518,1122.512005518,1122.512005518,1122.512005518,1124.54710806,1124.54710806,1124.54710806,1124.54710806,,,,,,,,,,,,,,,,,,,,,,,,,,,,,,,,,,,,,,,03,011,2022-09-27_09h06.40.007,test2,2022.2.4,59.94492799523171,
0,0,0,0,90,0,90,0,1124.54710806,1124.54710806,1124.54710806,1124.54710806,1124.54710806,1124.54710806,1124.54710806,1,1,rojo,1,['N_A'],1127.4011349749999,1127.4011349749999,1127.4011349749999,1127.4011349749999,1129.435694064,1129.435694064,1129.435694064,1129.435694064,1129.435694064,1129.435694064,1129.435694064,1129.435694064,1131.471946447,1131.471946447,1131.471946447,1131.471946447,,,,,,,,,,,,,,,,,,,,,,,,,,,,,,,,,,,,,,,03,011,2022-09-27_09h06.40.007,test2,2022.2.4,59.94492799523171,
0,0,0,0,91,0,91,0,1131.471946447,1131.471946447,1131.471946447,1131.471946447,1131.471946447,1131.471946447,1131.471946447,1,-1,rojo,1,['N_A'],1133.190355797,1133.190355797,1133.190355797,1133.190355797,1135.225787759,1135.225787759,1135.225787759,1135.225787759,1135.225787759,1135.225787759,1135.225787759,1135.225787759,1137.261756933,1137.261756933,1137.261756933,1137.261756933,,,,,,,,,,,,,,,,,,,,,,,,,,,,,,,,,,,,,,,03,011,2022-09-27_09h06.40.007,test2,2022.2.4,59.94492799523171,
0,0,0,0,92,0,92,0,1137.261756933,1137.261756933,1137.261756933,1137.261756933,1137.261756933,1137.261756933,1137.261756933,-1,-1,azul,1,['N_A'],1138.8796986,1138.8796986,1138.8796986,1138.8796986,1140.915836104,1140.915836104,1140.915836104,1140.915836104,1140.915836104,1140.915836104,1140.915836104,1140.915836104,1142.951491883,1142.951491883,1142.951491883,1142.951491883,,,,,,,,,,,,,,,,,,,,,,,,,,,,,,,,,,,,,,,03,011,2022-09-27_09h06.40.007,test2,2022.2.4,59.94492799523171,
0,0,0,0,93,0,93,0,1142.951491883,1142.951491883,1142.951491883,1142.951491883,1142.951491883,1142.951491883,1142.951491883,1,1,rojo,1,['N_A'],1144.836261869,1144.836261869,1144.836261869,1144.836261869,1146.855447533,1146.855447533,1146.855447533,1146.855447533,1146.855447533,1146.855447533,1146.855447533,1146.855447533,1148.8914122229999,1148.8914122229999,1148.8914122229999,1148.8914122229999,,,,,,,,,,,,,,,,,,,,,,,,,,,,,,,,,,,,,,,03,011,2022-09-27_09h06.40.007,test2,2022.2.4,59.94492799523171,
0,0,0,0,94,0,94,0,1148.8914122229999,1148.8914122229999,1148.8914122229999,1148.8914122229999,1148.8914122229999,1148.8914122229999,1148.8914122229999,1,1,rojo,1,['N_A'],1150.676376031,1150.676376031,1150.676376031,1150.676376031,1152.694459074,1152.694459074,1152.694459074,1152.694459074,1152.694459074,1152.694459074,1152.694459074,1152.694459074,1154.731182814,1154.731182814,1154.731182814,1154.731182814,,,,,,,,,,,,,,,,,,,,,,,,,,,,,,,,,,,,,,,03,011,2022-09-27_09h06.40.007,test2,2022.2.4,59.94492799523171,
0,0,0,0,95,0,95,0,1154.731182814,1154.731182814,1154.731182814,1154.731182814,1154.731182814,1154.731182814,1154.731182814,-1,1,azul,1,['N_A'],1157.016667242,1157.016667242,1157.016667242,1157.016667242,1159.052719658,1159.052719658,1159.052719658,1159.052719658,1159.052719658,1159.052719658,1159.052719658,1159.052719658,1161.088063991,1161.088063991,1161.088063991,1161.088063991,,,,,,,,,,,,,,,,,,,,,,,,,,,,,,,,,,,,,,,03,011,2022-09-27_09h06.40.007,test2,2022.2.4,59.94492799523171,
0,0,0,0,96,0,96,0,1161.088063991,1161.088063991,1161.088063991,1161.088063991,1161.088063991,1161.088063991,1161.088063991,1,-1,rojo,1,['N_A'],1162.956409536,1162.956409536,1162.956409536,1162.956409536,1164.991725916,1164.991725916,1164.991725916,1164.991725916,1164.991725916,1164.991725916,1164.991725916,1164.991725916,1167.02788764,1167.02788764,1167.02788764,1167.02788764,,,,,,,,,,,,,,,,,,,,,,,,,,,,,,,,,,,,,,,03,011,2022-09-27_09h06.40.007,test2,2022.2.4,59.94492799523171,
0,0,0,0,97,0,97,0,1167.02788764,1167.02788764,1167.02788764,1167.02788764,1167.02788764,1167.02788764,1167.02788764,1,1,rojo,1,['N_A'],1169.313283517,1169.313283517,1169.313283517,1169.313283517,1171.34915795,1171.34915795,1171.34915795,1171.34915795,1171.34915795,1171.34915795,1171.34915795,1171.34915795,1173.384866192,1173.384866192,1173.384866192,1173.384866192,,,,,,,,,,,,,,,,,,,,,,,,,,,,,,,,,,,,,,,03,011,2022-09-27_09h06.40.007,test2,2022.2.4,59.94492799523171,
0,0,0,0,98,0,98,0,1173.384866192,1173.384866192,1173.384866192,1173.384866192,1173.384866192,1173.384866192,1173.384866192,1,-1,rojo,1,['N_A'],1175.019429853,1175.019429853,1175.019429853,1175.019429853,1177.055403982,1177.055403982,1177.055403982,1177.055403982,1177.055403982,1177.055403982,1177.055403982,1177.055403982,1179.0904030069998,1179.0904030069998,1179.0904030069998,1179.0904030069998,,,,,,,,,,,,,,,,,,,,,,,,,,,,,,,,,,,,,,,03,011,2022-09-27_09h06.40.007,test2,2022.2.4,59.94492799523171,
0,0,0,0,99,0,99,0,1179.0904030069998,1179.0904030069998,1179.0904030069998,1179.0904030069998,1179.0904030069998,1179.0904030069998,1179.0904030069998,1,-1,rojo,1,['N_A'],1180.7934174079999,1180.7934174079999,1180.7934174079999,1180.7934174079999,1182.828320652,1182.828320652,1182.828320652,1182.828320652,1182.828320652,1182.828320652,1182.828320652,1182.828320652,1184.863778667,1184.863778667,1184.863778667,1184.863778667,,,,,,,,,,,,,,,,,,,,,,,,,,,,,,,,,,,,,,,03,011,2022-09-27_09h06.40.007,test2,2022.2.4,59.94492799523171,
0,0,0,0,100,0,100,0,1184.863778667,1184.863778667,1184.863778667,1184.863778667,1184.863778667,1184.863778667,1184.863778667,1,-1,rojo,1,['N_A'],1186.3486782109999,1186.3486782109999,1186.3486782109999,1186.3486782109999,1188.384305772,1188.384305772,1188.384305772,1188.384305772,1188.384305772,1188.384305772,1188.384305772,1188.384305772,1190.420114954,1190.420114954,1190.420114954,1190.420114954,,,,,,,,,,,,,,,,,,,,,,,,,,,,,,,,,,,,,,,03,011,2022-09-27_09h06.40.007,test2,2022.2.4,59.94492799523171,
0,0,0,0,101,0,101,0,1190.420114954,1190.420114954,1190.420114954,1190.420114954,1190.420114954,1190.420114954,1190.420114954,1,-1,rojo,0,['N_B'],1192.972676239,1192.972676239,1192.972676239,1192.972676239,1195.008711236,1195.008711236,1195.008711236,1195.008711236,1195.008711236,1195.008711236,1195.008711236,1195.008711236,1197.044474607,1197.044474607,1197.044474607,1197.044474607,,,,,,,,,,,,,,,,,,,,,,,,,,,,,,,,,,,,,,,03,011,2022-09-27_09h06.40.007,test2,2022.2.4,59.94492799523171,
0,0,0,0,102,0,102,0,1197.044474607,1197.044474607,1197.044474607,1197.044474607,1197.044474607,1197.044474607,1197.044474607,-1,-1,rojo,1,['N_B'],1198.529010057,1198.529010057,1198.529010057,1198.529010057,1200.564779805,1200.564779805,1200.564779805,1200.564779805,1200.564779805,1200.564779805,1200.564779805,1200.564779805,1202.600432147,1202.600432147,1202.600432147,1202.600432147,,,,,,,,,,,,,,,,,,,,,,,,,,,,,,,,,,,,,,,03,011,2022-09-27_09h06.40.007,test2,2022.2.4,59.94492799523171,
0,0,0,0,103,0,103,0,1202.600432147,1202.600432147,1202.600432147,1202.600432147,1202.600432147,1202.600432147,1202.600432147,1,-1,azul,1,['N_B'],1204.819066914,1204.819066914,1204.819066914,1204.819066914,1206.854694156,1206.854694156,1206.854694156,1206.854694156,1206.854694156,1206.854694156,1206.854694156,1206.854694156,1208.890203744,1208.890203744,1208.890203744,1208.890203744,,,,,,,,,,,,,,,,,,,,,,,,,,,,,,,,,,,,,,,03,011,2022-09-27_09h06.40.007,test2,2022.2.4,59.94492799523171,
0,0,0,0,104,0,104,0,1208.890203744,1208.890203744,1208.890203744,1208.890203744,1208.890203744,1208.890203744,1208.890203744,-1,-1,rojo,1,['N_B'],1210.892986651,1210.892986651,1210.892986651,1210.892986651,1212.928164193,1212.928164193,1212.928164193,1212.928164193,1212.928164193,1212.928164193,1212.928164193,1212.928164193,1214.9633664389999,1214.9633664389999,1214.9633664389999,1214.9633664389999,,,,,,,,,,,,,,,,,,,,,,,,,,,,,,,,,,,,,,,03,011,2022-09-27_09h06.40.007,test2,2022.2.4,59.94492799523171,
0,0,0,0,105,0,105,0,1214.9633664389999,1214.9633664389999,1214.9633664389999,1214.9633664389999,1214.9633664389999,1214.9633664389999,1214.9633664389999,1,1,azul,1,['N_B'],1216.432598928,1216.432598928,1216.432598928,1216.432598928,1218.4678316,1218.4678316,1218.4678316,1218.4678316,1218.4678316,1218.4678316,1218.4678316,1218.4678316,1220.503183693,1220.503183693,1220.503183693,1220.503183693,,,,,,,,,,,,,,,,,,,,,,,,,,,,,,,,,,,,,,,03,011,2022-09-27_09h06.40.007,test2,2022.2.4,59.94492799523171,
0,0,0,0,106,0,106,0,1220.503183693,1220.503183693,1220.503183693,1220.503183693,1220.503183693,1220.503183693,1220.503183693,-1,-1,rojo,1,['N_B'],1221.9217827109999,1221.9217827109999,1221.9217827109999,1221.9217827109999,1223.95672668,1223.95672668,1223.95672668,1223.95672668,1223.95672668,1223.95672668,1223.95672668,1223.95672668,1225.992658531,1225.992658531,1225.992658531,1225.992658531,,,,,,,,,,,,,,,,,,,,,,,,,,,,,,,,,,,,,,,03,011,2022-09-27_09h06.40.007,test2,2022.2.4,59.94492799523171,
0,0,0,0,107,0,107,0,1225.992658531,1225.992658531,1225.992658531,1225.992658531,1225.992658531,1225.992658531,1225.992658531,1,-1,azul,0,['N_A'],1227.660898975,1227.660898975,1227.660898975,1227.660898975,1229.697223139,1229.697223139,1229.697223139,1229.697223139,1229.697223139,1229.697223139,1229.697223139,1229.697223139,1231.732291504,1231.732291504,1231.732291504,1231.732291504,,,,,,,,,,,,,,,,,,,,,,,,,,,,,,,,,,,,,,,03,011,2022-09-27_09h06.40.007,test2,2022.2.4,59.94492799523171,
0,0,0,0,108,0,108,0,1231.732291504,1231.732291504,1231.732291504,1231.732291504,1231.732291504,1231.732291504,1231.732291504,-1,1,azul,1,['N_A'],1233.317377675,1233.317377675,1233.317377675,1233.317377675,1235.35277088,1235.35277088,1235.35277088,1235.35277088,1235.35277088,1235.35277088,1235.35277088,1235.35277088,1237.388811375,1237.388811375,1237.388811375,1237.388811375,,,,,,,,,,,,,,,,,,,,,,,,,,,,,,,,,,,,,,,03,011,2022-09-27_09h06.40.007,test2,2022.2.4,59.94492799523171,
0,0,0,0,109,0,109,0,1237.388811375,1237.388811375,1237.388811375,1237.388811375,1237.388811375,1237.388811375,1237.388811375,-1,-1,azul,1,['N_A'],1239.024123159,1239.024123159,1239.024123159,1239.024123159,1241.059709163,1241.059709163,1241.059709163,1241.059709163,1241.059709163,1241.059709163,1241.059709163,1241.059709163,1243.0951046589998,1243.0951046589998,1243.0951046589998,1243.0951046589998,,,,,,,,,,,,,,,,,,,,,,,,,,,,,,,,,,,,,,,03,011,2022-09-27_09h06.40.007,test2,2022.2.4,59.94492799523171,
0,0,0,0,110,0,110,0,1243.0951046589998,1243.0951046589998,1243.0951046589998,1243.0951046589998,1243.0951046589998,1243.0951046589998,1243.0951046589998,1,-1,rojo,1,['N_A'],1245.280342097,1245.280342097,1245.280342097,1245.280342097,1247.316107018,1247.316107018,1247.316107018,1247.316107018,1247.316107018,1247.316107018,1247.316107018,1247.316107018,1249.351855914,1249.351855914,1249.351855914,1249.351855914,,,,,,,,,,,,,,,,,,,,,,,,,,,,,,,,,,,,,,,03,011,2022-09-27_09h06.40.007,test2,2022.2.4,59.94492799523171,
0,0,0,0,111,0,111,0,1249.351855914,1249.351855914,1249.351855914,1249.351855914,1249.351855914,1249.351855914,1249.351855914,1,-1,rojo,1,['N_A'],1251.336997027,1251.336997027,1251.336997027,1251.336997027,1253.3734208209999,1253.3734208209999,1253.3734208209999,1253.3734208209999,1253.3734208209999,1253.3734208209999,1253.3734208209999,1253.3734208209999,1255.407956462,1255.407956462,1255.407956462,1255.407956462,,,,,,,,,,,,,,,,,,,,,,,,,,,,,,,,,,,,,,,03,011,2022-09-27_09h06.40.007,test2,2022.2.4,59.94492799523171,
0,0,0,0,112,0,112,0,1255.407956462,1255.407956462,1255.407956462,1255.407956462,1255.407956462,1255.407956462,1255.407956462,-1,-1,azul,1,['N_A'],1256.910162116,1256.910162116,1256.910162116,1256.910162116,1258.945606833,1258.945606833,1258.945606833,1258.945606833,1258.945606833,1258.945606833,1258.945606833,1258.945606833,1260.98141414,1260.98141414,1260.98141414,1260.98141414,,,,,,,,,,,,,,,,,,,,,,,,,,,,,,,,,,,,,,,03,011,2022-09-27_09h06.40.007,test2,2022.2.4,59.94492799523171,
0,0,0,0,113,0,113,0,1260.98141414,1260.98141414,1260.98141414,1260.98141414,1260.98141414,1260.98141414,1260.98141414,-1,-1,azul,0,['N_B'],1263.467842335,1263.467842335,1263.467842335,1263.467842335,1265.502922463,1265.502922463,1265.502922463,1265.502922463,1265.502922463,1265.502922463,1265.502922463,1265.502922463,1267.5387989399999,1267.5387989399999,1267.5387989399999,1267.5387989399999,,,,,,,,,,,,,,,,,,,,,,,,,,,,,,,,,,,,,,,03,011,2022-09-27_09h06.40.007,test2,2022.2.4,59.94492799523171,
0,0,0,0,114,0,114,0,1267.5387989399999,1267.5387989399999,1267.5387989399999,1267.5387989399999,1267.5387989399999,1267.5387989399999,1267.5387989399999,1,-1,azul,1,['N_B'],1269.540851307,1269.540851307,1269.540851307,1269.540851307,1271.576345423,1271.576345423,1271.576345423,1271.576345423,1271.576345423,1271.576345423,1271.576345423,1271.576345423,1273.61184585,1273.61184585,1273.61184585,1273.61184585,,,,,,,,,,,,,,,,,,,,,,,,,,,,,,,,,,,,,,,03,011,2022-09-27_09h06.40.007,test2,2022.2.4,59.94492799523171,
0,0,0,0,115,0,115,0,1273.61184585,1273.61184585,1273.61184585,1273.61184585,1273.61184585,1273.61184585,1273.61184585,-1,-1,rojo,1,['N_B'],1275.013339266,1275.013339266,1275.013339266,1275.013339266,1277.048772509,1277.048772509,1277.048772509,1277.048772509,1277.048772509,1277.048772509,1277.048772509,1277.048772509,1279.085036183,1279.085036183,1279.085036183,1279.085036183,,,,,,,,,,,,,,,,,,,,,,,,,,,,,,,,,,,,,,,03,011,2022-09-27_09h06.40.007,test2,2022.2.4,59.94492799523171,
0,0,0,0,116,0,116,0,1279.085036183,1279.085036183,1279.085036183,1279.085036183,1279.085036183,1279.085036183,1279.085036183,1,1,azul,1,['N_B'],1280.535775486,1280.535775486,1280.535775486,1280.535775486,1282.571682949,1282.571682949,1282.571682949,1282.571682949,1282.571682949,1282.571682949,1282.571682949,1282.571682949,1284.607471731,1284.607471731,1284.607471731,1284.607471731,,,,,,,,,,,,,,,,,,,,,,,,,,,,,,,,,,,,,,,03,011,2022-09-27_09h06.40.007,test2,2022.2.4,59.94492799523171,
0,0,0,0,117,0,117,0,1284.607471731,1284.607471731,1284.607471731,1284.607471731,1284.607471731,1284.607471731,1284.607471731,1,-1,azul,1,['N_B'],1286.14295745,1286.14295745,1286.14295745,1286.14295745,1288.17827735,1288.17827735,1288.17827735,1288.17827735,1288.17827735,1288.17827735,1288.17827735,1288.17827735,1290.213754827,1290.213754827,1290.213754827,1290.213754827,,,,,,,,,,,,,,,,,,,,,,,,,,,,,,,,,,,,,,,03,011,2022-09-27_09h06.40.007,test2,2022.2.4,59.94492799523171,
0,0,0,0,118,0,118,0,1290.213754827,1290.213754827,1290.213754827,1290.213754827,1290.213754827,1290.213754827,1290.213754827,1,-1,azul,0,['N_A'],1291.598416654,1291.598416654,1291.598416654,1291.598416654,1293.6340797789999,1293.6340797789999,1293.6340797789999,1293.6340797789999,1293.6340797789999,1293.6340797789999,1293.6340797789999,1293.6340797789999,1295.66982466,1295.66982466,1295.66982466,1295.66982466,,,,,,,,,,,,,,,,,,,,,,,,,,,,,,,,,,,,,,,03,011,2022-09-27_09h06.40.007,test2,2022.2.4,59.94492799523171,
0,0,0,0,119,0,119,0,1295.66982466,1295.66982466,1295.66982466,1295.66982466,1295.66982466,1295.66982466,1295.66982466,-1,1,azul,1,['N_A'],1297.2546012999999,1297.2546012999999,1297.2546012999999,1297.2546012999999,1299.2898920559999,1299.2898920559999,1299.2898920559999,1299.2898920559999,1299.2898920559999,1299.2898920559999,1299.2898920559999,1299.2898920559999,1301.3262791289999,1301.3262791289999,1301.3262791289999,1301.3262791289999,,,,,,,,,,,,,,,,,,,,,,,,,,,,,,,,,,,,,,,03,011,2022-09-27_09h06.40.007,test2,2022.2.4,59.94492799523171,
0,0,0,0,120,0,120,0,1301.3262791289999,1301.3262791289999,1301.3262791289999,1301.3262791289999,1301.3262791289999,1301.3262791289999,1301.3262791289999,1,-1,rojo,1,['N_A'],1303.178134268,1303.178134268,1303.178134268,1303.178134268,1305.213425742,1305.213425742,1305.213425742,1305.213425742,1305.213425742,1305.213425742,1305.213425742,1305.213425742,1307.249165687,1307.249165687,1307.249165687,1307.249165687,,,,,,,,,,,,,,,,,,,,,,,,,,,,,,,,,,,,,,,03,011,2022-09-27_09h06.40.007,test2,2022.2.4,59.94492799523171,
0,0,0,0,121,0,121,0,1307.249165687,1307.249165687,1307.249165687,1307.249165687,1307.249165687,1307.249165687,1307.249165687,-1,-1,azul,1,['N_A'],1308.766892133,1308.766892133,1308.766892133,1308.766892133,1310.8028026959998,1310.8028026959998,1310.8028026959998,1310.8028026959998,1310.8028026959998,1310.8028026959998,1310.8028026959998,1310.8028026959998,1312.8388146759999,1312.8388146759999,1312.8388146759999,1312.8388146759999,,,,,,,,,,,,,,,,,,,,,,,,,,,,,,,,,,,,,,,03,011,2022-09-27_09h06.40.007,test2,2022.2.4,59.94492799523171,
0,0,0,0,122,0,122,0,1312.8388146759999,1312.8388146759999,1312.8388146759999,1312.8388146759999,1312.8388146759999,1312.8388146759999,1312.8388146759999,-1,-1,azul,1,['N_A'],1314.4906147049999,1314.4906147049999,1314.4906147049999,1314.4906147049999,1316.525909295,1316.525909295,1316.525909295,1316.525909295,1316.525909295,1316.525909295,1316.525909295,1316.525909295,1318.56164503,1318.56164503,1318.56164503,1318.56164503,,,,,,,,,,,,,,,,,,,,,,,,,,,,,,,,,,,,,,,03,011,2022-09-27_09h06.40.007,test2,2022.2.4,59.94492799523171,
0,0,0,0,123,0,123,0,1318.56164503,1318.56164503,1318.56164503,1318.56164503,1318.56164503,1318.56164503,1318.56164503,1,-1,rojo,1,['N_A'],1320.2298420939999,1320.2298420939999,1320.2298420939999,1320.2298420939999,1322.265403256,1322.265403256,1322.265403256,1322.265403256,1322.265403256,1322.265403256,1322.265403256,1322.265403256,1324.300629489,1324.300629489,1324.300629489,1324.300629489,,,,,,,,,,,,,,,,,,,,,,,,,,,,,,,,,,,,,,,03,011,2022-09-27_09h06.40.007,test2,2022.2.4,59.94492799523171,
0,0,0,0,124,0,124,0,1324.300629489,1324.300629489,1324.300629489,1324.300629489,1324.300629489,1324.300629489,1324.300629489,1,-1,rojo,1,['N_A'],1325.852563495,1325.852563495,1325.852563495,1325.852563495,1327.888291115,1327.888291115,1327.888291115,1327.888291115,1327.888291115,1327.888291115,1327.888291115,1327.888291115,1329.9240452689999,1329.9240452689999,1329.9240452689999,1329.9240452689999,,,,,,,,,,,,,,,,,,,,,,,,,,,,,,,,,,,,,,,03,011,2022-09-27_09h06.40.007,test2,2022.2.4,59.94492799523171,
0,0,0,0,125,0,125,0,1329.9240452689999,1329.9240452689999,1329.9240452689999,1329.9240452689999,1329.9240452689999,1329.9240452689999,1329.9240452689999,1,-1,rojo,0,['N_B'],1331.375363162,1331.375363162,1331.375363162,1331.375363162,1333.411934108,1333.411934108,1333.411934108,1333.411934108,1333.411934108,1333.411934108,1333.411934108,1333.411934108,1335.446930263,1335.446930263,1335.446930263,1335.446930263,,,,,,,,,,,,,,,,,,,,,,,,,,,,,,,,,,,,,,,03,011,2022-09-27_09h06.40.007,test2,2022.2.4,59.94492799523171,
0,0,0,0,126,0,126,0,1335.446930263,1335.446930263,1335.446930263,1335.446930263,1335.446930263,1335.446930263,1335.446930263,1,1,azul,1,['N_B'],1336.965026582,1336.965026582,1336.965026582,1336.965026582,1339.001072749,1339.001072749,1339.001072749,1339.001072749,1339.001072749,1339.001072749,1339.001072749,1339.001072749,1341.0358096769999,1341.0358096769999,1341.0358096769999,1341.0358096769999,,,,,,,,,,,,,,,,,,,,,,,,,,,,,,,,,,,,,,,03,011,2022-09-27_09h06.40.007,test2,2022.2.4,59.94492799523171,
0,0,0,0,127,0,127,0,1341.0358096769999,1341.0358096769999,1341.0358096769999,1341.0358096769999,1341.0358096769999,1341.0358096769999,1341.0358096769999,1,-1,azul,1,['N_B'],1342.5884091169999,1342.5884091169999,1342.5884091169999,1342.5884091169999,1344.6236353499999,1344.6236353499999,1344.6236353499999,1344.6236353499999,1344.6236353499999,1344.6236353499999,1344.6236353499999,1344.6236353499999,1346.658253694,1346.658253694,1346.658253694,1346.658253694,,,,,,,,,,,,,,,,,,,,,,,,,,,,,,,,,,,,,,,03,011,2022-09-27_09h06.40.007,test2,2022.2.4,59.94492799523171,
0,0,0,0,128,0,128,0,1346.658253694,1346.658253694,1346.658253694,1346.658253694,1346.658253694,1346.658253694,1346.658253694,-1,-1,rojo,1,['N_B'],1348.377622578,1348.377622578,1348.377622578,1348.377622578,1350.414031064,1350.414031064,1350.414031064,1350.414031064,1350.414031064,1350.414031064,1350.414031064,1350.414031064,1352.448534951,1352.448534951,1352.448534951,1352.448534951,,,,,,,,,,,,,,,,,,,,,,,,,,,,,,,,,,,,,,,03,011,2022-09-27_09h06.40.007,test2,2022.2.4,59.94492799523171,
0,0,0,0,129,0,129,0,1352.448534951,1352.448534951,1352.448534951,1352.448534951,1352.448534951,1352.448534951,1352.448534951,1,-1,azul,1,['N_B'],1354.1003387629999,1354.1003387629999,1354.1003387629999,1354.1003387629999,1356.136292489,1356.136292489,1356.136292489,1356.136292489,1356.136292489,1356.136292489,1356.136292489,1356.136292489,1358.171468138,1358.171468138,1358.171468138,1358.171468138,,,,,,,,,,,,,,,,,,,,,,,,,,,,,,,,,,,,,,,03,011,2022-09-27_09h06.40.007,test2,2022.2.4,59.94492799523171,
0,0,0,0,130,0,130,0,1358.171468138,1358.171468138,1358.171468138,1358.171468138,1358.171468138,1358.171468138,1358.171468138,1,-1,azul,1,['N_B'],1359.690293954,1359.690293954,1359.690293954,1359.690293954,1361.7257702089998,1361.7257702089998,1361.7257702089998,1361.7257702089998,1361.7257702089998,1361.7257702089998,1361.7257702089998,1361.7257702089998,1363.760919056,1363.760919056,1363.760919056,1363.760919056,,,,,,,,,,,,,,,,,,,,,,,,,,,,,,,,,,,,,,,03,011,2022-09-27_09h06.40.007,test2,2022.2.4,59.94492799523171,
0,0,0,0,131,0,131,0,1363.760919056,1363.760919056,1363.760919056,1363.760919056,1363.760919056,1363.760919056,1363.760919056,1,1,azul,1,['N_B'],1365.413007249,1365.413007249,1365.413007249,1365.413007249,1367.449025032,1367.449025032,1367.449025032,1367.449025032,1367.449025032,1367.449025032,1367.449025032,1367.449025032,1369.485110718,1369.485110718,1369.485110718,1369.485110718,,,,,,,,,,,,,,,,,,,,,,,,,,,,,,,,,,,,,,,03,011,2022-09-27_09h06.40.007,test2,2022.2.4,59.94492799523171,
0,0,0,0,132,0,132,0,1369.485110718,1369.485110718,1369.485110718,1369.485110718,1369.485110718,1369.485110718,1369.485110718,1,-1,azul,0,['N_A'],1371.0529881539999,1371.0529881539999,1371.0529881539999,1371.0529881539999,1373.088364903,1373.088364903,1373.088364903,1373.088364903,1373.088364903,1373.088364903,1373.088364903,1373.088364903,1375.123959634,1375.123959634,1375.123959634,1375.123959634,,,,,,,,,,,,,,,,,,,,,,,,,,,,,,,,,,,,,,,03,011,2022-09-27_09h06.40.007,test2,2022.2.4,59.94492799523171,
0,0,0,0,133,0,133,0,1375.123959634,1375.123959634,1375.123959634,1375.123959634,1375.123959634,1375.123959634,1375.123959634,1,-1,rojo,1,['N_A'],1376.6424957709999,1376.6424957709999,1376.6424957709999,1376.6424957709999,1378.678134519,1378.678134519,1378.678134519,1378.678134519,1378.678134519,1378.678134519,1378.678134519,1378.678134519,1380.713196485,1380.713196485,1380.713196485,1380.713196485,,,,,,,,,,,,,,,,,,,,,,,,,,,,,,,,,,,,,,,03,011,2022-09-27_09h06.40.007,test2,2022.2.4,59.94492799523171,
0,0,0,0,134,0,134,0,1380.713196485,1380.713196485,1380.713196485,1380.713196485,1380.713196485,1380.713196485,1380.713196485,1,-1,rojo,1,['N_A'],1384.1170106299999,1384.1170106299999,1384.1170106299999,1384.1170106299999,1386.153177279,1386.153177279,1386.153177279,1386.153177279,1386.153177279,1386.153177279,1386.153177279,1386.153177279,1388.188982536,1388.188982536,1388.188982536,1388.188982536,,,,,,,,,,,,,,,,,,,,,,,,,,,,,,,,,,,,,,,03,011,2022-09-27_09h06.40.007,test2,2022.2.4,59.94492799523171,
0,0,0,0,135,0,135,0,1388.188982536,1388.188982536,1388.188982536,1388.188982536,1388.188982536,1388.188982536,1388.188982536,1,1,rojo,1,['N_A'],1389.8067676809999,1389.8067676809999,1389.8067676809999,1389.8067676809999,1391.8418186049998,1391.8418186049998,1391.8418186049998,1391.8418186049998,1391.8418186049998,1391.8418186049998,1391.8418186049998,1391.8418186049998,1393.878214503,1393.878214503,1393.878214503,1393.878214503,,,,,,,,,,,,,,,,,,,,,,,,,,,,,,,,,,,,,,,03,011,2022-09-27_09h06.40.007,test2,2022.2.4,59.94492799523171,
0,0,0,0,136,0,136,0,1393.878214503,1393.878214503,1393.878214503,1393.878214503,1393.878214503,1393.878214503,1393.878214503,1,-1,rojo,1,['N_A'],1395.529329063,1395.529329063,1395.529329063,1395.529329063,1397.5653229729999,1397.5653229729999,1397.5653229729999,1397.5653229729999,1397.5653229729999,1397.5653229729999,1397.5653229729999,1397.5653229729999,1399.6007471819998,1399.6007471819998,1399.6007471819998,1399.6007471819998,,,,,,,,,,,,,,,,,,,,,,,,,,,,,,,,,,,,,,,03,011,2022-09-27_09h06.40.007,test2,2022.2.4,59.94492799523171,
0,0,0,0,137,0,137,0,1399.6007471819998,1399.6007471819998,1399.6007471819998,1399.6007471819998,1399.6007471819998,1399.6007471819998,1399.6007471819998,1,-1,rojo,1,['N_A'],1402.020515496,1402.020515496,1402.020515496,1402.020515496,1404.055954121,1404.055954121,1404.055954121,1404.055954121,1404.055954121,1404.055954121,1404.055954121,1404.055954121,1406.091490558,1406.091490558,1406.091490558,1406.091490558,,,,,,,,,,,,,,,,,,,,,,,,,,,,,,,,,,,,,,,03,011,2022-09-27_09h06.40.007,test2,2022.2.4,59.94492799523171,
0,0,0,0,138,0,138,0,1406.091490558,1406.091490558,1406.091490558,1406.091490558,1406.091490558,1406.091490558,1406.091490558,1,1,rojo,1,['N_A'],1407.776065204,1407.776065204,1407.776065204,1407.776065204,1409.811883596,1409.811883596,1409.811883596,1409.811883596,1409.811883596,1409.811883596,1409.811883596,1409.811883596,1411.848119648,1411.848119648,1411.848119648,1411.848119648,,,,,,,,,,,,,,,,,,,,,,,,,,,,,,,,,,,,,,,03,011,2022-09-27_09h06.40.007,test2,2022.2.4,59.94492799523171,
0,0,0,0,139,0,139,0,1411.848119648,1411.848119648,1411.848119648,1411.848119648,1411.848119648,1411.848119648,1411.848119648,1,-1,rojo,1,['N_A'],1413.5997512049998,1413.5997512049998,1413.5997512049998,1413.5997512049998,1415.635692088,1415.635692088,1415.635692088,1415.635692088,1415.635692088,1415.635692088,1415.635692088,1415.635692088,1417.670577434,1417.670577434,1417.670577434,1417.670577434,,,,,,,,,,,,,,,,,,,,,,,,,,,,,,,,,,,,,,,03,011,2022-09-27_09h06.40.007,test2,2022.2.4,59.94492799523171,
0,0,0,0,140,0,140,0,1417.670577434,1417.670577434,1417.670577434,1417.670577434,1417.670577434,1417.670577434,1417.670577434,-1,1,azul,1,['N_A'],1419.3563659459999,1419.3563659459999,1419.3563659459999,1419.3563659459999,1421.374639257,1421.374639257,1421.374639257,1421.374639257,1421.374639257,1421.374639257,1421.374639257,1421.374639257,1423.410810867,1423.410810867,1423.410810867,1423.410810867,,,,,,,,,,,,,,,,,,,,,,,,,,,,,,,,,,,,,,,03,011,2022-09-27_09h06.40.007,test2,2022.2.4,59.94492799523171,
0,0,0,0,141,0,141,0,1423.410810867,1423.410810867,1423.410810867,1423.410810867,1423.410810867,1423.410810867,1423.410810867,1,1,rojo,1,['N_A'],1425.228944757,1425.228944757,1425.228944757,1425.228944757,1427.247297034,1427.247297034,1427.247297034,1427.247297034,1427.247297034,1427.247297034,1427.247297034,1427.247297034,1429.283962347,1429.283962347,1429.283962347,1429.283962347,,,,,,,,,,,,,,,,,,,,,,,,,,,,,,,,,,,,,,,03,011,2022-09-27_09h06.40.007,test2,2022.2.4,59.94492799523171,
0,0,0,0,142,0,142,0,1429.283962347,1429.283962347,1429.283962347,1429.283962347,1429.283962347,1429.283962347,1429.283962347,1,1,rojo,1,['N_A'],1431.002926246,1431.002926246,1431.002926246,1431.002926246,1433.038199145,1433.038199145,1433.038199145,1433.038199145,1433.038199145,1433.038199145,1433.038199145,1433.038199145,1435.073609432,1435.073609432,1435.073609432,1435.073609432,,,,,,,,,,,,,,,,,,,,,,,,,,,,,,,,,,,,,,,03,011,2022-09-27_09h06.40.007,test2,2022.2.4,59.94492799523171,
0,0,0,0,143,0,143,0,1435.073609432,1435.073609432,1435.073609432,1435.073609432,1435.073609432,1435.073609432,1435.073609432,-1,-1,azul,1,['N_A'],1437.859611167,1437.859611167,1437.859611167,1437.859611167,1439.8956776979999,1439.8956776979999,1439.8956776979999,1439.8956776979999,1439.8956776979999,1439.8956776979999,1439.8956776979999,1439.8956776979999,1441.9306254419998,1441.9306254419998,1441.9306254419998,1441.9306254419998,,,,,,,,,,,,,,,,,,,,,,,,,,,,,,,,,,,,,,,03,011,2022-09-27_09h06.40.007,test2,2022.2.4,59.94492799523171,
0,0,0,0,144,0,144,0,1441.9306254419998,1441.9306254419998,1441.9306254419998,1441.9306254419998,1441.9306254419998,1441.9306254419998,1441.9306254419998,1,-1,rojo,1,['N_A'],1443.9503050059998,1443.9503050059998,1443.9503050059998,1443.9503050059998,1445.9851829,1445.9851829,1445.9851829,1445.9851829,1445.9851829,1445.9851829,1445.9851829,1445.9851829,1448.0211585799998,1448.0211585799998,1448.0211585799998,1448.0211585799998,,,,,,,,,,,,,,,,,,,,,,,,,,,,,,,,,,,,,,,03,011,2022-09-27_09h06.40.007,test2,2022.2.4,59.94492799523171,
0,0,0,0,145,0,145,0,1448.0211585799998,1448.0211585799998,1448.0211585799998,1448.0211585799998,1448.0211585799998,1448.0211585799998,1448.0211585799998,-1,-1,azul,1,['N_A'],1449.639611254,1449.639611254,1449.639611254,1449.639611254,1451.6751926729999,1451.6751926729999,1451.6751926729999,1451.6751926729999,1451.6751926729999,1451.6751926729999,1451.6751926729999,1451.6751926729999,1453.710804466,1453.710804466,1453.710804466,1453.710804466,,,,,,,,,,,,,,,,,,,,,,,,,,,,,,,,,,,,,,,03,011,2022-09-27_09h06.40.007,test2,2022.2.4,59.94492799523171,
0,0,0,0,146,0,146,0,1453.710804466,1453.710804466,1453.710804466,1453.710804466,1453.710804466,1453.710804466,1453.710804466,-1,-1,azul,1,['N_A'],1455.1951892450002,1455.1951892450002,1455.1951892450002,1455.1951892450002,1457.2308500190002,1457.2308500190002,1457.2308500190002,1457.2308500190002,1457.2308500190002,1457.2308500190002,1457.2308500190002,1457.2308500190002,1459.267327812,1459.267327812,1459.267327812,1459.267327812,,,,,,,,,,,,,,,,,,,,,,,,,,,,,,,,,,,,,,,03,011,2022-09-27_09h06.40.007,test2,2022.2.4,59.94492799523171,
0,0,0,0,147,0,147,0,1459.267327812,1459.267327812,1459.267327812,1459.267327812,1459.267327812,1459.267327812,1459.267327812,-1,-1,azul,0,['N_B'],1463.020798098,1463.020798098,1463.020798098,1463.020798098,1465.0563568070002,1465.0563568070002,1465.0563568070002,1465.0563568070002,1465.0563568070002,1465.0563568070002,1465.0563568070002,1465.0563568070002,1467.0923155609999,1467.0923155609999,1467.0923155609999,1467.0923155609999,,,,,,,,,,,,,,,,,,,,,,,,,,,,,,,,,,,,,,,03,011,2022-09-27_09h06.40.007,test2,2022.2.4,59.94492799523171,
0,0,0,0,148,0,148,0,1467.0923155609999,1467.0923155609999,1467.0923155609999,1467.0923155609999,1467.0923155609999,1467.0923155609999,1467.0923155609999,-1,-1,rojo,1,['N_B'],1469.9455410169999,1469.9455410169999,1469.9455410169999,1469.9455410169999,1471.980781112,1471.980781112,1471.980781112,1471.980781112,1471.980781112,1471.980781112,1471.980781112,1471.980781112,1474.0165268810001,1474.0165268810001,1474.0165268810001,1474.0165268810001,,,,,,,,,,,,,,,,,,,,,,,,,,,,,,,,,,,,,,,03,011,2022-09-27_09h06.40.007,test2,2022.2.4,59.94492799523171,
0,0,0,0,149,0,149,0,1474.0165268810001,1474.0165268810001,1474.0165268810001,1474.0165268810001,1474.0165268810001,1474.0165268810001,1474.0165268810001,1,-1,azul,1,['N_B'],1476.102105256,1476.102105256,1476.102105256,1476.102105256,1478.137194078,1478.137194078,1478.137194078,1478.137194078,1478.137194078,1478.137194078,1478.137194078,1478.137194078,1480.172761764,1480.172761764,1480.172761764,1480.172761764,,,,,,,,,,,,,,,,,,,,,,,,,,,,,,,,,,,,,,,03,011,2022-09-27_09h06.40.007,test2,2022.2.4,59.94492799523171,
0,0,0,0,150,0,150,0,1480.172761764,1480.172761764,1480.172761764,1480.172761764,1480.172761764,1480.172761764,1480.172761764,1,1,azul,1,['N_B'],1481.8249967319998,1481.8249967319998,1481.8249967319998,1481.8249967319998,1483.8606211239999,1483.8606211239999,1483.8606211239999,1483.8606211239999,1483.8606211239999,1483.8606211239999,1483.8606211239999,1483.8606211239999,1485.896355967,1485.896355967,1485.896355967,1485.896355967,,,,,,,,,,,,,,,,,,,,,,,,,,,,,,,,,,,,,,,03,011,2022-09-27_09h06.40.007,test2,2022.2.4,59.94492799523171,
0,0,0,0,151,0,151,0,1485.896355967,1485.896355967,1485.896355967,1485.896355967,1485.896355967,1485.896355967,1485.896355967,1,-1,azul,1,['N_B'],1488.215553038,1488.215553038,1488.215553038,1488.215553038,1490.2514801879997,1490.2514801879997,1490.2514801879997,1490.2514801879997,1490.2514801879997,1490.2514801879997,1490.2514801879997,1490.2514801879997,1492.2866124450002,1492.2866124450002,1492.2866124450002,1492.2866124450002,,,,,,,,,,,,,,,,,,,,,,,,,,,,,,,,,,,,,,,03,011,2022-09-27_09h06.40.007,test2,2022.2.4,59.94492799523171,
0,0,0,0,152,0,152,0,1492.2866124450002,1492.2866124450002,1492.2866124450002,1492.2866124450002,1492.2866124450002,1492.2866124450002,1492.2866124450002,-1,-1,rojo,1,['N_B'],1500.028526305,1500.028526305,1500.028526305,1500.028526305,1502.064018945,1502.064018945,1502.064018945,1502.064018945,1502.064018945,1502.064018945,1502.064018945,1502.064018945,1504.1000296470002,1504.1000296470002,1504.1000296470002,1504.1000296470002,,,,,,,,,,,,,,,,,,,,,,,,,,,,,,,,,,,,,,,03,011,2022-09-27_09h06.40.007,test2,2022.2.4,59.94492799523171,
0,0,0,0,153,0,153,0,1504.1000296470002,1504.1000296470002,1504.1000296470002,1504.1000296470002,1504.1000296470002,1504.1000296470002,1504.1000296470002,1,1,azul,1,['N_B'],1506.001454352,1506.001454352,1506.001454352,1506.001454352,1508.037303305,1508.037303305,1508.037303305,1508.037303305,1508.037303305,1508.037303305,1508.037303305,1508.037303305,1510.0733389870002,1510.0733389870002,1510.0733389870002,1510.0733389870002,,,,,,,,,,,,,,,,,,,,,,,,,,,,,,,,,,,,,,,03,011,2022-09-27_09h06.40.007,test2,2022.2.4,59.94492799523171,
0,0,0,0,154,0,154,0,1510.0733389870002,1510.0733389870002,1510.0733389870002,1510.0733389870002,1510.0733389870002,1510.0733389870002,1510.0733389870002,1,-1,azul,1,['N_B'],1511.674313162,1511.674313162,1511.674313162,1511.674313162,1513.7100984929998,1513.7100984929998,1513.7100984929998,1513.7100984929998,1513.7100984929998,1513.7100984929998,1513.7100984929998,1513.7100984929998,1515.7458235949998,1515.7458235949998,1515.7458235949998,1515.7458235949998,,,,,,,,,,,,,,,,,,,,,,,,,,,,,,,,,,,,,,,03,011,2022-09-27_09h06.40.007,test2,2022.2.4,59.94492799523171,
0,0,0,0,155,0,155,0,1515.7458235949998,1515.7458235949998,1515.7458235949998,1515.7458235949998,1515.7458235949998,1515.7458235949998,1515.7458235949998,1,-1,azul,1,['N_B'],1517.197234532,1517.197234532,1517.197234532,1517.197234532,1519.232400979,1519.232400979,1519.232400979,1519.232400979,1519.232400979,1519.232400979,1519.232400979,1519.232400979,1521.2689533449998,1521.2689533449998,1521.2689533449998,1521.2689533449998,,,,,,,,,,,,,,,,,,,,,,,,,,,,,,,,,,,,,,,03,011,2022-09-27_09h06.40.007,test2,2022.2.4,59.94492799523171,
0,0,0,0,156,0,156,0,1521.2689533449998,1521.2689533449998,1521.2689533449998,1521.2689533449998,1521.2689533449998,1521.2689533449998,1521.2689533449998,-1,-1,rojo,1,['N_B'],1523.320514553,1523.320514553,1523.320514553,1523.320514553,1525.3561773759998,1525.3561773759998,1525.3561773759998,1525.3561773759998,1525.3561773759998,1525.3561773759998,1525.3561773759998,1525.3561773759998,1527.3914362699998,1527.3914362699998,1527.3914362699998,1527.3914362699998,,,,,,,,,,,,,,,,,,,,,,,,,,,,,,,,,,,,,,,03,011,2022-09-27_09h06.40.007,test2,2022.2.4,59.94492799523171,
0,0,0,0,157,0,157,0,1527.3914362699998,1527.3914362699998,1527.3914362699998,1527.3914362699998,1527.3914362699998,1527.3914362699998,1527.3914362699998,1,1,azul,1,['N_B'],1528.89368551,1528.89368551,1528.89368551,1528.89368551,1530.911606998,1530.911606998,1530.911606998,1530.911606998,1530.911606998,1530.911606998,1530.911606998,1530.911606998,1532.94843468,1532.94843468,1532.94843468,1532.94843468,,,,,,,,,,,,,,,,,,,,,,,,,,,,,,,,,,,,,,,03,011,2022-09-27_09h06.40.007,test2,2022.2.4,59.94492799523171,
0,0,0,0,158,0,158,0,1532.94843468,1532.94843468,1532.94843468,1532.94843468,1532.94843468,1532.94843468,1532.94843468,1,1,azul,1,['N_B'],1535.10044733,1535.10044733,1535.10044733,1535.10044733,1537.135794361,1537.135794361,1537.135794361,1537.135794361,1537.135794361,1537.135794361,1537.135794361,1537.135794361,1539.171779454,1539.171779454,1539.171779454,1539.171779454,,,,,,,,,,,,,,,,,,,,,,,,,,,,,,,,,,,,,,,03,011,2022-09-27_09h06.40.007,test2,2022.2.4,59.94492799523171,
0,0,0,0,159,0,159,0,1539.171779454,1539.171779454,1539.171779454,1539.171779454,1539.171779454,1539.171779454,1539.171779454,1,-1,azul,1,['N_B'],1540.656307021,1540.656307021,1540.656307021,1540.656307021,1542.6924746999998,1542.6924746999998,1542.6924746999998,1542.6924746999998,1542.6924746999998,1542.6924746999998,1542.6924746999998,1542.6924746999998,1544.727283527,1544.727283527,1544.727283527,1544.727283527,,,,,,,,,,,,,,,,,,,,,,,,,,,,,,,,,,,,,,,03,011,2022-09-27_09h06.40.007,test2,2022.2.4,59.94492799523171,
0,0,0,0,160,0,160,0,1544.727283527,1544.727283527,1544.727283527,1544.727283527,1544.727283527,1544.727283527,1544.727283527,1,-1,azul,0,['N_A'],1546.8962660450002,1546.8962660450002,1546.8962660450002,1546.8962660450002,1548.9326286790001,1548.9326286790001,1548.9326286790001,1548.9326286790001,1548.9326286790001,1548.9326286790001,1548.9326286790001,1548.9326286790001,1550.9684292789998,1550.9684292789998,1550.9684292789998,1550.9684292789998,,,,,,,,,,,,,,,,,,,,,,,,,,,,,,,,,,,,,,,03,011,2022-09-27_09h06.40.007,test2,2022.2.4,59.94492799523171,
0,0,0,0,161,0,161,0,1550.9684292789998,1550.9684292789998,1550.9684292789998,1550.9684292789998,1550.9684292789998,1550.9684292789998,1550.9684292789998,1,-1,rojo,1,['N_A'],1552.4530351560002,1552.4530351560002,1552.4530351560002,1552.4530351560002,1554.4885970279997,1554.4885970279997,1554.4885970279997,1554.4885970279997,1554.4885970279997,1554.4885970279997,1554.4885970279997,1554.4885970279997,1556.524138502,1556.524138502,1556.524138502,1556.524138502,,,,,,,,,,,,,,,,,,,,,,,,,,,,,,,,,,,,,,,03,011,2022-09-27_09h06.40.007,test2,2022.2.4,59.94492799523171,
0,0,0,0,162,0,162,0,1556.524138502,1556.524138502,1556.524138502,1556.524138502,1556.524138502,1556.524138502,1556.524138502,-1,-1,azul,1,['N_A'],1558.108887193,1558.108887193,1558.108887193,1558.108887193,1560.145327665,1560.145327665,1560.145327665,1560.145327665,1560.145327665,1560.145327665,1560.145327665,1560.145327665,1562.180627876,1562.180627876,1562.180627876,1562.180627876,,,,,,,,,,,,,,,,,,,,,,,,,,,,,,,,,,,,,,,03,011,2022-09-27_09h06.40.007,test2,2022.2.4,59.94492799523171,
0,0,0,0,163,0,163,0,1562.180627876,1562.180627876,1562.180627876,1562.180627876,1562.180627876,1562.180627876,1562.180627876,-1,1,azul,1,['N_A'],1563.748675705,1563.748675705,1563.748675705,1563.748675705,1565.784046314,1565.784046314,1565.784046314,1565.784046314,1565.784046314,1565.784046314,1565.784046314,1565.784046314,1567.8199191180001,1567.8199191180001,1567.8199191180001,1567.8199191180001,,,,,,,,,,,,,,,,,,,,,,,,,,,,,,,,,,,,,,,03,011,2022-09-27_09h06.40.007,test2,2022.2.4,59.94492799523171,
0,0,0,0,164,0,164,0,1567.8199191180001,1567.8199191180001,1567.8199191180001,1567.8199191180001,1567.8199191180001,1567.8199191180001,1567.8199191180001,-1,-1,azul,1,['N_A'],1569.3382255799997,1569.3382255799997,1569.3382255799997,1569.3382255799997,1571.3740540919998,1571.3740540919998,1571.3740540919998,1571.3740540919998,1571.3740540919998,1571.3740540919998,1571.3740540919998,1571.3740540919998,1573.4097841019998,1573.4097841019998,1573.4097841019998,1573.4097841019998,,,,,,,,,,,,,,,,,,,,,,,,,,,,,,,,,,,,,,,03,011,2022-09-27_09h06.40.007,test2,2022.2.4,59.94492799523171,
0,0,0,0,165,0,165,0,1573.4097841019998,1573.4097841019998,1573.4097841019998,1573.4097841019998,1573.4097841019998,1573.4097841019998,1573.4097841019998,1,1,rojo,1,['N_A'],1575.2781143359998,1575.2781143359998,1575.2781143359998,1575.2781143359998,1577.3138671299998,1577.3138671299998,1577.3138671299998,1577.3138671299998,1577.3138671299998,1577.3138671299998,1577.3138671299998,1577.3138671299998,1579.348821142,1579.348821142,1579.348821142,1579.348821142,,,,,,,,,,,,,,,,,,,,,,,,,,,,,,,,,,,,,,,03,011,2022-09-27_09h06.40.007,test2,2022.2.4,59.94492799523171,
0,0,0,0,166,0,166,0,1579.348821142,1579.348821142,1579.348821142,1579.348821142,1579.348821142,1579.348821142,1579.348821142,1,-1,rojo,1,['N_A'],1580.868154368,1580.868154368,1580.868154368,1580.868154368,1582.903204784,1582.903204784,1582.903204784,1582.903204784,1582.903204784,1582.903204784,1582.903204784,1582.903204784,1584.938158673,1584.938158673,1584.938158673,1584.938158673,,,,,,,,,,,,,,,,,,,,,,,,,,,,,,,,,,,,,,,03,011,2022-09-27_09h06.40.007,test2,2022.2.4,59.94492799523171,
0,0,0,0,167,0,167,0,1584.938158673,1584.938158673,1584.938158673,1584.938158673,1584.938158673,1584.938158673,1584.938158673,-1,-1,azul,1,['N_A'],1586.4575045289998,1586.4575045289998,1586.4575045289998,1586.4575045289998,1588.492547023,1588.492547023,1588.492547023,1588.492547023,1588.492547023,1588.492547023,1588.492547023,1588.492547023,1590.528138832,1590.528138832,1590.528138832,1590.528138832,,,,,,,,,,,,,,,,,,,,,,,,,,,,,,,,,,,,,,,03,011,2022-09-27_09h06.40.007,test2,2022.2.4,59.94492799523171,
0,0,0,0,168,0,168,0,1590.528138832,1590.528138832,1590.528138832,1590.528138832,1590.528138832,1590.528138832,1590.528138832,1,1,rojo,1,['N_A'],1592.3631853850002,1592.3631853850002,1592.3631853850002,1592.3631853850002,1594.399494787,1594.399494787,1594.399494787,1594.399494787,1594.399494787,1594.399494787,1594.399494787,1594.399494787,1596.435129132,1596.435129132,1596.435129132,1596.435129132,,,,,,,,,,,,,,,,,,,,,,,,,,,,,,,,,,,,,,,03,011,2022-09-27_09h06.40.007,test2,2022.2.4,59.94492799523171,
0,0,0,0,169,0,169,0,1596.435129132,1596.435129132,1596.435129132,1596.435129132,1596.435129132,1596.435129132,1596.435129132,1,-1,rojo,1,['N_A'],1601.791021334,1601.791021334,1601.791021334,1601.791021334,1603.825910741,1603.825910741,1603.825910741,1603.825910741,1603.825910741,1603.825910741,1603.825910741,1603.825910741,1605.8616345229998,1605.8616345229998,1605.8616345229998,1605.8616345229998,,,,,,,,,,,,,,,,,,,,,,,,,,,,,,,,,,,,,,,03,011,2022-09-27_09h06.40.007,test2,2022.2.4,59.94492799523171,
0,0,0,0,170,0,170,0,1605.8616345229998,1605.8616345229998,1605.8616345229998,1605.8616345229998,1605.8616345229998,1605.8616345229998,1605.8616345229998,1,-1,rojo,1,['N_A'],1607.679925373,1607.679925373,1607.679925373,1607.679925373,1609.7162465719998,1609.7162465719998,1609.7162465719998,1609.7162465719998,1609.7162465719998,1609.7162465719998,1609.7162465719998,1609.7162465719998,1611.7519440659999,1611.7519440659999,1611.7519440659999,1611.7519440659999,,,,,,,,,,,,,,,,,,,,,,,,,,,,,,,,,,,,,,,03,011,2022-09-27_09h06.40.007,test2,2022.2.4,59.94492799523171,
0,0,0,0,171,0,171,0,1611.7519440659999,1611.7519440659999,1611.7519440659999,1611.7519440659999,1611.7519440659999,1611.7519440659999,1611.7519440659999,-1,-1,azul,1,['N_A'],1615.0383991059998,1615.0383991059998,1615.0383991059998,1615.0383991059998,1617.0746807239998,1617.0746807239998,1617.0746807239998,1617.0746807239998,1617.0746807239998,1617.0746807239998,1617.0746807239998,1617.0746807239998,1619.1102846580002,1619.1102846580002,1619.1102846580002,1619.1102846580002,,,,,,,,,,,,,,,,,,,,,,,,,,,,,,,,,,,,,,,03,011,2022-09-27_09h06.40.007,test2,2022.2.4,59.94492799523171,
0,0,0,0,172,0,172,0,1619.1102846580002,1619.1102846580002,1619.1102846580002,1619.1102846580002,1619.1102846580002,1619.1102846580002,1619.1102846580002,1,-1,rojo,0,['N_B'],1621.16189075,1621.16189075,1621.16189075,1621.16189075,1623.197378115,1623.197378115,1623.197378115,1623.197378115,1623.197378115,1623.197378115,1623.197378115,1623.197378115,1625.2329634940002,1625.2329634940002,1625.2329634940002,1625.2329634940002,,,,,,,,,,,,,,,,,,,,,,,,,,,,,,,,,,,,,,,03,011,2022-09-27_09h06.40.007,test2,2022.2.4,59.94492799523171,
0,0,0,0,173,0,173,0,1625.2329634940002,1625.2329634940002,1625.2329634940002,1625.2329634940002,1625.2329634940002,1625.2329634940002,1625.2329634940002,-1,-1,rojo,1,['N_B'],1627.0186726349998,1627.0186726349998,1627.0186726349998,1627.0186726349998,1629.055088952,1629.055088952,1629.055088952,1629.055088952,1629.055088952,1629.055088952,1629.055088952,1629.055088952,1631.089373245,1631.089373245,1631.089373245,1631.089373245,,,,,,,,,,,,,,,,,,,,,,,,,,,,,,,,,,,,,,,03,011,2022-09-27_09h06.40.007,test2,2022.2.4,59.94492799523171,
0,0,0,0,174,0,174,0,1631.089373245,1631.089373245,1631.089373245,1631.089373245,1631.089373245,1631.089373245,1631.089373245,1,-1,azul,1,['N_B'],1632.6083934160001,1632.6083934160001,1632.6083934160001,1632.6083934160001,1634.642883642,1634.642883642,1634.642883642,1634.642883642,1634.642883642,1634.642883642,1634.642883642,1634.642883642,1636.679001903,1636.679001903,1636.679001903,1636.679001903,,,,,,,,,,,,,,,,,,,,,,,,,,,,,,,,,,,,,,,03,011,2022-09-27_09h06.40.007,test2,2022.2.4,59.94492799523171,
0,0,0,0,175,0,175,0,1636.679001903,1636.679001903,1636.679001903,1636.679001903,1636.679001903,1636.679001903,1636.679001903,1,-1,azul,1,['N_B'],1638.797610179,1638.797610179,1638.797610179,1638.797610179,1640.8336562929999,1640.8336562929999,1640.8336562929999,1640.8336562929999,1640.8336562929999,1640.8336562929999,1640.8336562929999,1640.8336562929999,1642.8698046660002,1642.8698046660002,1642.8698046660002,1642.8698046660002,,,,,,,,,,,,,,,,,,,,,,,,,,,,,,,,,,,,,,,03,011,2022-09-27_09h06.40.007,test2,2022.2.4,59.94492799523171,
0,0,0,0,176,0,176,0,1642.8698046660002,1642.8698046660002,1642.8698046660002,1642.8698046660002,1642.8698046660002,1642.8698046660002,1642.8698046660002,-1,-1,rojo,1,['N_B'],1647.641837878,1647.641837878,1647.641837878,1647.641837878,1649.676907295,1649.676907295,1649.676907295,1649.676907295,1649.676907295,1649.676907295,1649.676907295,1649.676907295,1651.7122445280002,1651.7122445280002,1651.7122445280002,1651.7122445280002,,,,,,,,,,,,,,,,,,,,,,,,,,,,,,,,,,,,,,,03,011,2022-09-27_09h06.40.007,test2,2022.2.4,59.94492799523171,
0,0,0,0,177,0,177,0,1651.7122445280002,1651.7122445280002,1651.7122445280002,1651.7122445280002,1651.7122445280002,1651.7122445280002,1651.7122445280002,1,-1,azul,1,['N_B'],1653.881280137,1653.881280137,1653.881280137,1653.881280137,1655.9171852230002,1655.9171852230002,1655.9171852230002,1655.9171852230002,1655.9171852230002,1655.9171852230002,1655.9171852230002,1655.9171852230002,1657.9529695249998,1657.9529695249998,1657.9529695249998,1657.9529695249998,,,,,,,,,,,,,,,,,,,,,,,,,,,,,,,,,,,,,,,03,011,2022-09-27_09h06.40.007,test2,2022.2.4,59.94492799523171,
0,0,0,0,178,0,178,0,1657.9529695249998,1657.9529695249998,1657.9529695249998,1657.9529695249998,1657.9529695249998,1657.9529695249998,1657.9529695249998,-1,-1,rojo,1,['N_B'],1661.5396947499999,1661.5396947499999,1661.5396947499999,1661.5396947499999,1663.5753773269998,1663.5753773269998,1663.5753773269998,1663.5753773269998,1663.5753773269998,1663.5753773269998,1663.5753773269998,1663.5753773269998,1665.610845048,1665.610845048,1665.610845048,1665.610845048,,,,,,,,,,,,,,,,,,,,,,,,,,,,,,,,,,,,,,,03,011,2022-09-27_09h06.40.007,test2,2022.2.4,59.94492799523171,
0,0,0,0,179,0,179,0,1665.610845048,1665.610845048,1665.610845048,1665.610845048,1665.610845048,1665.610845048,1665.610845048,1,-1,azul,0,['N_A'],1668.647655712,1668.647655712,1668.647655712,1668.647655712,1670.683199606,1670.683199606,1670.683199606,1670.683199606,1670.683199606,1670.683199606,1670.683199606,1670.683199606,1672.718534607,1672.718534607,1672.718534607,1672.718534607,,,,,,,,,,,,,,,,,,,,,,,,,,,,,,,,,,,,,,,03,011,2022-09-27_09h06.40.007,test2,2022.2.4,59.94492799523171,
0,0,0,0,180,0,180,0,1672.718534607,1672.718534607,1672.718534607,1672.718534607,1672.718534607,1672.718534607,1672.718534607,1,-1,rojo,1,['N_A'],1674.3046181,1674.3046181,1674.3046181,1674.3046181,1676.339261986,1676.339261986,1676.339261986,1676.339261986,1676.339261986,1676.339261986,1676.339261986,1676.339261986,1678.375052765,1678.375052765,1678.375052765,1678.375052765,,,,,,,,,,,,,,,,,,,,,,,,,,,,,,,,,,,,,,,03,011,2022-09-27_09h06.40.007,test2,2022.2.4,59.94492799523171,
0,0,0,0,181,0,181,0,1678.375052765,1678.375052765,1678.375052765,1678.375052765,1678.375052765,1678.375052765,1678.375052765,1,1,rojo,1,['N_A'],1680.56107173,1680.56107173,1680.56107173,1680.56107173,1682.579130814,1682.579130814,1682.579130814,1682.579130814,1682.579130814,1682.579130814,1682.579130814,1682.579130814,1684.6155066259998,1684.6155066259998,1684.6155066259998,1684.6155066259998,,,,,,,,,,,,,,,,,,,,,,,,,,,,,,,,,,,,,,,03,011,2022-09-27_09h06.40.007,test2,2022.2.4,59.94492799523171,
0,0,0,0,182,0,182,0,1684.6155066259998,1684.6155066259998,1684.6155066259998,1684.6155066259998,1684.6155066259998,1684.6155066259998,1684.6155066259998,1,1,rojo,1,['N_A'],1686.1503920290002,1686.1503920290002,1686.1503920290002,1686.1503920290002,1688.185875188,1688.185875188,1688.185875188,1688.185875188,1688.185875188,1688.185875188,1688.185875188,1688.185875188,1690.2216033989998,1690.2216033989998,1690.2216033989998,1690.2216033989998,,,,,,,,,,,,,,,,,,,,,,,,,,,,,,,,,,,,,,,03,011,2022-09-27_09h06.40.007,test2,2022.2.4,59.94492799523171,
0,0,0,0,183,0,183,0,1690.2216033989998,1690.2216033989998,1690.2216033989998,1690.2216033989998,1690.2216033989998,1690.2216033989998,1690.2216033989998,-1,-1,azul,1,['N_A'],1691.856687049,1691.856687049,1691.856687049,1691.856687049,1693.8921766859999,1693.8921766859999,1693.8921766859999,1693.8921766859999,1693.8921766859999,1693.8921766859999,1693.8921766859999,1693.8921766859999,1695.928112089,1695.928112089,1695.928112089,1695.928112089,,,,,,,,,,,,,,,,,,,,,,,,,,,,,,,,,,,,,,,03,011,2022-09-27_09h06.40.007,test2,2022.2.4,59.94492799523171,
0,0,0,0,184,0,184,0,1695.928112089,1695.928112089,1695.928112089,1695.928112089,1695.928112089,1695.928112089,1695.928112089,1,-1,rojo,1,['N_A'],1697.378927322,1697.378927322,1697.378927322,1697.378927322,1699.4146254020002,1699.4146254020002,1699.4146254020002,1699.4146254020002,1699.4146254020002,1699.4146254020002,1699.4146254020002,1699.4146254020002,1701.450907887,1701.450907887,1701.450907887,1701.450907887,,,,,,,,,,,,,,,,,,,,,,,,,,,,,,,,,,,,,,,03,011,2022-09-27_09h06.40.007,test2,2022.2.4,59.94492799523171,
0,0,0,0,185,0,185,0,1701.450907887,1701.450907887,1701.450907887,1701.450907887,1701.450907887,1701.450907887,1701.450907887,-1,-1,azul,0,['N_B'],1702.935204598,1702.935204598,1702.935204598,1702.935204598,1704.9713440209998,1704.9713440209998,1704.9713440209998,1704.9713440209998,1704.9713440209998,1704.9713440209998,1704.9713440209998,1704.9713440209998,1707.006326834,1707.006326834,1707.006326834,1707.006326834,,,,,,,,,,,,,,,,,,,,,,,,,,,,,,,,,,,,,,,03,011,2022-09-27_09h06.40.007,test2,2022.2.4,59.94492799523171,
0,0,0,0,186,0,186,0,1707.006326834,1707.006326834,1707.006326834,1707.006326834,1707.006326834,1707.006326834,1707.006326834,-1,-1,rojo,1,['N_B'],1708.7248004960002,1708.7248004960002,1708.7248004960002,1708.7248004960002,1710.761067073,1710.761067073,1710.761067073,1710.761067073,1710.761067073,1710.761067073,1710.761067073,1710.761067073,1712.7968577010001,1712.7968577010001,1712.7968577010001,1712.7968577010001,,,,,,,,,,,,,,,,,,,,,,,,,,,,,,,,,,,,,,,03,011,2022-09-27_09h06.40.007,test2,2022.2.4,59.94492799523171,
0,0,0,0,187,0,187,0,1712.7968577010001,1712.7968577010001,1712.7968577010001,1712.7968577010001,1712.7968577010001,1712.7968577010001,1712.7968577010001,1,1,azul,1,['N_B'],1715.282727067,1715.282727067,1715.282727067,1715.282727067,1717.3184482699999,1717.3184482699999,1717.3184482699999,1717.3184482699999,1717.3184482699999,1717.3184482699999,1717.3184482699999,1717.3184482699999,1719.3538193640002,1719.3538193640002,1719.3538193640002,1719.3538193640002,,,,,,,,,,,,,,,,,,,,,,,,,,,,,,,,,,,,,,,03,011,2022-09-27_09h06.40.007,test2,2022.2.4,59.94492799523171,
0,0,0,0,188,0,188,0,1719.3538193640002,1719.3538193640002,1719.3538193640002,1719.3538193640002,1719.3538193640002,1719.3538193640002,1719.3538193640002,-1,-1,rojo,1,['N_B'],1724.0088882260002,1724.0088882260002,1724.0088882260002,1724.0088882260002,1726.04442513,1726.04442513,1726.04442513,1726.04442513,1726.04442513,1726.04442513,1726.04442513,1726.04442513,1728.079772612,1728.079772612,1728.079772612,1728.079772612,,,,,,,,,,,,,,,,,,,,,,,,,,,,,,,,,,,,,,,03,011,2022-09-27_09h06.40.007,test2,2022.2.4,59.94492799523171,
0,0,0,0,189,0,189,0,1728.079772612,1728.079772612,1728.079772612,1728.079772612,1728.079772612,1728.079772612,1728.079772612,1,1,azul,1,['N_B'],1732.20154,1732.20154,1732.20154,1732.20154,1734.2364970009999,1734.2364970009999,1734.2364970009999,1734.2364970009999,1734.2364970009999,1734.2364970009999,1734.2364970009999,1734.2364970009999,1736.272826422,1736.272826422,1736.272826422,1736.272826422,,,,,,,,,,,,,,,,,,,,,,,,,,,,,,,,,,,,,,,03,011,2022-09-27_09h06.40.007,test2,2022.2.4,59.94492799523171,
0,0,0,0,190,0,190,0,1736.272826422,1736.272826422,1736.272826422,1736.272826422,1736.272826422,1736.272826422,1736.272826422,1,-1,azul,1,['N_B'],1739.592489443,1739.592489443,1739.592489443,1739.592489443,1741.628316709,1741.628316709,1741.628316709,1741.628316709,1741.628316709,1741.628316709,1741.628316709,1741.628316709,1743.6635386960002,1743.6635386960002,1743.6635386960002,1743.6635386960002,,,,,,,,,,,,,,,,,,,,,,,,,,,,,,,,,,,,,,,03,011,2022-09-27_09h06.40.007,test2,2022.2.4,59.94492799523171,
0,0,0,0,191,0,191,0,1743.6635386960002,1743.6635386960002,1743.6635386960002,1743.6635386960002,1743.6635386960002,1743.6635386960002,1743.6635386960002,-1,-1,rojo,1,['N_B'],1746.2833582570001,1746.2833582570001,1746.2833582570001,1746.2833582570001,1748.31772915,1748.31772915,1748.31772915,1748.31772915,1748.31772915,1748.31772915,1748.31772915,1748.31772915,1750.3548591119998,1750.3548591119998,1750.3548591119998,1750.3548591119998,,,,,,,,,,,,,,,,,,,,,,,,,,,,,,,,,,,,,,,03,011,2022-09-27_09h06.40.007,test2,2022.2.4,59.94492799523171,
