trials_2.thisRepN,trials_2.thisTrialN,trials_2.thisN,trials_2.thisIndex,trials.thisRepN,trials.thisTrialN,trials.thisN,trials.thisIndex,Instrucción2.started,N_A_4.started,N_B_4.started,Exitos_3.started,Dias_3.started,Stimuli_1.started,Stimuli_2.started,Transitions,Rewards,Mode,Stay,Neighbour,Stimuli_3.started,Modo.started,Dias2.started,Exitos2.started,Stimuli_3.stopped,Modo.stopped,Dias2.stopped,Exitos2.stopped,Reward.started,Stimuli_reward.started,Exitos3.started,Dias3.started,Reward.stopped,Stimuli_reward.stopped,Exitos3.stopped,Dias3.stopped,Cue_text.started,Stimuli_4.started,Exitos4.started,Dias4.started,Stimuli_3_3.started,Stimuli_2_3.started,Instrucción.started,N_A.started,N_B.started,N_C.started,Exitos_2.started,Dias_2.started,Stimuli_1_3.started,Stimuli_3_2.started,Stimuli_2_2.started,Pregunta.started,N_A_2.started,N_B_2.started,N_C_2.started,Exitos5.started,Dias5.started,Stimuli_1_2.started,Resp_final_1,Modo2.started,Modo1.started,Pregunta_4.started,Modo3.started,Exitos7.started,Dias6.started,Resp_final_2,Modo1_2.started,Pregunta_3.started,Modo2_2.started,Exitos8.started,Dias7.started,Resp_final_3,Mensaje_Final2.started,Exitos6.started,participant,session,date,expName,psychopyVersion,frameRate,
0,0,0,0,0,0,0,0,1545.877271434,1545.877271434,1545.877271434,1545.877271434,1545.877271434,1545.877271434,1545.877271434,0,0,0,0,['N_A'],1558.306557896,1558.306557896,1558.306557896,1558.306557896,1560.343403181,1560.343403181,1560.343403181,1560.343403181,1560.343403181,1560.343403181,1560.343403181,1560.343403181,1562.378250366,1562.378250366,1562.378250366,1562.378250366,,,,,,,,,,,,,,,,,,,,,,,,,,,,,,,,,,,,,,,05,005,2022-09-23_10h28.53.165,test2,2022.2.4,60.0015201985375,
0,0,0,0,1,0,1,0,1562.378250366,1562.378250366,1562.378250366,1562.378250366,1562.378250366,1562.378250366,1562.378250366,1,-1,rojo,1,['N_A'],1570.170413217,1570.170413217,1570.170413217,1570.170413217,1572.2060718940002,1572.2060718940002,1572.2060718940002,1572.2060718940002,1572.2060718940002,1572.2060718940002,1572.2060718940002,1572.2060718940002,1574.241409689,1574.241409689,1574.241409689,1574.241409689,,,,,,,,,,,,,,,,,,,,,,,,,,,,,,,,,,,,,,,05,005,2022-09-23_10h28.53.165,test2,2022.2.4,60.0015201985375,
0,0,0,0,2,0,2,0,1574.241409689,1574.241409689,1574.241409689,1574.241409689,1574.241409689,1574.241409689,1574.241409689,1,-1,rojo,0,['N_B'],1577.328377062,1577.328377062,1577.328377062,1577.328377062,1579.363945483,1579.363945483,1579.363945483,1579.363945483,1579.363945483,1579.363945483,1579.363945483,1579.363945483,1581.399602065,1581.399602065,1581.399602065,1581.399602065,,,,,,,,,,,,,,,,,,,,,,,,,,,,,,,,,,,,,,,05,005,2022-09-23_10h28.53.165,test2,2022.2.4,60.0015201985375,
0,0,0,0,3,0,3,0,1581.399602065,1581.399602065,1581.399602065,1581.399602065,1581.399602065,1581.399602065,1581.399602065,1,-1,azul,1,['N_B'],1583.4852225260001,1583.4852225260001,1583.4852225260001,1583.4852225260001,1585.553279511,1585.553279511,1585.553279511,1585.553279511,1585.553279511,1585.553279511,1585.553279511,1585.553279511,1587.5898310530001,1587.5898310530001,1587.5898310530001,1587.5898310530001,,,,,,,,,,,,,,,,,,,,,,,,,,,,,,,,,,,,,,,05,005,2022-09-23_10h28.53.165,test2,2022.2.4,60.0015201985375,
0,0,0,0,4,0,4,0,1587.5898310530001,1587.5898310530001,1587.5898310530001,1587.5898310530001,1587.5898310530001,1587.5898310530001,1587.5898310530001,-1,1,rojo,1,['N_B'],1590.7099460690001,1590.7099460690001,1590.7099460690001,1590.7099460690001,1592.745563525,1592.745563525,1592.745563525,1592.745563525,1592.745563525,1592.745563525,1592.745563525,1592.745563525,1594.781118485,1594.781118485,1594.781118485,1594.781118485,,,,,,,,,,,,,,,,,,,,,,,,,,,,,,,,,,,,,,,05,005,2022-09-23_10h28.53.165,test2,2022.2.4,60.0015201985375,
0,0,0,0,5,0,5,0,1594.781118485,1594.781118485,1594.781118485,1594.781118485,1594.781118485,1594.781118485,1594.781118485,-1,-1,rojo,0,['N_A'],1598.768996769,1598.768996769,1598.768996769,1598.768996769,1600.804438928,1600.804438928,1600.804438928,1600.804438928,1600.804438928,1600.804438928,1600.804438928,1600.804438928,1602.840405481,1602.840405481,1602.840405481,1602.840405481,,,,,,,,,,,,,,,,,,,,,,,,,,,,,,,,,,,,,,,05,005,2022-09-23_10h28.53.165,test2,2022.2.4,60.0015201985375,
0,0,0,0,6,0,6,0,1602.840405481,1602.840405481,1602.840405481,1602.840405481,1602.840405481,1602.840405481,1602.840405481,1,-1,rojo,1,['N_A'],1605.876563436,1605.876563436,1605.876563436,1605.876563436,1607.912663667,1607.912663667,1607.912663667,1607.912663667,1607.912663667,1607.912663667,1607.912663667,1607.912663667,1609.948154125,1609.948154125,1609.948154125,1609.948154125,,,,,,,,,,,,,,,,,,,,,,,,,,,,,,,,,,,,,,,05,005,2022-09-23_10h28.53.165,test2,2022.2.4,60.0015201985375,
0,0,0,0,7,0,7,0,1609.948154125,1609.948154125,1609.948154125,1609.948154125,1609.948154125,1609.948154125,1609.948154125,1,-1,rojo,0,['N_B'],1611.332993662,1611.332993662,1611.332993662,1611.332993662,1613.368454101,1613.368454101,1613.368454101,1613.368454101,1613.368454101,1613.368454101,1613.368454101,1613.368454101,1615.4033687170001,1615.4033687170001,1615.4033687170001,1615.4033687170001,,,,,,,,,,,,,,,,,,,,,,,,,,,,,,,,,,,,,,,05,005,2022-09-23_10h28.53.165,test2,2022.2.4,60.0015201985375,
0,0,0,0,8,0,8,0,1615.4033687170001,1615.4033687170001,1615.4033687170001,1615.4033687170001,1615.4033687170001,1615.4033687170001,1615.4033687170001,1,1,azul,1,['N_B'],1617.0224753539999,1617.0224753539999,1617.0224753539999,1617.0224753539999,1619.041257834,1619.041257834,1619.041257834,1619.041257834,1619.041257834,1619.041257834,1619.041257834,1619.041257834,1621.076766126,1621.076766126,1621.076766126,1621.076766126,,,,,,,,,,,,,,,,,,,,,,,,,,,,,,,,,,,,,,,05,005,2022-09-23_10h28.53.165,test2,2022.2.4,60.0015201985375,
0,0,0,0,9,0,9,0,1621.076766126,1621.076766126,1621.076766126,1621.076766126,1621.076766126,1621.076766126,1621.076766126,-1,1,rojo,1,['N_B'],1623.4961549440002,1623.4961549440002,1623.4961549440002,1623.4961549440002,1625.515460769,1625.515460769,1625.515460769,1625.515460769,1625.515460769,1625.515460769,1625.515460769,1625.515460769,1627.5505776490002,1627.5505776490002,1627.5505776490002,1627.5505776490002,,,,,,,,,,,,,,,,,,,,,,,,,,,,,,,,,,,,,,,05,005,2022-09-23_10h28.53.165,test2,2022.2.4,60.0015201985375,
0,0,0,0,10,0,10,0,1627.5505776490002,1627.5505776490002,1627.5505776490002,1627.5505776490002,1627.5505776490002,1627.5505776490002,1627.5505776490002,-1,1,rojo,1,['N_B'],1629.335654847,1629.335654847,1629.335654847,1629.335654847,1631.353925832,1631.353925832,1631.353925832,1631.353925832,1631.353925832,1631.353925832,1631.353925832,1631.353925832,1633.3901884630002,1633.3901884630002,1633.3901884630002,1633.3901884630002,,,,,,,,,,,,,,,,,,,,,,,,,,,,,,,,,,,,,,,05,005,2022-09-23_10h28.53.165,test2,2022.2.4,60.0015201985375,
0,0,0,0,11,0,11,0,1633.3901884630002,1633.3901884630002,1633.3901884630002,1633.3901884630002,1633.3901884630002,1633.3901884630002,1633.3901884630002,1,1,azul,1,['N_B'],1635.7427670499999,1635.7427670499999,1635.7427670499999,1635.7427670499999,1637.7623518379999,1637.7623518379999,1637.7623518379999,1637.7623518379999,1637.7623518379999,1637.7623518379999,1637.7623518379999,1637.7623518379999,1639.7973647830001,1639.7973647830001,1639.7973647830001,1639.7973647830001,,,,,,,,,,,,,,,,,,,,,,,,,,,,,,,,,,,,,,,05,005,2022-09-23_10h28.53.165,test2,2022.2.4,60.0015201985375,
0,0,0,0,12,0,12,0,1639.7973647830001,1639.7973647830001,1639.7973647830001,1639.7973647830001,1639.7973647830001,1639.7973647830001,1639.7973647830001,1,1,azul,1,['N_B'],1641.548829791,1641.548829791,1641.548829791,1641.548829791,1643.584462785,1643.584462785,1643.584462785,1643.584462785,1643.584462785,1643.584462785,1643.584462785,1643.584462785,1645.620700912,1645.620700912,1645.620700912,1645.620700912,,,,,,,,,,,,,,,,,,,,,,,,,,,,,,,,,,,,,,,05,005,2022-09-23_10h28.53.165,test2,2022.2.4,60.0015201985375,
0,0,0,0,13,0,13,0,1645.620700912,1645.620700912,1645.620700912,1645.620700912,1645.620700912,1645.620700912,1645.620700912,-1,-1,rojo,1,['N_B'],1648.606520222,1648.606520222,1648.606520222,1648.606520222,1650.6426715230002,1650.6426715230002,1650.6426715230002,1650.6426715230002,1650.6426715230002,1650.6426715230002,1650.6426715230002,1650.6426715230002,1652.678505826,1652.678505826,1652.678505826,1652.678505826,,,,,,,,,,,,,,,,,,,,,,,,,,,,,,,,,,,,,,,05,005,2022-09-23_10h28.53.165,test2,2022.2.4,60.0015201985375,
0,0,0,0,14,0,14,0,1652.678505826,1652.678505826,1652.678505826,1652.678505826,1652.678505826,1652.678505826,1652.678505826,-1,1,rojo,1,['N_B'],1655.030735351,1655.030735351,1655.030735351,1655.030735351,1657.0499469469999,1657.0499469469999,1657.0499469469999,1657.0499469469999,1657.0499469469999,1657.0499469469999,1657.0499469469999,1657.0499469469999,1659.08508456,1659.08508456,1659.08508456,1659.08508456,,,,,,,,,,,,,,,,,,,,,,,,,,,,,,,,,,,,,,,05,005,2022-09-23_10h28.53.165,test2,2022.2.4,60.0015201985375,
0,0,0,0,15,0,15,0,1659.08508456,1659.08508456,1659.08508456,1659.08508456,1659.08508456,1659.08508456,1659.08508456,1,1,azul,0,['N_A'],1661.3210274240002,1661.3210274240002,1661.3210274240002,1661.3210274240002,1663.340410816,1663.340410816,1663.340410816,1663.340410816,1663.340410816,1663.340410816,1663.340410816,1663.340410816,1665.3757605859998,1665.3757605859998,1665.3757605859998,1665.3757605859998,,,,,,,,,,,,,,,,,,,,,,,,,,,,,,,,,,,,,,,05,005,2022-09-23_10h28.53.165,test2,2022.2.4,60.0015201985375,
0,0,0,0,16,0,16,0,1665.3757605859998,1665.3757605859998,1665.3757605859998,1665.3757605859998,1665.3757605859998,1665.3757605859998,1665.3757605859998,1,1,rojo,1,['N_A'],1667.728049688,1667.728049688,1667.728049688,1667.728049688,1669.7635051109999,1669.7635051109999,1669.7635051109999,1669.7635051109999,1669.7635051109999,1669.7635051109999,1669.7635051109999,1669.7635051109999,1671.7997693109999,1671.7997693109999,1671.7997693109999,1671.7997693109999,,,,,,,,,,,,,,,,,,,,,,,,,,,,,,,,,,,,,,,05,005,2022-09-23_10h28.53.165,test2,2022.2.4,60.0015201985375,
0,0,0,0,17,0,17,0,1671.7997693109999,1671.7997693109999,1671.7997693109999,1671.7997693109999,1671.7997693109999,1671.7997693109999,1671.7997693109999,1,-1,rojo,0,['N_B'],1673.3006020720002,1673.3006020720002,1673.3006020720002,1673.3006020720002,1675.3366045200003,1675.3366045200003,1675.3366045200003,1675.3366045200003,1675.3366045200003,1675.3366045200003,1675.3366045200003,1675.3366045200003,1677.372590918,1677.372590918,1677.372590918,1677.372590918,,,,,,,,,,,,,,,,,,,,,,,,,,,,,,,,,,,,,,,05,005,2022-09-23_10h28.53.165,test2,2022.2.4,60.0015201985375,
0,0,0,0,18,0,18,0,1677.372590918,1677.372590918,1677.372590918,1677.372590918,1677.372590918,1677.372590918,1677.372590918,1,-1,azul,1,['N_B'],1680.057948894,1680.057948894,1680.057948894,1680.057948894,1682.0946517280001,1682.0946517280001,1682.0946517280001,1682.0946517280001,1682.0946517280001,1682.0946517280001,1682.0946517280001,1682.0946517280001,1684.129480332,1684.129480332,1684.129480332,1684.129480332,,,,,,,,,,,,,,,,,,,,,,,,,,,,,,,,,,,,,,,05,005,2022-09-23_10h28.53.165,test2,2022.2.4,60.0015201985375,
0,0,0,0,19,0,19,0,1684.129480332,1684.129480332,1684.129480332,1684.129480332,1684.129480332,1684.129480332,1684.129480332,1,1,azul,1,['N_B'],1685.8476806320002,1685.8476806320002,1685.8476806320002,1685.8476806320002,1687.8673473280003,1687.8673473280003,1687.8673473280003,1687.8673473280003,1687.8673473280003,1687.8673473280003,1687.8673473280003,1687.8673473280003,1689.902466931,1689.902466931,1689.902466931,1689.902466931,,,,,,,,,,,,,,,,,,,,,,,,,,,,,,,,,,,,,,,05,005,2022-09-23_10h28.53.165,test2,2022.2.4,60.0015201985375,
0,0,0,0,20,0,20,0,1689.902466931,1689.902466931,1689.902466931,1689.902466931,1689.902466931,1689.902466931,1689.902466931,-1,1,rojo,1,['N_B'],1691.8218261939999,1691.8218261939999,1691.8218261939999,1691.8218261939999,1693.857520706,1693.857520706,1693.857520706,1693.857520706,1693.857520706,1693.857520706,1693.857520706,1693.857520706,1695.892805699,1695.892805699,1695.892805699,1695.892805699,,,,,,,,,,,,,,,,,,,,,,,,,,,,,,,,,,,,,,,05,005,2022-09-23_10h28.53.165,test2,2022.2.4,60.0015201985375,
0,0,0,0,21,0,21,0,1695.892805699,1695.892805699,1695.892805699,1695.892805699,1695.892805699,1695.892805699,1695.892805699,1,-1,azul,0,['N_A'],1698.245273366,1698.245273366,1698.245273366,1698.245273366,1700.28096694,1700.28096694,1700.28096694,1700.28096694,1700.28096694,1700.28096694,1700.28096694,1700.28096694,1702.3165915030002,1702.3165915030002,1702.3165915030002,1702.3165915030002,,,,,,,,,,,,,,,,,,,,,,,,,,,,,,,,,,,,,,,05,005,2022-09-23_10h28.53.165,test2,2022.2.4,60.0015201985375,
0,0,0,0,22,0,22,0,1702.3165915030002,1702.3165915030002,1702.3165915030002,1702.3165915030002,1702.3165915030002,1702.3165915030002,1702.3165915030002,1,-1,rojo,0,['N_B'],1703.734508716,1703.734508716,1703.734508716,1703.734508716,1705.7699686130002,1705.7699686130002,1705.7699686130002,1705.7699686130002,1705.7699686130002,1705.7699686130002,1705.7699686130002,1705.7699686130002,1707.806275777,1707.806275777,1707.806275777,1707.806275777,,,,,,,,,,,,,,,,,,,,,,,,,,,,,,,,,,,,,,,05,005,2022-09-23_10h28.53.165,test2,2022.2.4,60.0015201985375,
0,0,0,0,23,0,23,0,1707.806275777,1707.806275777,1707.806275777,1707.806275777,1707.806275777,1707.806275777,1707.806275777,1,1,azul,1,['N_B'],1709.5911692360003,1709.5911692360003,1709.5911692360003,1709.5911692360003,1711.6268103670002,1711.6268103670002,1711.6268103670002,1711.6268103670002,1711.6268103670002,1711.6268103670002,1711.6268103670002,1711.6268103670002,1713.662399099,1713.662399099,1713.662399099,1713.662399099,,,,,,,,,,,,,,,,,,,,,,,,,,,,,,,,,,,,,,,05,005,2022-09-23_10h28.53.165,test2,2022.2.4,60.0015201985375,
0,0,0,0,24,0,24,0,1713.662399099,1713.662399099,1713.662399099,1713.662399099,1713.662399099,1713.662399099,1713.662399099,1,-1,azul,1,['N_B'],1715.5476026550002,1715.5476026550002,1715.5476026550002,1715.5476026550002,1717.5836013320002,1717.5836013320002,1717.5836013320002,1717.5836013320002,1717.5836013320002,1717.5836013320002,1717.5836013320002,1717.5836013320002,1719.619477507,1719.619477507,1719.619477507,1719.619477507,,,,,,,,,,,,,,,,,,,,,,,,,,,,,,,,,,,,,,,05,005,2022-09-23_10h28.53.165,test2,2022.2.4,60.0015201985375,
0,0,0,0,25,0,25,0,1719.619477507,1719.619477507,1719.619477507,1719.619477507,1719.619477507,1719.619477507,1719.619477507,-1,-1,rojo,0,['N_A'],1721.6376259249998,1721.6376259249998,1721.6376259249998,1721.6376259249998,1723.6732553499999,1723.6732553499999,1723.6732553499999,1723.6732553499999,1723.6732553499999,1723.6732553499999,1723.6732553499999,1723.6732553499999,1725.708654106,1725.708654106,1725.708654106,1725.708654106,,,,,,,,,,,,,,,,,,,,,,,,,,,,,,,,,,,,,,,05,005,2022-09-23_10h28.53.165,test2,2022.2.4,60.0015201985375,
0,0,0,0,26,0,26,0,1725.708654106,1725.708654106,1725.708654106,1725.708654106,1725.708654106,1725.708654106,1725.708654106,1,1,rojo,1,['N_A'],1727.627668169,1727.627668169,1727.627668169,1727.627668169,1729.6629061370002,1729.6629061370002,1729.6629061370002,1729.6629061370002,1729.6629061370002,1729.6629061370002,1729.6629061370002,1729.6629061370002,1731.6982667129998,1731.6982667129998,1731.6982667129998,1731.6982667129998,,,,,,,,,,,,,,,,,,,,,,,,,,,,,,,,,,,,,,,05,005,2022-09-23_10h28.53.165,test2,2022.2.4,60.0015201985375,
0,0,0,0,27,0,27,0,1731.6982667129998,1731.6982667129998,1731.6982667129998,1731.6982667129998,1731.6982667129998,1731.6982667129998,1731.6982667129998,1,-1,rojo,1,['N_A'],1733.4671458169998,1733.4671458169998,1733.4671458169998,1733.4671458169998,1735.502573431,1735.502573431,1735.502573431,1735.502573431,1735.502573431,1735.502573431,1735.502573431,1735.502573431,1737.5387931890002,1737.5387931890002,1737.5387931890002,1737.5387931890002,,,,,,,,,,,,,,,,,,,,,,,,,,,,,,,,,,,,,,,05,005,2022-09-23_10h28.53.165,test2,2022.2.4,60.0015201985375,
0,0,0,0,28,0,28,0,1737.5387931890002,1737.5387931890002,1737.5387931890002,1737.5387931890002,1737.5387931890002,1737.5387931890002,1737.5387931890002,1,1,rojo,1,['N_A'],1739.3902075530002,1739.3902075530002,1739.3902075530002,1739.3902075530002,1741.4266901060003,1741.4266901060003,1741.4266901060003,1741.4266901060003,1741.4266901060003,1741.4266901060003,1741.4266901060003,1741.4266901060003,1743.4615901089999,1743.4615901089999,1743.4615901089999,1743.4615901089999,,,,,,,,,,,,,,,,,,,,,,,,,,,,,,,,,,,,,,,05,005,2022-09-23_10h28.53.165,test2,2022.2.4,60.0015201985375,
0,0,0,0,29,0,29,0,1743.4615901089999,1743.4615901089999,1743.4615901089999,1743.4615901089999,1743.4615901089999,1743.4615901089999,1743.4615901089999,-1,-1,azul,1,['N_A'],1746.2145209990001,1746.2145209990001,1746.2145209990001,1746.2145209990001,1748.250355768,1748.250355768,1748.250355768,1748.250355768,1748.250355768,1748.250355768,1748.250355768,1748.250355768,1750.286084443,1750.286084443,1750.286084443,1750.286084443,,,,,,,,,,,,,,,,,,,,,,,,,,,,,,,,,,,,,,,05,005,2022-09-23_10h28.53.165,test2,2022.2.4,60.0015201985375,
0,0,0,0,30,0,30,0,1750.286084443,1750.286084443,1750.286084443,1750.286084443,1750.286084443,1750.286084443,1750.286084443,1,1,rojo,1,['N_A'],1752.939161224,1752.939161224,1752.939161224,1752.939161224,1754.9581314220002,1754.9581314220002,1754.9581314220002,1754.9581314220002,1754.9581314220002,1754.9581314220002,1754.9581314220002,1754.9581314220002,1756.993563838,1756.993563838,1756.993563838,1756.993563838,,,,,,,,,,,,,,,,,,,,,,,,,,,,,,,,,,,,,,,05,005,2022-09-23_10h28.53.165,test2,2022.2.4,60.0015201985375,
0,0,0,0,31,0,31,0,1756.993563838,1756.993563838,1756.993563838,1756.993563838,1756.993563838,1756.993563838,1756.993563838,1,1,rojo,1,['N_A'],1758.9453591459999,1758.9453591459999,1758.9453591459999,1758.9453591459999,1760.9809389150003,1760.9809389150003,1760.9809389150003,1760.9809389150003,1760.9809389150003,1760.9809389150003,1760.9809389150003,1760.9809389150003,1763.0169482610002,1763.0169482610002,1763.0169482610002,1763.0169482610002,,,,,,,,,,,,,,,,,,,,,,,,,,,,,,,,,,,,,,,05,005,2022-09-23_10h28.53.165,test2,2022.2.4,60.0015201985375,
0,0,0,0,32,0,32,0,1763.0169482610002,1763.0169482610002,1763.0169482610002,1763.0169482610002,1763.0169482610002,1763.0169482610002,1763.0169482610002,1,-1,rojo,1,['N_A'],1765.0352956650001,1765.0352956650001,1765.0352956650001,1765.0352956650001,1767.0712805740002,1767.0712805740002,1767.0712805740002,1767.0712805740002,1767.0712805740002,1767.0712805740002,1767.0712805740002,1767.0712805740002,1769.1067035439999,1769.1067035439999,1769.1067035439999,1769.1067035439999,,,,,,,,,,,,,,,,,,,,,,,,,,,,,,,,,,,,,,,05,005,2022-09-23_10h28.53.165,test2,2022.2.4,60.0015201985375,
0,0,0,0,33,0,33,0,1769.1067035439999,1769.1067035439999,1769.1067035439999,1769.1067035439999,1769.1067035439999,1769.1067035439999,1769.1067035439999,1,-1,rojo,0,['N_B'],1770.524711883,1770.524711883,1770.524711883,1770.524711883,1772.5608100800002,1772.5608100800002,1772.5608100800002,1772.5608100800002,1772.5608100800002,1772.5608100800002,1772.5608100800002,1772.5608100800002,1774.596601644,1774.596601644,1774.596601644,1774.596601644,,,,,,,,,,,,,,,,,,,,,,,,,,,,,,,,,,,,,,,05,005,2022-09-23_10h28.53.165,test2,2022.2.4,60.0015201985375,
0,0,0,0,34,0,34,0,1774.596601644,1774.596601644,1774.596601644,1774.596601644,1774.596601644,1774.596601644,1774.596601644,-1,-1,rojo,1,['N_B'],1776.4144958610002,1776.4144958610002,1776.4144958610002,1776.4144958610002,1778.4503266650001,1778.4503266650001,1778.4503266650001,1778.4503266650001,1778.4503266650001,1778.4503266650001,1778.4503266650001,1778.4503266650001,1780.485988623,1780.485988623,1780.485988623,1780.485988623,,,,,,,,,,,,,,,,,,,,,,,,,,,,,,,,,,,,,,,05,005,2022-09-23_10h28.53.165,test2,2022.2.4,60.0015201985375,
0,0,0,0,35,0,35,0,1780.485988623,1780.485988623,1780.485988623,1780.485988623,1780.485988623,1780.485988623,1780.485988623,1,-1,azul,1,['N_B'],1784.25634267,1784.25634267,1784.25634267,1784.25634267,1786.292228424,1786.292228424,1786.292228424,1786.292228424,1786.292228424,1786.292228424,1786.292228424,1786.292228424,1788.327764989,1788.327764989,1788.327764989,1788.327764989,,,,,,,,,,,,,,,,,,,,,,,,,,,,,,,,,,,,,,,05,005,2022-09-23_10h28.53.165,test2,2022.2.4,60.0015201985375,
0,0,0,0,36,0,36,0,1788.327764989,1788.327764989,1788.327764989,1788.327764989,1788.327764989,1788.327764989,1788.327764989,1,-1,azul,0,['N_A'],1790.6977088209999,1790.6977088209999,1790.6977088209999,1790.6977088209999,1792.732762106,1792.732762106,1792.732762106,1792.732762106,1792.732762106,1792.732762106,1792.732762106,1792.732762106,1794.767939745,1794.767939745,1794.767939745,1794.767939745,,,,,,,,,,,,,,,,,,,,,,,,,,,,,,,,,,,,,,,05,005,2022-09-23_10h28.53.165,test2,2022.2.4,60.0015201985375,
0,0,0,0,37,0,37,0,1794.767939745,1794.767939745,1794.767939745,1794.767939745,1794.767939745,1794.767939745,1794.767939745,-1,1,azul,1,['N_A'],1796.3201358490003,1796.3201358490003,1796.3201358490003,1796.3201358490003,1798.339094741,1798.339094741,1798.339094741,1798.339094741,1798.339094741,1798.339094741,1798.339094741,1798.339094741,1800.3744358290003,1800.3744358290003,1800.3744358290003,1800.3744358290003,,,,,,,,,,,,,,,,,,,,,,,,,,,,,,,,,,,,,,,05,005,2022-09-23_10h28.53.165,test2,2022.2.4,60.0015201985375,
0,0,0,0,38,0,38,0,1800.3744358290003,1800.3744358290003,1800.3744358290003,1800.3744358290003,1800.3744358290003,1800.3744358290003,1800.3744358290003,-1,1,azul,1,['N_A'],1802.226581048,1802.226581048,1802.226581048,1802.226581048,1804.2627172190003,1804.2627172190003,1804.2627172190003,1804.2627172190003,1804.2627172190003,1804.2627172190003,1804.2627172190003,1804.2627172190003,1806.297532539,1806.297532539,1806.297532539,1806.297532539,,,,,,,,,,,,,,,,,,,,,,,,,,,,,,,,,,,,,,,05,005,2022-09-23_10h28.53.165,test2,2022.2.4,60.0015201985375,
0,0,0,0,39,0,39,0,1806.297532539,1806.297532539,1806.297532539,1806.297532539,1806.297532539,1806.297532539,1806.297532539,1,-1,rojo,1,['N_A'],1808.3495969040002,1808.3495969040002,1808.3495969040002,1808.3495969040002,1810.385693464,1810.385693464,1810.385693464,1810.385693464,1810.385693464,1810.385693464,1810.385693464,1810.385693464,1812.4215779449999,1812.4215779449999,1812.4215779449999,1812.4215779449999,,,,,,,,,,,,,,,,,,,,,,,,,,,,,,,,,,,,,,,05,005,2022-09-23_10h28.53.165,test2,2022.2.4,60.0015201985375,
0,0,0,0,40,0,40,0,1812.4215779449999,1812.4215779449999,1812.4215779449999,1812.4215779449999,1812.4215779449999,1812.4215779449999,1812.4215779449999,1,1,rojo,1,['N_A'],1814.273081951,1814.273081951,1814.273081951,1814.273081951,1816.308841188,1816.308841188,1816.308841188,1816.308841188,1816.308841188,1816.308841188,1816.308841188,1816.308841188,1818.3440992470003,1818.3440992470003,1818.3440992470003,1818.3440992470003,,,,,,,,,,,,,,,,,,,,,,,,,,,,,,,,,,,,,,,05,005,2022-09-23_10h28.53.165,test2,2022.2.4,60.0015201985375,
0,0,0,0,41,0,41,0,1818.3440992470003,1818.3440992470003,1818.3440992470003,1818.3440992470003,1818.3440992470003,1818.3440992470003,1818.3440992470003,-1,-1,azul,1,['N_A'],1819.9633725639999,1819.9633725639999,1819.9633725639999,1819.9633725639999,1821.998800516,1821.998800516,1821.998800516,1821.998800516,1821.998800516,1821.998800516,1821.998800516,1821.998800516,1824.033683459,1824.033683459,1824.033683459,1824.033683459,,,,,,,,,,,,,,,,,,,,,,,,,,,,,,,,,,,,,,,05,005,2022-09-23_10h28.53.165,test2,2022.2.4,60.0015201985375,
0,0,0,0,42,0,42,0,1824.033683459,1824.033683459,1824.033683459,1824.033683459,1824.033683459,1824.033683459,1824.033683459,1,1,rojo,1,['N_A'],1825.719623578,1825.719623578,1825.719623578,1825.719623578,1827.7374720270002,1827.7374720270002,1827.7374720270002,1827.7374720270002,1827.7374720270002,1827.7374720270002,1827.7374720270002,1827.7374720270002,1829.773194349,1829.773194349,1829.773194349,1829.773194349,,,,,,,,,,,,,,,,,,,,,,,,,,,,,,,,,,,,,,,05,005,2022-09-23_10h28.53.165,test2,2022.2.4,60.0015201985375,
0,0,0,0,43,0,43,0,1829.773194349,1829.773194349,1829.773194349,1829.773194349,1829.773194349,1829.773194349,1829.773194349,-1,1,azul,1,['N_A'],1831.208154926,1831.208154926,1831.208154926,1831.208154926,1833.228037482,1833.228037482,1833.228037482,1833.228037482,1833.228037482,1833.228037482,1833.228037482,1833.228037482,1835.262669129,1835.262669129,1835.262669129,1835.262669129,,,,,,,,,,,,,,,,,,,,,,,,,,,,,,,,,,,,,,,05,005,2022-09-23_10h28.53.165,test2,2022.2.4,60.0015201985375,
0,0,0,0,44,0,44,0,1835.262669129,1835.262669129,1835.262669129,1835.262669129,1835.262669129,1835.262669129,1835.262669129,-1,1,azul,1,['N_A'],1837.081617571,1837.081617571,1837.081617571,1837.081617571,1839.101498015,1839.101498015,1839.101498015,1839.101498015,1839.101498015,1839.101498015,1839.101498015,1839.101498015,1841.1366445260003,1841.1366445260003,1841.1366445260003,1841.1366445260003,,,,,,,,,,,,,,,,,,,,,,,,,,,,,,,,,,,,,,,05,005,2022-09-23_10h28.53.165,test2,2022.2.4,60.0015201985375,
0,0,0,0,45,0,45,0,1841.1366445260003,1841.1366445260003,1841.1366445260003,1841.1366445260003,1841.1366445260003,1841.1366445260003,1841.1366445260003,1,1,rojo,1,['N_A'],1842.7880397810002,1842.7880397810002,1842.7880397810002,1842.7880397810002,1844.8062031309998,1844.8062031309998,1844.8062031309998,1844.8062031309998,1844.8062031309998,1844.8062031309998,1844.8062031309998,1844.8062031309998,1846.8426823870002,1846.8426823870002,1846.8426823870002,1846.8426823870002,,,,,,,,,,,,,,,,,,,,,,,,,,,,,,,,,,,,,,,05,005,2022-09-23_10h28.53.165,test2,2022.2.4,60.0015201985375,
0,0,0,0,46,0,46,0,1846.8426823870002,1846.8426823870002,1846.8426823870002,1846.8426823870002,1846.8426823870002,1846.8426823870002,1846.8426823870002,1,1,rojo,1,['N_A'],1848.4612599610002,1848.4612599610002,1848.4612599610002,1848.4612599610002,1850.496872247,1850.496872247,1850.496872247,1850.496872247,1850.496872247,1850.496872247,1850.496872247,1850.496872247,1852.5325659500002,1852.5325659500002,1852.5325659500002,1852.5325659500002,,,,,,,,,,,,,,,,,,,,,,,,,,,,,,,,,,,,,,,05,005,2022-09-23_10h28.53.165,test2,2022.2.4,60.0015201985375,
0,0,0,0,47,0,47,0,1852.5325659500002,1852.5325659500002,1852.5325659500002,1852.5325659500002,1852.5325659500002,1852.5325659500002,1852.5325659500002,-1,-1,azul,1,['N_A'],1854.7517891569998,1854.7517891569998,1854.7517891569998,1854.7517891569998,1856.7868963920002,1856.7868963920002,1856.7868963920002,1856.7868963920002,1856.7868963920002,1856.7868963920002,1856.7868963920002,1856.7868963920002,1858.8228130700002,1858.8228130700002,1858.8228130700002,1858.8228130700002,,,,,,,,,,,,,,,,,,,,,,,,,,,,,,,,,,,,,,,05,005,2022-09-23_10h28.53.165,test2,2022.2.4,60.0015201985375,
0,0,0,0,48,0,48,0,1858.8228130700002,1858.8228130700002,1858.8228130700002,1858.8228130700002,1858.8228130700002,1858.8228130700002,1858.8228130700002,1,-1,rojo,0,['N_B'],1860.774269717,1860.774269717,1860.774269717,1860.774269717,1862.810333665,1862.810333665,1862.810333665,1862.810333665,1862.810333665,1862.810333665,1862.810333665,1862.810333665,1864.8451060569998,1864.8451060569998,1864.8451060569998,1864.8451060569998,,,,,,,,,,,,,,,,,,,,,,,,,,,,,,,,,,,,,,,05,005,2022-09-23_10h28.53.165,test2,2022.2.4,60.0015201985375,
0,0,0,0,49,0,49,0,1864.8451060569998,1864.8451060569998,1864.8451060569998,1864.8451060569998,1864.8451060569998,1864.8451060569998,1864.8451060569998,1,1,azul,1,['N_B'],1866.41443225,1866.41443225,1866.41443225,1866.41443225,1868.4496025680003,1868.4496025680003,1868.4496025680003,1868.4496025680003,1868.4496025680003,1868.4496025680003,1868.4496025680003,1868.4496025680003,1870.485605387,1870.485605387,1870.485605387,1870.485605387,,,,,,,,,,,,,,,,,,,,,,,,,,,,,,,,,,,,,,,05,005,2022-09-23_10h28.53.165,test2,2022.2.4,60.0015201985375,
0,0,0,0,50,0,50,0,1870.485605387,1870.485605387,1870.485605387,1870.485605387,1870.485605387,1870.485605387,1870.485605387,1,-1,azul,1,['N_B'],1871.936644359,1871.936644359,1871.936644359,1871.936644359,1873.9729836069998,1873.9729836069998,1873.9729836069998,1873.9729836069998,1873.9729836069998,1873.9729836069998,1873.9729836069998,1873.9729836069998,1876.0085534520001,1876.0085534520001,1876.0085534520001,1876.0085534520001,,,,,,,,,,,,,,,,,,,,,,,,,,,,,,,,,,,,,,,05,005,2022-09-23_10h28.53.165,test2,2022.2.4,60.0015201985375,
0,0,0,0,51,0,51,0,1876.0085534520001,1876.0085534520001,1876.0085534520001,1876.0085534520001,1876.0085534520001,1876.0085534520001,1876.0085534520001,1,-1,azul,1,['N_B'],1878.0608761229998,1878.0608761229998,1878.0608761229998,1878.0608761229998,1880.0959478370003,1880.0959478370003,1880.0959478370003,1880.0959478370003,1880.0959478370003,1880.0959478370003,1880.0959478370003,1880.0959478370003,1882.131656457,1882.131656457,1882.131656457,1882.131656457,,,,,,,,,,,,,,,,,,,,,,,,,,,,,,,,,,,,,,,05,005,2022-09-23_10h28.53.165,test2,2022.2.4,60.0015201985375,
0,0,0,0,52,0,52,0,1882.131656457,1882.131656457,1882.131656457,1882.131656457,1882.131656457,1882.131656457,1882.131656457,1,-1,azul,0,['N_A'],1883.583178264,1883.583178264,1883.583178264,1883.583178264,1885.6183596140002,1885.6183596140002,1885.6183596140002,1885.6183596140002,1885.6183596140002,1885.6183596140002,1885.6183596140002,1885.6183596140002,1887.654581654,1887.654581654,1887.654581654,1887.654581654,,,,,,,,,,,,,,,,,,,,,,,,,,,,,,,,,,,,,,,05,005,2022-09-23_10h28.53.165,test2,2022.2.4,60.0015201985375,
0,0,0,0,53,0,53,0,1887.654581654,1887.654581654,1887.654581654,1887.654581654,1887.654581654,1887.654581654,1887.654581654,1,-1,rojo,1,['N_A'],1889.739921007,1889.739921007,1889.739921007,1889.739921007,1891.775517765,1891.775517765,1891.775517765,1891.775517765,1891.775517765,1891.775517765,1891.775517765,1891.775517765,1893.811048972,1893.811048972,1893.811048972,1893.811048972,,,,,,,,,,,,,,,,,,,,,,,,,,,,,,,,,,,,,,,05,005,2022-09-23_10h28.53.165,test2,2022.2.4,60.0015201985375,
0,0,0,0,54,0,54,0,1893.811048972,1893.811048972,1893.811048972,1893.811048972,1893.811048972,1893.811048972,1893.811048972,1,1,rojo,1,['N_A'],1895.8639295250002,1895.8639295250002,1895.8639295250002,1895.8639295250002,1897.8989148460003,1897.8989148460003,1897.8989148460003,1897.8989148460003,1897.8989148460003,1897.8989148460003,1897.8989148460003,1897.8989148460003,1899.9344378530002,1899.9344378530002,1899.9344378530002,1899.9344378530002,,,,,,,,,,,,,,,,,,,,,,,,,,,,,,,,,,,,,,,05,005,2022-09-23_10h28.53.165,test2,2022.2.4,60.0015201985375,
0,0,0,0,55,0,55,0,1899.9344378530002,1899.9344378530002,1899.9344378530002,1899.9344378530002,1899.9344378530002,1899.9344378530002,1899.9344378530002,1,-1,rojo,1,['N_A'],1901.62008756,1901.62008756,1901.62008756,1901.62008756,1903.655408636,1903.655408636,1903.655408636,1903.655408636,1903.655408636,1903.655408636,1903.655408636,1903.655408636,1905.691228761,1905.691228761,1905.691228761,1905.691228761,,,,,,,,,,,,,,,,,,,,,,,,,,,,,,,,,,,,,,,05,005,2022-09-23_10h28.53.165,test2,2022.2.4,60.0015201985375,
0,0,0,0,56,0,56,0,1905.691228761,1905.691228761,1905.691228761,1905.691228761,1905.691228761,1905.691228761,1905.691228761,1,1,rojo,1,['N_A'],1907.4764973650001,1907.4764973650001,1907.4764973650001,1907.4764973650001,1909.494114363,1909.494114363,1909.494114363,1909.494114363,1909.494114363,1909.494114363,1909.494114363,1909.494114363,1911.5312522340002,1911.5312522340002,1911.5312522340002,1911.5312522340002,,,,,,,,,,,,,,,,,,,,,,,,,,,,,,,,,,,,,,,05,005,2022-09-23_10h28.53.165,test2,2022.2.4,60.0015201985375,
0,0,0,0,57,0,57,0,1911.5312522340002,1911.5312522340002,1911.5312522340002,1911.5312522340002,1911.5312522340002,1911.5312522340002,1911.5312522340002,1,1,rojo,1,['N_A'],1913.165899156,1913.165899156,1913.165899156,1913.165899156,1915.1849274600002,1915.1849274600002,1915.1849274600002,1915.1849274600002,1915.1849274600002,1915.1849274600002,1915.1849274600002,1915.1849274600002,1917.219791751,1917.219791751,1917.219791751,1917.219791751,,,,,,,,,,,,,,,,,,,,,,,,,,,,,,,,,,,,,,,05,005,2022-09-23_10h28.53.165,test2,2022.2.4,60.0015201985375,
0,0,0,0,58,0,58,0,1917.219791751,1917.219791751,1917.219791751,1917.219791751,1917.219791751,1917.219791751,1917.219791751,1,1,rojo,1,['N_A'],1919.0718146010001,1919.0718146010001,1919.0718146010001,1919.0718146010001,1921.0909780130003,1921.0909780130003,1921.0909780130003,1921.0909780130003,1921.0909780130003,1921.0909780130003,1921.0909780130003,1921.0909780130003,1923.126768076,1923.126768076,1923.126768076,1923.126768076,,,,,,,,,,,,,,,,,,,,,,,,,,,,,,,,,,,,,,,05,005,2022-09-23_10h28.53.165,test2,2022.2.4,60.0015201985375,
0,0,0,0,59,0,59,0,1923.126768076,1923.126768076,1923.126768076,1923.126768076,1923.126768076,1923.126768076,1923.126768076,1,1,rojo,1,['N_A'],1925.0460009390001,1925.0460009390001,1925.0460009390001,1925.0460009390001,1927.0641999430002,1927.0641999430002,1927.0641999430002,1927.0641999430002,1927.0641999430002,1927.0641999430002,1927.0641999430002,1927.0641999430002,1929.0993390340002,1929.0993390340002,1929.0993390340002,1929.0993390340002,,,,,,,,,,,,,,,,,,,,,,,,,,,,,,,,,,,,,,,05,005,2022-09-23_10h28.53.165,test2,2022.2.4,60.0015201985375,
0,0,0,0,60,0,60,0,1929.0993390340002,1929.0993390340002,1929.0993390340002,1929.0993390340002,1929.0993390340002,1929.0993390340002,1929.0993390340002,-1,1,azul,1,['N_A'],1931.485678323,1931.485678323,1931.485678323,1931.485678323,1933.5035916140002,1933.5035916140002,1933.5035916140002,1933.5035916140002,1933.5035916140002,1933.5035916140002,1933.5035916140002,1933.5035916140002,1935.541012803,1935.541012803,1935.541012803,1935.541012803,,,,,,,,,,,,,,,,,,,,,,,,,,,,,,,,,,,,,,,05,005,2022-09-23_10h28.53.165,test2,2022.2.4,60.0015201985375,
0,0,0,0,61,0,61,0,1935.541012803,1935.541012803,1935.541012803,1935.541012803,1935.541012803,1935.541012803,1935.541012803,-1,1,azul,1,['N_A'],1937.809980828,1937.809980828,1937.809980828,1937.809980828,1939.828943103,1939.828943103,1939.828943103,1939.828943103,1939.828943103,1939.828943103,1939.828943103,1939.828943103,1941.8640509660001,1941.8640509660001,1941.8640509660001,1941.8640509660001,,,,,,,,,,,,,,,,,,,,,,,,,,,,,,,,,,,,,,,05,005,2022-09-23_10h28.53.165,test2,2022.2.4,60.0015201985375,
0,0,0,0,62,0,62,0,1941.8640509660001,1941.8640509660001,1941.8640509660001,1941.8640509660001,1941.8640509660001,1941.8640509660001,1941.8640509660001,1,1,rojo,1,['N_A'],1943.6329869620001,1943.6329869620001,1943.6329869620001,1943.6329869620001,1945.6679452229998,1945.6679452229998,1945.6679452229998,1945.6679452229998,1945.6679452229998,1945.6679452229998,1945.6679452229998,1945.6679452229998,1947.70394826,1947.70394826,1947.70394826,1947.70394826,,,,,,,,,,,,,,,,,,,,,,,,,,,,,,,,,,,,,,,05,005,2022-09-23_10h28.53.165,test2,2022.2.4,60.0015201985375,
0,0,0,0,63,0,63,0,1947.70394826,1947.70394826,1947.70394826,1947.70394826,1947.70394826,1947.70394826,1947.70394826,1,-1,rojo,0,['N_B'],1949.1551287539999,1949.1551287539999,1949.1551287539999,1949.1551287539999,1951.191239723,1951.191239723,1951.191239723,1951.191239723,1951.191239723,1951.191239723,1951.191239723,1951.191239723,1953.2269688510003,1953.2269688510003,1953.2269688510003,1953.2269688510003,,,,,,,,,,,,,,,,,,,,,,,,,,,,,,,,,,,,,,,05,005,2022-09-23_10h28.53.165,test2,2022.2.4,60.0015201985375,
0,0,0,0,64,0,64,0,1953.2269688510003,1953.2269688510003,1953.2269688510003,1953.2269688510003,1953.2269688510003,1953.2269688510003,1953.2269688510003,1,-1,azul,1,['N_B'],1954.6118774940003,1954.6118774940003,1954.6118774940003,1954.6118774940003,1956.64709173,1956.64709173,1956.64709173,1956.64709173,1956.64709173,1956.64709173,1956.64709173,1956.64709173,1958.682539528,1958.682539528,1958.682539528,1958.682539528,,,,,,,,,,,,,,,,,,,,,,,,,,,,,,,,,,,,,,,05,005,2022-09-23_10h28.53.165,test2,2022.2.4,60.0015201985375,
0,0,0,0,65,0,65,0,1958.682539528,1958.682539528,1958.682539528,1958.682539528,1958.682539528,1958.682539528,1958.682539528,1,1,azul,1,['N_B'],1960.183668853,1960.183668853,1960.183668853,1960.183668853,1962.203655606,1962.203655606,1962.203655606,1962.203655606,1962.203655606,1962.203655606,1962.203655606,1962.203655606,1964.2388073170002,1964.2388073170002,1964.2388073170002,1964.2388073170002,,,,,,,,,,,,,,,,,,,,,,,,,,,,,,,,,,,,,,,05,005,2022-09-23_10h28.53.165,test2,2022.2.4,60.0015201985375,
0,0,0,0,66,0,66,0,1964.2388073170002,1964.2388073170002,1964.2388073170002,1964.2388073170002,1964.2388073170002,1964.2388073170002,1964.2388073170002,1,1,azul,1,['N_B'],1966.057340479,1966.057340479,1966.057340479,1966.057340479,1968.0756593190001,1968.0756593190001,1968.0756593190001,1968.0756593190001,1968.0756593190001,1968.0756593190001,1968.0756593190001,1968.0756593190001,1970.1122989870003,1970.1122989870003,1970.1122989870003,1970.1122989870003,,,,,,,,,,,,,,,,,,,,,,,,,,,,,,,,,,,,,,,05,005,2022-09-23_10h28.53.165,test2,2022.2.4,60.0015201985375,
0,0,0,0,67,0,67,0,1970.1122989870003,1970.1122989870003,1970.1122989870003,1970.1122989870003,1970.1122989870003,1970.1122989870003,1970.1122989870003,1,1,azul,1,['N_B'],1971.930845575,1971.930845575,1971.930845575,1971.930845575,1973.948932829,1973.948932829,1973.948932829,1973.948932829,1973.948932829,1973.948932829,1973.948932829,1973.948932829,1975.9855397520002,1975.9855397520002,1975.9855397520002,1975.9855397520002,,,,,,,,,,,,,,,,,,,,,,,,,,,,,,,,,,,,,,,05,005,2022-09-23_10h28.53.165,test2,2022.2.4,60.0015201985375,
0,0,0,0,68,0,68,0,1975.9855397520002,1975.9855397520002,1975.9855397520002,1975.9855397520002,1975.9855397520002,1975.9855397520002,1975.9855397520002,-1,1,rojo,1,['N_B'],1978.27051486,1978.27051486,1978.27051486,1978.27051486,1980.306807953,1980.306807953,1980.306807953,1980.306807953,1980.306807953,1980.306807953,1980.306807953,1980.306807953,1982.342087489,1982.342087489,1982.342087489,1982.342087489,,,,,,,,,,,,,,,,,,,,,,,,,,,,,,,,,,,,,,,05,005,2022-09-23_10h28.53.165,test2,2022.2.4,60.0015201985375,
0,0,0,0,69,0,69,0,1982.342087489,1982.342087489,1982.342087489,1982.342087489,1982.342087489,1982.342087489,1982.342087489,1,-1,azul,1,['N_B'],1983.7939127749999,1983.7939127749999,1983.7939127749999,1983.7939127749999,1985.829146839,1985.829146839,1985.829146839,1985.829146839,1985.829146839,1985.829146839,1985.829146839,1985.829146839,1987.8647365929999,1987.8647365929999,1987.8647365929999,1987.8647365929999,,,,,,,,,,,,,,,,,,,,,,,,,,,,,,,,,,,,,,,05,005,2022-09-23_10h28.53.165,test2,2022.2.4,60.0015201985375,
0,0,0,0,70,0,70,0,1987.8647365929999,1987.8647365929999,1987.8647365929999,1987.8647365929999,1987.8647365929999,1987.8647365929999,1987.8647365929999,1,-1,azul,0,['N_A'],1989.750038641,1989.750038641,1989.750038641,1989.750038641,1991.7860828999999,1991.7860828999999,1991.7860828999999,1991.7860828999999,1991.7860828999999,1991.7860828999999,1991.7860828999999,1991.7860828999999,1993.821580774,1993.821580774,1993.821580774,1993.821580774,,,,,,,,,,,,,,,,,,,,,,,,,,,,,,,,,,,,,,,05,005,2022-09-23_10h28.53.165,test2,2022.2.4,60.0015201985375,
0,0,0,0,71,0,71,0,1993.821580774,1993.821580774,1993.821580774,1993.821580774,1993.821580774,1993.821580774,1993.821580774,1,-1,rojo,0,['N_B'],1996.9083505239998,1996.9083505239998,1996.9083505239998,1996.9083505239998,1998.94322678,1998.94322678,1998.94322678,1998.94322678,1998.94322678,1998.94322678,1998.94322678,1998.94322678,2000.97956563,2000.97956563,2000.97956563,2000.97956563,,,,,,,,,,,,,,,,,,,,,,,,,,,,,,,,,,,,,,,05,005,2022-09-23_10h28.53.165,test2,2022.2.4,60.0015201985375,
0,0,0,0,72,0,72,0,2000.97956563,2000.97956563,2000.97956563,2000.97956563,2000.97956563,2000.97956563,2000.97956563,-1,1,rojo,1,['N_B'],2002.6305646829999,2002.6305646829999,2002.6305646829999,2002.6305646829999,2004.64985829,2004.64985829,2004.64985829,2004.64985829,2004.64985829,2004.64985829,2004.64985829,2004.64985829,2006.6855706500003,2006.6855706500003,2006.6855706500003,2006.6855706500003,,,,,,,,,,,,,,,,,,,,,,,,,,,,,,,,,,,,,,,05,005,2022-09-23_10h28.53.165,test2,2022.2.4,60.0015201985375,
0,0,0,0,73,0,73,0,2006.6855706500003,2006.6855706500003,2006.6855706500003,2006.6855706500003,2006.6855706500003,2006.6855706500003,2006.6855706500003,-1,1,rojo,1,['N_B'],2009.105180541,2009.105180541,2009.105180541,2009.105180541,2011.123944868,2011.123944868,2011.123944868,2011.123944868,2011.123944868,2011.123944868,2011.123944868,2011.123944868,2013.1592254180002,2013.1592254180002,2013.1592254180002,2013.1592254180002,,,,,,,,,,,,,,,,,,,,,,,,,,,,,,,,,,,,,,,05,005,2022-09-23_10h28.53.165,test2,2022.2.4,60.0015201985375,
0,0,0,0,74,0,74,0,2013.1592254180002,2013.1592254180002,2013.1592254180002,2013.1592254180002,2013.1592254180002,2013.1592254180002,2013.1592254180002,1,1,azul,1,['N_B'],2014.711057455,2014.711057455,2014.711057455,2014.711057455,2016.7301899850002,2016.7301899850002,2016.7301899850002,2016.7301899850002,2016.7301899850002,2016.7301899850002,2016.7301899850002,2016.7301899850002,2018.7654529449999,2018.7654529449999,2018.7654529449999,2018.7654529449999,,,,,,,,,,,,,,,,,,,,,,,,,,,,,,,,,,,,,,,05,005,2022-09-23_10h28.53.165,test2,2022.2.4,60.0015201985375,
0,0,0,0,75,0,75,0,2018.7654529449999,2018.7654529449999,2018.7654529449999,2018.7654529449999,2018.7654529449999,2018.7654529449999,2018.7654529449999,-1,1,rojo,1,['N_B'],2020.3339090050001,2020.3339090050001,2020.3339090050001,2020.3339090050001,2022.3524643440003,2022.3524643440003,2022.3524643440003,2022.3524643440003,2022.3524643440003,2022.3524643440003,2022.3524643440003,2022.3524643440003,2024.38845121,2024.38845121,2024.38845121,2024.38845121,,,,,,,,,,,,,,,,,,,,,,,,,,,,,,,,,,,,,,,05,005,2022-09-23_10h28.53.165,test2,2022.2.4,60.0015201985375,
0,0,0,0,76,0,76,0,2024.38845121,2024.38845121,2024.38845121,2024.38845121,2024.38845121,2024.38845121,2024.38845121,-1,1,rojo,1,['N_B'],2026.040515241,2026.040515241,2026.040515241,2026.040515241,2028.075592689,2028.075592689,2028.075592689,2028.075592689,2028.075592689,2028.075592689,2028.075592689,2028.075592689,2030.111287301,2030.111287301,2030.111287301,2030.111287301,,,,,,,,,,,,,,,,,,,,,,,,,,,,,,,,,,,,,,,05,005,2022-09-23_10h28.53.165,test2,2022.2.4,60.0015201985375,
0,0,0,0,77,0,77,0,2030.111287301,2030.111287301,2030.111287301,2030.111287301,2030.111287301,2030.111287301,2030.111287301,1,-1,azul,1,['N_B'],2033.314687422,2033.314687422,2033.314687422,2033.314687422,2035.3510947329999,2035.3510947329999,2035.3510947329999,2035.3510947329999,2035.3510947329999,2035.3510947329999,2035.3510947329999,2035.3510947329999,2037.3858020190003,2037.3858020190003,2037.3858020190003,2037.3858020190003,,,,,,,,,,,,,,,,,,,,,,,,,,,,,,,,,,,,,,,05,005,2022-09-23_10h28.53.165,test2,2022.2.4,60.0015201985375,
0,0,0,0,78,0,78,0,2037.3858020190003,2037.3858020190003,2037.3858020190003,2037.3858020190003,2037.3858020190003,2037.3858020190003,2037.3858020190003,1,-1,azul,0,['N_A'],2039.004761202,2039.004761202,2039.004761202,2039.004761202,2041.040384833,2041.040384833,2041.040384833,2041.040384833,2041.040384833,2041.040384833,2041.040384833,2041.040384833,2043.076005617,2043.076005617,2043.076005617,2043.076005617,,,,,,,,,,,,,,,,,,,,,,,,,,,,,,,,,,,,,,,05,005,2022-09-23_10h28.53.165,test2,2022.2.4,60.0015201985375,
0,0,0,0,79,0,79,0,2043.076005617,2043.076005617,2043.076005617,2043.076005617,2043.076005617,2043.076005617,2043.076005617,-1,1,azul,1,['N_A'],2044.861159331,2044.861159331,2044.861159331,2044.861159331,2046.8804231719998,2046.8804231719998,2046.8804231719998,2046.8804231719998,2046.8804231719998,2046.8804231719998,2046.8804231719998,2046.8804231719998,2048.915556185,2048.915556185,2048.915556185,2048.915556185,,,,,,,,,,,,,,,,,,,,,,,,,,,,,,,,,,,,,,,05,005,2022-09-23_10h28.53.165,test2,2022.2.4,60.0015201985375,
0,0,0,0,80,0,80,0,2048.915556185,2048.915556185,2048.915556185,2048.915556185,2048.915556185,2048.915556185,2048.915556185,1,1,rojo,1,['N_A'],2051.1841570059996,2051.1841570059996,2051.1841570059996,2051.1841570059996,2053.2201786,2053.2201786,2053.2201786,2053.2201786,2053.2201786,2053.2201786,2053.2201786,2053.2201786,2055.2558290429997,2055.2558290429997,2055.2558290429997,2055.2558290429997,,,,,,,,,,,,,,,,,,,,,,,,,,,,,,,,,,,,,,,05,005,2022-09-23_10h28.53.165,test2,2022.2.4,60.0015201985375,
0,0,0,0,81,0,81,0,2055.2558290429997,2055.2558290429997,2055.2558290429997,2055.2558290429997,2055.2558290429997,2055.2558290429997,2055.2558290429997,-1,-1,azul,1,['N_A'],2057.307988219,2057.307988219,2057.307988219,2057.307988219,2059.3440513419996,2059.3440513419996,2059.3440513419996,2059.3440513419996,2059.3440513419996,2059.3440513419996,2059.3440513419996,2059.3440513419996,2061.3792926879996,2061.3792926879996,2061.3792926879996,2061.3792926879996,,,,,,,,,,,,,,,,,,,,,,,,,,,,,,,,,,,,,,,05,005,2022-09-23_10h28.53.165,test2,2022.2.4,60.0015201985375,
0,0,0,0,82,0,82,0,2061.3792926879996,2061.3792926879996,2061.3792926879996,2061.3792926879996,2061.3792926879996,2061.3792926879996,2061.3792926879996,1,1,rojo,1,['N_A'],2063.214193284,2063.214193284,2063.214193284,2063.214193284,2065.249932329,2065.249932329,2065.249932329,2065.249932329,2065.249932329,2065.249932329,2065.249932329,2065.249932329,2067.285471035,2067.285471035,2067.285471035,2067.285471035,,,,,,,,,,,,,,,,,,,,,,,,,,,,,,,,,,,,,,,05,005,2022-09-23_10h28.53.165,test2,2022.2.4,60.0015201985375,
0,0,0,0,83,0,83,0,2067.285471035,2067.285471035,2067.285471035,2067.285471035,2067.285471035,2067.285471035,2067.285471035,1,-1,rojo,1,['N_A'],2070.005752712,2070.005752712,2070.005752712,2070.005752712,2072.041053206,2072.041053206,2072.041053206,2072.041053206,2072.041053206,2072.041053206,2072.041053206,2072.041053206,2074.07618314,2074.07618314,2074.07618314,2074.07618314,,,,,,,,,,,,,,,,,,,,,,,,,,,,,,,,,,,,,,,05,005,2022-09-23_10h28.53.165,test2,2022.2.4,60.0015201985375,
0,0,0,0,84,0,84,0,2074.07618314,2074.07618314,2074.07618314,2074.07618314,2074.07618314,2074.07618314,2074.07618314,1,1,rojo,1,['N_A'],2076.179370177,2076.179370177,2076.179370177,2076.179370177,2078.196556898,2078.196556898,2078.196556898,2078.196556898,2078.196556898,2078.196556898,2078.196556898,2078.196556898,2080.233794663,2080.233794663,2080.233794663,2080.233794663,,,,,,,,,,,,,,,,,,,,,,,,,,,,,,,,,,,,,,,05,005,2022-09-23_10h28.53.165,test2,2022.2.4,60.0015201985375,
0,0,0,0,85,0,85,0,2080.233794663,2080.233794663,2080.233794663,2080.233794663,2080.233794663,2080.233794663,2080.233794663,1,1,rojo,1,['N_A'],2082.419191596,2082.419191596,2082.419191596,2082.419191596,2084.454463773,2084.454463773,2084.454463773,2084.454463773,2084.454463773,2084.454463773,2084.454463773,2084.454463773,2086.490383505,2086.490383505,2086.490383505,2086.490383505,,,,,,,,,,,,,,,,,,,,,,,,,,,,,,,,,,,,,,,05,005,2022-09-23_10h28.53.165,test2,2022.2.4,60.0015201985375,
0,0,0,0,86,0,86,0,2086.490383505,2086.490383505,2086.490383505,2086.490383505,2086.490383505,2086.490383505,2086.490383505,-1,-1,azul,0,['N_B'],2088.0415539299997,2088.0415539299997,2088.0415539299997,2088.0415539299997,2090.0779996049996,2090.0779996049996,2090.0779996049996,2090.0779996049996,2090.0779996049996,2090.0779996049996,2090.0779996049996,2090.0779996049996,2092.1135284889997,2092.1135284889997,2092.1135284889997,2092.1135284889997,,,,,,,,,,,,,,,,,,,,,,,,,,,,,,,,,,,,,,,05,005,2022-09-23_10h28.53.165,test2,2022.2.4,60.0015201985375,
0,0,0,0,87,0,87,0,2092.1135284889997,2092.1135284889997,2092.1135284889997,2092.1135284889997,2092.1135284889997,2092.1135284889997,2092.1135284889997,1,-1,azul,1,['N_B'],2093.6642864709997,2093.6642864709997,2093.6642864709997,2093.6642864709997,2095.700265864,2095.700265864,2095.700265864,2095.700265864,2095.700265864,2095.700265864,2095.700265864,2095.700265864,2097.736171179,2097.736171179,2097.736171179,2097.736171179,,,,,,,,,,,,,,,,,,,,,,,,,,,,,,,,,,,,,,,05,005,2022-09-23_10h28.53.165,test2,2022.2.4,60.0015201985375,
0,0,0,0,88,0,88,0,2097.736171179,2097.736171179,2097.736171179,2097.736171179,2097.736171179,2097.736171179,2097.736171179,1,1,azul,1,['N_B'],2099.2875823239997,2099.2875823239997,2099.2875823239997,2099.2875823239997,2101.307131524,2101.307131524,2101.307131524,2101.307131524,2101.307131524,2101.307131524,2101.307131524,2101.307131524,2103.342535292,2103.342535292,2103.342535292,2103.342535292,,,,,,,,,,,,,,,,,,,,,,,,,,,,,,,,,,,,,,,05,005,2022-09-23_10h28.53.165,test2,2022.2.4,60.0015201985375,
0,0,0,0,89,0,89,0,2103.342535292,2103.342535292,2103.342535292,2103.342535292,2103.342535292,2103.342535292,2103.342535292,1,1,azul,1,['N_B'],2104.8944315979998,2104.8944315979998,2104.8944315979998,2104.8944315979998,2106.9127887689997,2106.9127887689997,2106.9127887689997,2106.9127887689997,2106.9127887689997,2106.9127887689997,2106.9127887689997,2106.9127887689997,2108.94851488,2108.94851488,2108.94851488,2108.94851488,,,,,,,,,,,,,,,,,,,,,,,,,,,,,,,,,,,,,,,05,005,2022-09-23_10h28.53.165,test2,2022.2.4,60.0015201985375,
0,0,0,0,90,0,90,0,2108.94851488,2108.94851488,2108.94851488,2108.94851488,2108.94851488,2108.94851488,2108.94851488,1,1,azul,1,['N_B'],2111.7352959,2111.7352959,2111.7352959,2111.7352959,2113.7537097259997,2113.7537097259997,2113.7537097259997,2113.7537097259997,2113.7537097259997,2113.7537097259997,2113.7537097259997,2113.7537097259997,2115.788793532,2115.788793532,2115.788793532,2115.788793532,,,,,,,,,,,,,,,,,,,,,,,,,,,,,,,,,,,,,,,05,005,2022-09-23_10h28.53.165,test2,2022.2.4,60.0015201985375,
0,0,0,0,91,0,91,0,2115.788793532,2115.788793532,2115.788793532,2115.788793532,2115.788793532,2115.788793532,2115.788793532,-1,1,rojo,1,['N_B'],2118.725560386,2118.725560386,2118.725560386,2118.725560386,2120.74444125,2120.74444125,2120.74444125,2120.74444125,2120.74444125,2120.74444125,2120.74444125,2120.74444125,2122.780522487,2122.780522487,2122.780522487,2122.780522487,,,,,,,,,,,,,,,,,,,,,,,,,,,,,,,,,,,,,,,05,005,2022-09-23_10h28.53.165,test2,2022.2.4,60.0015201985375,
0,0,0,0,92,0,92,0,2122.780522487,2122.780522487,2122.780522487,2122.780522487,2122.780522487,2122.780522487,2122.780522487,1,1,azul,1,['N_B'],2124.365626793,2124.365626793,2124.365626793,2124.365626793,2126.400710677,2126.400710677,2126.400710677,2126.400710677,2126.400710677,2126.400710677,2126.400710677,2126.400710677,2128.4366892949997,2128.4366892949997,2128.4366892949997,2128.4366892949997,,,,,,,,,,,,,,,,,,,,,,,,,,,,,,,,,,,,,,,05,005,2022-09-23_10h28.53.165,test2,2022.2.4,60.0015201985375,
0,0,0,0,93,0,93,0,2128.4366892949997,2128.4366892949997,2128.4366892949997,2128.4366892949997,2128.4366892949997,2128.4366892949997,2128.4366892949997,1,-1,azul,0,['N_A'],2130.188652595,2130.188652595,2130.188652595,2130.188652595,2132.22438934,2132.22438934,2132.22438934,2132.22438934,2132.22438934,2132.22438934,2132.22438934,2132.22438934,2134.259885653,2134.259885653,2134.259885653,2134.259885653,,,,,,,,,,,,,,,,,,,,,,,,,,,,,,,,,,,,,,,05,005,2022-09-23_10h28.53.165,test2,2022.2.4,60.0015201985375,
0,0,0,0,94,0,94,0,2134.259885653,2134.259885653,2134.259885653,2134.259885653,2134.259885653,2134.259885653,2134.259885653,1,1,rojo,1,['N_A'],2135.8115869969997,2135.8115869969997,2135.8115869969997,2135.8115869969997,2137.830510982,2137.830510982,2137.830510982,2137.830510982,2137.830510982,2137.830510982,2137.830510982,2137.830510982,2139.865881161,2139.865881161,2139.865881161,2139.865881161,,,,,,,,,,,,,,,,,,,,,,,,,,,,,,,,,,,,,,,05,005,2022-09-23_10h28.53.165,test2,2022.2.4,60.0015201985375,
0,0,0,0,95,0,95,0,2139.865881161,2139.865881161,2139.865881161,2139.865881161,2139.865881161,2139.865881161,2139.865881161,1,1,rojo,1,['N_A'],2141.5007549069996,2141.5007549069996,2141.5007549069996,2141.5007549069996,2143.520435871,2143.520435871,2143.520435871,2143.520435871,2143.520435871,2143.520435871,2143.520435871,2143.520435871,2145.5555186839997,2145.5555186839997,2145.5555186839997,2145.5555186839997,,,,,,,,,,,,,,,,,,,,,,,,,,,,,,,,,,,,,,,05,005,2022-09-23_10h28.53.165,test2,2022.2.4,60.0015201985375,
0,0,0,0,96,0,96,0,2145.5555186839997,2145.5555186839997,2145.5555186839997,2145.5555186839997,2145.5555186839997,2145.5555186839997,2145.5555186839997,1,1,rojo,1,['N_A'],2147.090945767,2147.090945767,2147.090945767,2147.090945767,2149.109278695,2149.109278695,2149.109278695,2149.109278695,2149.109278695,2149.109278695,2149.109278695,2149.109278695,2151.145332958,2151.145332958,2151.145332958,2151.145332958,,,,,,,,,,,,,,,,,,,,,,,,,,,,,,,,,,,,,,,05,005,2022-09-23_10h28.53.165,test2,2022.2.4,60.0015201985375,
0,0,0,0,97,0,97,0,2151.145332958,2151.145332958,2151.145332958,2151.145332958,2151.145332958,2151.145332958,2151.145332958,-1,1,azul,1,['N_A'],2152.7628575,2152.7628575,2152.7628575,2152.7628575,2154.78273091,2154.78273091,2154.78273091,2154.78273091,2154.78273091,2154.78273091,2154.78273091,2154.78273091,2156.8179529689996,2156.8179529689996,2156.8179529689996,2156.8179529689996,,,,,,,,,,,,,,,,,,,,,,,,,,,,,,,,,,,,,,,05,005,2022-09-23_10h28.53.165,test2,2022.2.4,60.0015201985375,
0,0,0,0,98,0,98,0,2156.8179529689996,2156.8179529689996,2156.8179529689996,2156.8179529689996,2156.8179529689996,2156.8179529689996,2156.8179529689996,-1,1,azul,1,['N_A'],2158.769655748,2158.769655748,2158.769655748,2158.769655748,2160.7881580089997,2160.7881580089997,2160.7881580089997,2160.7881580089997,2160.7881580089997,2160.7881580089997,2160.7881580089997,2160.7881580089997,2162.8246327029997,2162.8246327029997,2162.8246327029997,2162.8246327029997,,,,,,,,,,,,,,,,,,,,,,,,,,,,,,,,,,,,,,,05,005,2022-09-23_10h28.53.165,test2,2022.2.4,60.0015201985375,
0,0,0,0,99,0,99,0,2162.8246327029997,2162.8246327029997,2162.8246327029997,2162.8246327029997,2162.8246327029997,2162.8246327029997,2162.8246327029997,1,1,rojo,1,['N_A'],2164.843109357,2164.843109357,2164.843109357,2164.843109357,2166.878606102,2166.878606102,2166.878606102,2166.878606102,2166.878606102,2166.878606102,2166.878606102,2166.878606102,2168.91490606,2168.91490606,2168.91490606,2168.91490606,,,,,,,,,,,,,,,,,,,,,,,,,,,,,,,,,,,,,,,05,005,2022-09-23_10h28.53.165,test2,2022.2.4,60.0015201985375,
0,0,0,0,100,0,100,0,2168.91490606,2168.91490606,2168.91490606,2168.91490606,2168.91490606,2168.91490606,2168.91490606,1,-1,rojo,0,['N_B'],2170.8996918069997,2170.8996918069997,2170.8996918069997,2170.8996918069997,2172.935762183,2172.935762183,2172.935762183,2172.935762183,2172.935762183,2172.935762183,2172.935762183,2172.935762183,2174.971745994,2174.971745994,2174.971745994,2174.971745994,,,,,,,,,,,,,,,,,,,,,,,,,,,,,,,,,,,,,,,05,005,2022-09-23_10h28.53.165,test2,2022.2.4,60.0015201985375,
0,0,0,0,101,0,101,0,2174.971745994,2174.971745994,2174.971745994,2174.971745994,2174.971745994,2174.971745994,2174.971745994,1,1,azul,1,['N_B'],2177.957464884,2177.957464884,2177.957464884,2177.957464884,2179.975639365,2179.975639365,2179.975639365,2179.975639365,2179.975639365,2179.975639365,2179.975639365,2179.975639365,2182.011967701,2182.011967701,2182.011967701,2182.011967701,,,,,,,,,,,,,,,,,,,,,,,,,,,,,,,,,,,,,,,05,005,2022-09-23_10h28.53.165,test2,2022.2.4,60.0015201985375,
0,0,0,0,102,0,102,0,2182.011967701,2182.011967701,2182.011967701,2182.011967701,2182.011967701,2182.011967701,2182.011967701,1,1,azul,1,['N_B'],2183.8139537399998,2183.8139537399998,2183.8139537399998,2183.8139537399998,2185.8335809339997,2185.8335809339997,2185.8335809339997,2185.8335809339997,2185.8335809339997,2185.8335809339997,2185.8335809339997,2185.8335809339997,2187.868442657,2187.868442657,2187.868442657,2187.868442657,,,,,,,,,,,,,,,,,,,,,,,,,,,,,,,,,,,,,,,05,005,2022-09-23_10h28.53.165,test2,2022.2.4,60.0015201985375,
0,0,0,0,103,0,103,0,2187.868442657,2187.868442657,2187.868442657,2187.868442657,2187.868442657,2187.868442657,2187.868442657,-1,1,rojo,1,['N_B'],2189.820832518,2189.820832518,2189.820832518,2189.820832518,2191.839650776,2191.839650776,2191.839650776,2191.839650776,2191.839650776,2191.839650776,2191.839650776,2191.839650776,2193.875556471,2193.875556471,2193.875556471,2193.875556471,,,,,,,,,,,,,,,,,,,,,,,,,,,,,,,,,,,,,,,05,005,2022-09-23_10h28.53.165,test2,2022.2.4,60.0015201985375,
0,0,0,0,104,0,104,0,2193.875556471,2193.875556471,2193.875556471,2193.875556471,2193.875556471,2193.875556471,2193.875556471,1,1,azul,1,['N_B'],2196.4619007449996,2196.4619007449996,2196.4619007449996,2196.4619007449996,2198.480358381,2198.480358381,2198.480358381,2198.480358381,2198.480358381,2198.480358381,2198.480358381,2198.480358381,2200.5164400149997,2200.5164400149997,2200.5164400149997,2200.5164400149997,,,,,,,,,,,,,,,,,,,,,,,,,,,,,,,,,,,,,,,05,005,2022-09-23_10h28.53.165,test2,2022.2.4,60.0015201985375,
0,0,0,0,105,0,105,0,2200.5164400149997,2200.5164400149997,2200.5164400149997,2200.5164400149997,2200.5164400149997,2200.5164400149997,2200.5164400149997,-1,1,rojo,1,['N_B'],2202.017428332,2202.017428332,2202.017428332,2202.017428332,2204.0364914949996,2204.0364914949996,2204.0364914949996,2204.0364914949996,2204.0364914949996,2204.0364914949996,2204.0364914949996,2204.0364914949996,2206.0722212369997,2206.0722212369997,2206.0722212369997,2206.0722212369997,,,,,,,,,,,,,,,,,,,,,,,,,,,,,,,,,,,,,,,05,005,2022-09-23_10h28.53.165,test2,2022.2.4,60.0015201985375,
0,0,0,0,106,0,106,0,2206.0722212369997,2206.0722212369997,2206.0722212369997,2206.0722212369997,2206.0722212369997,2206.0722212369997,2206.0722212369997,1,1,azul,1,['N_B'],2207.6399721889998,2207.6399721889998,2207.6399721889998,2207.6399721889998,2209.659414119,2209.659414119,2209.659414119,2209.659414119,2209.659414119,2209.659414119,2209.659414119,2209.659414119,2211.694440641,2211.694440641,2211.694440641,2211.694440641,,,,,,,,,,,,,,,,,,,,,,,,,,,,,,,,,,,,,,,05,005,2022-09-23_10h28.53.165,test2,2022.2.4,60.0015201985375,
0,0,0,0,107,0,107,0,2211.694440641,2211.694440641,2211.694440641,2211.694440641,2211.694440641,2211.694440641,2211.694440641,1,1,azul,1,['N_B'],2213.380363636,2213.380363636,2213.380363636,2213.380363636,2215.415924848,2215.415924848,2215.415924848,2215.415924848,2215.415924848,2215.415924848,2215.415924848,2215.415924848,2217.45082504,2217.45082504,2217.45082504,2217.45082504,,,,,,,,,,,,,,,,,,,,,,,,,,,,,,,,,,,,,,,05,005,2022-09-23_10h28.53.165,test2,2022.2.4,60.0015201985375,
0,0,0,0,108,0,108,0,2217.45082504,2217.45082504,2217.45082504,2217.45082504,2217.45082504,2217.45082504,2217.45082504,1,-1,azul,0,['N_A'],2218.9027232109997,2218.9027232109997,2218.9027232109997,2218.9027232109997,2220.938284545,2220.938284545,2220.938284545,2220.938284545,2220.938284545,2220.938284545,2220.938284545,2220.938284545,2222.974677401,2222.974677401,2222.974677401,2222.974677401,,,,,,,,,,,,,,,,,,,,,,,,,,,,,,,,,,,,,,,05,005,2022-09-23_10h28.53.165,test2,2022.2.4,60.0015201985375,
0,0,0,0,109,0,109,0,2222.974677401,2222.974677401,2222.974677401,2222.974677401,2222.974677401,2222.974677401,2222.974677401,-1,-1,azul,1,['N_A'],2224.47625845,2224.47625845,2224.47625845,2224.47625845,2226.511410879,2226.511410879,2226.511410879,2226.511410879,2226.511410879,2226.511410879,2226.511410879,2226.511410879,2228.5464530169997,2228.5464530169997,2228.5464530169997,2228.5464530169997,,,,,,,,,,,,,,,,,,,,,,,,,,,,,,,,,,,,,,,05,005,2022-09-23_10h28.53.165,test2,2022.2.4,60.0015201985375,
0,0,0,0,110,0,110,0,2228.5464530169997,2228.5464530169997,2228.5464530169997,2228.5464530169997,2228.5464530169997,2228.5464530169997,2228.5464530169997,1,1,rojo,1,['N_A'],2230.231897057,2230.231897057,2230.231897057,2230.231897057,2232.2506759179996,2232.2506759179996,2232.2506759179996,2232.2506759179996,2232.2506759179996,2232.2506759179996,2232.2506759179996,2232.2506759179996,2234.286901097,2234.286901097,2234.286901097,2234.286901097,,,,,,,,,,,,,,,,,,,,,,,,,,,,,,,,,,,,,,,05,005,2022-09-23_10h28.53.165,test2,2022.2.4,60.0015201985375,
0,0,0,0,111,0,111,0,2234.286901097,2234.286901097,2234.286901097,2234.286901097,2234.286901097,2234.286901097,2234.286901097,-1,1,azul,1,['N_A'],2236.0883563469997,2236.0883563469997,2236.0883563469997,2236.0883563469997,2238.1068070779997,2238.1068070779997,2238.1068070779997,2238.1068070779997,2238.1068070779997,2238.1068070779997,2238.1068070779997,2238.1068070779997,2240.142595409,2240.142595409,2240.142595409,2240.142595409,,,,,,,,,,,,,,,,,,,,,,,,,,,,,,,,,,,,,,,05,005,2022-09-23_10h28.53.165,test2,2022.2.4,60.0015201985375,
0,0,0,0,112,0,112,0,2240.142595409,2240.142595409,2240.142595409,2240.142595409,2240.142595409,2240.142595409,2240.142595409,1,1,rojo,1,['N_A'],2241.9289108609996,2241.9289108609996,2241.9289108609996,2241.9289108609996,2243.947370433,2243.947370433,2243.947370433,2243.947370433,2243.947370433,2243.947370433,2243.947370433,2243.947370433,2245.983260143,2245.983260143,2245.983260143,2245.983260143,,,,,,,,,,,,,,,,,,,,,,,,,,,,,,,,,,,,,,,05,005,2022-09-23_10h28.53.165,test2,2022.2.4,60.0015201985375,
0,0,0,0,113,0,113,0,2245.983260143,2245.983260143,2245.983260143,2245.983260143,2245.983260143,2245.983260143,2245.983260143,1,1,rojo,1,['N_A'],2247.6352509219996,2247.6352509219996,2247.6352509219996,2247.6352509219996,2249.65326818,2249.65326818,2249.65326818,2249.65326818,2249.65326818,2249.65326818,2249.65326818,2249.65326818,2251.6895564909996,2251.6895564909996,2251.6895564909996,2251.6895564909996,,,,,,,,,,,,,,,,,,,,,,,,,,,,,,,,,,,,,,,05,005,2022-09-23_10h28.53.165,test2,2022.2.4,60.0015201985375,
0,0,0,0,114,0,114,0,2251.6895564909996,2251.6895564909996,2251.6895564909996,2251.6895564909996,2251.6895564909996,2251.6895564909996,2251.6895564909996,-1,1,azul,1,['N_A'],2254.9094141799997,2254.9094141799997,2254.9094141799997,2254.9094141799997,2256.927169221,2256.927169221,2256.927169221,2256.927169221,2256.927169221,2256.927169221,2256.927169221,2256.927169221,2258.9634134089997,2258.9634134089997,2258.9634134089997,2258.9634134089997,,,,,,,,,,,,,,,,,,,,,,,,,,,,,,,,,,,,,,,05,005,2022-09-23_10h28.53.165,test2,2022.2.4,60.0015201985375,
0,0,0,0,115,0,115,0,2258.9634134089997,2258.9634134089997,2258.9634134089997,2258.9634134089997,2258.9634134089997,2258.9634134089997,2258.9634134089997,1,1,rojo,1,['N_A'],2263.018593942,2263.018593942,2263.018593942,2263.018593942,2265.053878421,2265.053878421,2265.053878421,2265.053878421,2265.053878421,2265.053878421,2265.053878421,2265.053878421,2267.089266382,2267.089266382,2267.089266382,2267.089266382,,,,,,,,,,,,,,,,,,,,,,,,,,,,,,,,,,,,,,,05,005,2022-09-23_10h28.53.165,test2,2022.2.4,60.0015201985375,
0,0,0,0,116,0,116,0,2267.089266382,2267.089266382,2267.089266382,2267.089266382,2267.089266382,2267.089266382,2267.089266382,-1,-1,azul,0,['N_B'],2270.7766058109996,2270.7766058109996,2270.7766058109996,2270.7766058109996,2272.812447752,2272.812447752,2272.812447752,2272.812447752,2272.812447752,2272.812447752,2272.812447752,2272.812447752,2274.848076255,2274.848076255,2274.848076255,2274.848076255,,,,,,,,,,,,,,,,,,,,,,,,,,,,,,,,,,,,,,,05,005,2022-09-23_10h28.53.165,test2,2022.2.4,60.0015201985375,
0,0,0,0,117,0,117,0,2274.848076255,2274.848076255,2274.848076255,2274.848076255,2274.848076255,2274.848076255,2274.848076255,1,-1,azul,1,['N_B'],2276.3166525419997,2276.3166525419997,2276.3166525419997,2276.3166525419997,2278.351987833,2278.351987833,2278.351987833,2278.351987833,2278.351987833,2278.351987833,2278.351987833,2278.351987833,2280.387754303,2280.387754303,2280.387754303,2280.387754303,,,,,,,,,,,,,,,,,,,,,,,,,,,,,,,,,,,,,,,05,005,2022-09-23_10h28.53.165,test2,2022.2.4,60.0015201985375,
0,0,0,0,118,0,118,0,2280.387754303,2280.387754303,2280.387754303,2280.387754303,2280.387754303,2280.387754303,2280.387754303,1,1,azul,1,['N_B'],2281.939144602,2281.939144602,2281.939144602,2281.939144602,2283.974666868,2283.974666868,2283.974666868,2283.974666868,2283.974666868,2283.974666868,2283.974666868,2283.974666868,2286.0105744479997,2286.0105744479997,2286.0105744479997,2286.0105744479997,,,,,,,,,,,,,,,,,,,,,,,,,,,,,,,,,,,,,,,05,005,2022-09-23_10h28.53.165,test2,2022.2.4,60.0015201985375,
0,0,0,0,119,0,119,0,2286.0105744479997,2286.0105744479997,2286.0105744479997,2286.0105744479997,2286.0105744479997,2286.0105744479997,2286.0105744479997,1,-1,azul,1,['N_B'],2287.8292229999997,2287.8292229999997,2287.8292229999997,2287.8292229999997,2289.8647191329997,2289.8647191329997,2289.8647191329997,2289.8647191329997,2289.8647191329997,2289.8647191329997,2289.8647191329997,2289.8647191329997,2291.900533011,2291.900533011,2291.900533011,2291.900533011,,,,,,,,,,,,,,,,,,,,,,,,,,,,,,,,,,,,,,,05,005,2022-09-23_10h28.53.165,test2,2022.2.4,60.0015201985375,
0,0,0,0,120,0,120,0,2291.900533011,2291.900533011,2291.900533011,2291.900533011,2291.900533011,2291.900533011,2291.900533011,1,-1,azul,0,['N_A'],2293.6524867919998,2293.6524867919998,2293.6524867919998,2293.6524867919998,2295.687729427,2295.687729427,2295.687729427,2295.687729427,2295.687729427,2295.687729427,2295.687729427,2295.687729427,2297.7232398829997,2297.7232398829997,2297.7232398829997,2297.7232398829997,,,,,,,,,,,,,,,,,,,,,,,,,,,,,,,,,,,,,,,05,005,2022-09-23_10h28.53.165,test2,2022.2.4,60.0015201985375,
0,0,0,0,121,0,121,0,2297.7232398829997,2297.7232398829997,2297.7232398829997,2297.7232398829997,2297.7232398829997,2297.7232398829997,2297.7232398829997,-1,-1,azul,1,['N_A'],2299.3745682969998,2299.3745682969998,2299.3745682969998,2299.3745682969998,2301.4106537459998,2301.4106537459998,2301.4106537459998,2301.4106537459998,2301.4106537459998,2301.4106537459998,2301.4106537459998,2301.4106537459998,2303.44660884,2303.44660884,2303.44660884,2303.44660884,,,,,,,,,,,,,,,,,,,,,,,,,,,,,,,,,,,,,,,05,005,2022-09-23_10h28.53.165,test2,2022.2.4,60.0015201985375,
0,0,0,0,122,0,122,0,2303.44660884,2303.44660884,2303.44660884,2303.44660884,2303.44660884,2303.44660884,2303.44660884,1,1,rojo,1,['N_A'],2305.365024633,2305.365024633,2305.365024633,2305.365024633,2307.3844951449996,2307.3844951449996,2307.3844951449996,2307.3844951449996,2307.3844951449996,2307.3844951449996,2307.3844951449996,2307.3844951449996,2309.4199527819997,2309.4199527819997,2309.4199527819997,2309.4199527819997,,,,,,,,,,,,,,,,,,,,,,,,,,,,,,,,,,,,,,,05,005,2022-09-23_10h28.53.165,test2,2022.2.4,60.0015201985375,
0,0,0,0,123,0,123,0,2309.4199527819997,2309.4199527819997,2309.4199527819997,2309.4199527819997,2309.4199527819997,2309.4199527819997,2309.4199527819997,-1,1,azul,1,['N_A'],2310.971270831,2310.971270831,2310.971270831,2310.971270831,2312.990718834,2312.990718834,2312.990718834,2312.990718834,2312.990718834,2312.990718834,2312.990718834,2312.990718834,2315.025933515,2315.025933515,2315.025933515,2315.025933515,,,,,,,,,,,,,,,,,,,,,,,,,,,,,,,,,,,,,,,05,005,2022-09-23_10h28.53.165,test2,2022.2.4,60.0015201985375,
0,0,0,0,124,0,124,0,2315.025933515,2315.025933515,2315.025933515,2315.025933515,2315.025933515,2315.025933515,2315.025933515,1,1,rojo,1,['N_A'],2316.910677889,2316.910677889,2316.910677889,2316.910677889,2318.947252259,2318.947252259,2318.947252259,2318.947252259,2318.947252259,2318.947252259,2318.947252259,2318.947252259,2320.9819314039996,2320.9819314039996,2320.9819314039996,2320.9819314039996,,,,,,,,,,,,,,,,,,,,,,,,,,,,,,,,,,,,,,,05,005,2022-09-23_10h28.53.165,test2,2022.2.4,60.0015201985375,
0,0,0,0,125,0,125,0,2320.9819314039996,2320.9819314039996,2320.9819314039996,2320.9819314039996,2320.9819314039996,2320.9819314039996,2320.9819314039996,-1,-1,azul,1,['N_A'],2324.4527024619997,2324.4527024619997,2324.4527024619997,2324.4527024619997,2326.488489852,2326.488489852,2326.488489852,2326.488489852,2326.488489852,2326.488489852,2326.488489852,2326.488489852,2328.5244068459997,2328.5244068459997,2328.5244068459997,2328.5244068459997,,,,,,,,,,,,,,,,,,,,,,,,,,,,,,,,,,,,,,,05,005,2022-09-23_10h28.53.165,test2,2022.2.4,60.0015201985375,
0,0,0,0,126,0,126,0,2328.5244068459997,2328.5244068459997,2328.5244068459997,2328.5244068459997,2328.5244068459997,2328.5244068459997,2328.5244068459997,1,1,rojo,1,['N_A'],2330.208943005,2330.208943005,2330.208943005,2330.208943005,2332.22704501,2332.22704501,2332.22704501,2332.22704501,2332.22704501,2332.22704501,2332.22704501,2332.22704501,2334.264077112,2334.264077112,2334.264077112,2334.264077112,,,,,,,,,,,,,,,,,,,,,,,,,,,,,,,,,,,,,,,05,005,2022-09-23_10h28.53.165,test2,2022.2.4,60.0015201985375,
0,0,0,0,127,0,127,0,2334.264077112,2334.264077112,2334.264077112,2334.264077112,2334.264077112,2334.264077112,2334.264077112,1,1,rojo,1,['N_A'],2335.9650746479997,2335.9650746479997,2335.9650746479997,2335.9650746479997,2337.9844914779997,2337.9844914779997,2337.9844914779997,2337.9844914779997,2337.9844914779997,2337.9844914779997,2337.9844914779997,2337.9844914779997,2340.0200045349998,2340.0200045349998,2340.0200045349998,2340.0200045349998,,,,,,,,,,,,,,,,,,,,,,,,,,,,,,,,,,,,,,,05,005,2022-09-23_10h28.53.165,test2,2022.2.4,60.0015201985375,
0,0,0,0,128,0,128,0,2340.0200045349998,2340.0200045349998,2340.0200045349998,2340.0200045349998,2340.0200045349998,2340.0200045349998,2340.0200045349998,1,1,rojo,1,['N_A'],2341.8557054189996,2341.8557054189996,2341.8557054189996,2341.8557054189996,2343.874067511,2343.874067511,2343.874067511,2343.874067511,2343.874067511,2343.874067511,2343.874067511,2343.874067511,2345.910101724,2345.910101724,2345.910101724,2345.910101724,,,,,,,,,,,,,,,,,,,,,,,,,,,,,,,,,,,,,,,05,005,2022-09-23_10h28.53.165,test2,2022.2.4,60.0015201985375,
0,0,0,0,129,0,129,0,2345.910101724,2345.910101724,2345.910101724,2345.910101724,2345.910101724,2345.910101724,2345.910101724,1,1,rojo,1,['N_A'],2347.6451978299997,2347.6451978299997,2347.6451978299997,2347.6451978299997,2349.6640324309997,2349.6640324309997,2349.6640324309997,2349.6640324309997,2349.6640324309997,2349.6640324309997,2349.6640324309997,2349.6640324309997,2351.6995380589997,2351.6995380589997,2351.6995380589997,2351.6995380589997,,,,,,,,,,,,,,,,,,,,,,,,,,,,,,,,,,,,,,,05,005,2022-09-23_10h28.53.165,test2,2022.2.4,60.0015201985375,
0,0,0,0,130,0,130,0,2351.6995380589997,2351.6995380589997,2351.6995380589997,2351.6995380589997,2351.6995380589997,2351.6995380589997,2351.6995380589997,1,1,rojo,1,['N_A'],2353.467947571,2353.467947571,2353.467947571,2353.467947571,2355.485998366,2355.485998366,2355.485998366,2355.485998366,2355.485998366,2355.485998366,2355.485998366,2355.485998366,2357.522402002,2357.522402002,2357.522402002,2357.522402002,,,,,,,,,,,,,,,,,,,,,,,,,,,,,,,,,,,,,,,05,005,2022-09-23_10h28.53.165,test2,2022.2.4,60.0015201985375,
0,0,0,0,131,0,131,0,2357.522402002,2357.522402002,2357.522402002,2357.522402002,2357.522402002,2357.522402002,2357.522402002,1,1,rojo,1,['N_A'],2360.092562259,2360.092562259,2360.092562259,2360.092562259,2362.11002015,2362.11002015,2362.11002015,2362.11002015,2362.11002015,2362.11002015,2362.11002015,2362.11002015,2364.1468259549997,2364.1468259549997,2364.1468259549997,2364.1468259549997,,,,,,,,,,,,,,,,,,,,,,,,,,,,,,,,,,,,,,,05,005,2022-09-23_10h28.53.165,test2,2022.2.4,60.0015201985375,
0,0,0,0,132,0,132,0,2364.1468259549997,2364.1468259549997,2364.1468259549997,2364.1468259549997,2364.1468259549997,2364.1468259549997,2364.1468259549997,1,1,rojo,1,['N_A'],2367.734053794,2367.734053794,2367.734053794,2367.734053794,2369.7691781179997,2369.7691781179997,2369.7691781179997,2369.7691781179997,2369.7691781179997,2369.7691781179997,2369.7691781179997,2369.7691781179997,2371.804919973,2371.804919973,2371.804919973,2371.804919973,,,,,,,,,,,,,,,,,,,,,,,,,,,,,,,,,,,,,,,05,005,2022-09-23_10h28.53.165,test2,2022.2.4,60.0015201985375,
0,0,0,0,133,0,133,0,2371.804919973,2371.804919973,2371.804919973,2371.804919973,2371.804919973,2371.804919973,2371.804919973,-1,-1,azul,0,['N_B'],2373.2564293289997,2373.2564293289997,2373.2564293289997,2373.2564293289997,2375.2921569289997,2375.2921569289997,2375.2921569289997,2375.2921569289997,2375.2921569289997,2375.2921569289997,2375.2921569289997,2375.2921569289997,2377.3279271809997,2377.3279271809997,2377.3279271809997,2377.3279271809997,,,,,,,,,,,,,,,,,,,,,,,,,,,,,,,,,,,,,,,05,005,2022-09-23_10h28.53.165,test2,2022.2.4,60.0015201985375,
0,0,0,0,134,0,134,0,2377.3279271809997,2377.3279271809997,2377.3279271809997,2377.3279271809997,2377.3279271809997,2377.3279271809997,2377.3279271809997,1,-1,azul,1,['N_B'],2378.745925063,2378.745925063,2378.745925063,2378.745925063,2380.781511548,2380.781511548,2380.781511548,2380.781511548,2380.781511548,2380.781511548,2380.781511548,2380.781511548,2382.8173114379997,2382.8173114379997,2382.8173114379997,2382.8173114379997,,,,,,,,,,,,,,,,,,,,,,,,,,,,,,,,,,,,,,,05,005,2022-09-23_10h28.53.165,test2,2022.2.4,60.0015201985375,
0,0,0,0,135,0,135,0,2382.8173114379997,2382.8173114379997,2382.8173114379997,2382.8173114379997,2382.8173114379997,2382.8173114379997,2382.8173114379997,1,-1,azul,1,['N_B'],2384.3017776489996,2384.3017776489996,2384.3017776489996,2384.3017776489996,2386.337484239,2386.337484239,2386.337484239,2386.337484239,2386.337484239,2386.337484239,2386.337484239,2386.337484239,2388.3728704729997,2388.3728704729997,2388.3728704729997,2388.3728704729997,,,,,,,,,,,,,,,,,,,,,,,,,,,,,,,,,,,,,,,05,005,2022-09-23_10h28.53.165,test2,2022.2.4,60.0015201985375,
0,0,0,0,136,0,136,0,2388.3728704729997,2388.3728704729997,2388.3728704729997,2388.3728704729997,2388.3728704729997,2388.3728704729997,2388.3728704729997,1,1,azul,1,['N_B'],2390.692055685,2390.692055685,2390.692055685,2390.692055685,2392.710316925,2392.710316925,2392.710316925,2392.710316925,2392.710316925,2392.710316925,2392.710316925,2392.710316925,2394.747694539,2394.747694539,2394.747694539,2394.747694539,,,,,,,,,,,,,,,,,,,,,,,,,,,,,,,,,,,,,,,05,005,2022-09-23_10h28.53.165,test2,2022.2.4,60.0015201985375,
0,0,0,0,137,0,137,0,2394.747694539,2394.747694539,2394.747694539,2394.747694539,2394.747694539,2394.747694539,2394.747694539,-1,1,rojo,0,['N_A'],2396.665405059,2396.665405059,2396.665405059,2396.665405059,2398.684427529,2398.684427529,2398.684427529,2398.684427529,2398.684427529,2398.684427529,2398.684427529,2398.684427529,2400.7189562959998,2400.7189562959998,2400.7189562959998,2400.7189562959998,,,,,,,,,,,,,,,,,,,,,,,,,,,,,,,,,,,,,,,05,005,2022-09-23_10h28.53.165,test2,2022.2.4,60.0015201985375,
0,0,0,0,138,0,138,0,2400.7189562959998,2400.7189562959998,2400.7189562959998,2400.7189562959998,2400.7189562959998,2400.7189562959998,2400.7189562959998,1,1,rojo,1,['N_A'],2402.305185754,2402.305185754,2402.305185754,2402.305185754,2404.323818418,2404.323818418,2404.323818418,2404.323818418,2404.323818418,2404.323818418,2404.323818418,2404.323818418,2406.3593399029996,2406.3593399029996,2406.3593399029996,2406.3593399029996,,,,,,,,,,,,,,,,,,,,,,,,,,,,,,,,,,,,,,,05,005,2022-09-23_10h28.53.165,test2,2022.2.4,60.0015201985375,
0,0,0,0,139,0,139,0,2406.3593399029996,2406.3593399029996,2406.3593399029996,2406.3593399029996,2406.3593399029996,2406.3593399029996,2406.3593399029996,-1,1,azul,1,['N_A'],2408.846426881,2408.846426881,2408.846426881,2408.846426881,2410.86508315,2410.86508315,2410.86508315,2410.86508315,2410.86508315,2410.86508315,2410.86508315,2410.86508315,2412.899968638,2412.899968638,2412.899968638,2412.899968638,,,,,,,,,,,,,,,,,,,,,,,,,,,,,,,,,,,,,,,05,005,2022-09-23_10h28.53.165,test2,2022.2.4,60.0015201985375,
0,0,0,0,140,0,140,0,2412.899968638,2412.899968638,2412.899968638,2412.899968638,2412.899968638,2412.899968638,2412.899968638,1,1,rojo,1,['N_A'],2416.2876345729997,2416.2876345729997,2416.2876345729997,2416.2876345729997,2418.323252196,2418.323252196,2418.323252196,2418.323252196,2418.323252196,2418.323252196,2418.323252196,2418.323252196,2420.35852041,2420.35852041,2420.35852041,2420.35852041,,,,,,,,,,,,,,,,,,,,,,,,,,,,,,,,,,,,,,,05,005,2022-09-23_10h28.53.165,test2,2022.2.4,60.0015201985375,
0,0,0,0,141,0,141,0,2420.35852041,2420.35852041,2420.35852041,2420.35852041,2420.35852041,2420.35852041,2420.35852041,-1,-1,azul,0,['N_B'],2421.9105698969997,2421.9105698969997,2421.9105698969997,2421.9105698969997,2423.945655951,2423.945655951,2423.945655951,2423.945655951,2423.945655951,2423.945655951,2423.945655951,2423.945655951,2425.981798593,2425.981798593,2425.981798593,2425.981798593,,,,,,,,,,,,,,,,,,,,,,,,,,,,,,,,,,,,,,,05,005,2022-09-23_10h28.53.165,test2,2022.2.4,60.0015201985375,
0,0,0,0,142,0,142,0,2425.981798593,2425.981798593,2425.981798593,2425.981798593,2425.981798593,2425.981798593,2425.981798593,-1,1,rojo,1,['N_B'],2428.0337277,2428.0337277,2428.0337277,2428.0337277,2430.052970832,2430.052970832,2430.052970832,2430.052970832,2430.052970832,2430.052970832,2430.052970832,2430.052970832,2432.0881440189996,2432.0881440189996,2432.0881440189996,2432.0881440189996,,,,,,,,,,,,,,,,,,,,,,,,,,,,,,,,,,,,,,,05,005,2022-09-23_10h28.53.165,test2,2022.2.4,60.0015201985375,
0,0,0,0,143,0,143,0,2432.0881440189996,2432.0881440189996,2432.0881440189996,2432.0881440189996,2432.0881440189996,2432.0881440189996,2432.0881440189996,-1,1,rojo,1,['N_B'],2434.107156798,2434.107156798,2434.107156798,2434.107156798,2436.1252143029997,2436.1252143029997,2436.1252143029997,2436.1252143029997,2436.1252143029997,2436.1252143029997,2436.1252143029997,2436.1252143029997,2438.161716586,2438.161716586,2438.161716586,2438.161716586,,,,,,,,,,,,,,,,,,,,,,,,,,,,,,,,,,,,,,,05,005,2022-09-23_10h28.53.165,test2,2022.2.4,60.0015201985375,
0,0,0,0,144,0,144,0,2438.161716586,2438.161716586,2438.161716586,2438.161716586,2438.161716586,2438.161716586,2438.161716586,1,1,azul,1,['N_B'],2439.8468964629997,2439.8468964629997,2439.8468964629997,2439.8468964629997,2441.865877587,2441.865877587,2441.865877587,2441.865877587,2441.865877587,2441.865877587,2441.865877587,2441.865877587,2443.90145898,2443.90145898,2443.90145898,2443.90145898,,,,,,,,,,,,,,,,,,,,,,,,,,,,,,,,,,,,,,,05,005,2022-09-23_10h28.53.165,test2,2022.2.4,60.0015201985375,
0,0,0,0,145,0,145,0,2443.90145898,2443.90145898,2443.90145898,2443.90145898,2443.90145898,2443.90145898,2443.90145898,-1,1,rojo,1,['N_B'],2445.486124321,2445.486124321,2445.486124321,2445.486124321,2447.5217492869997,2447.5217492869997,2447.5217492869997,2447.5217492869997,2447.5217492869997,2447.5217492869997,2447.5217492869997,2447.5217492869997,2449.557374055,2449.557374055,2449.557374055,2449.557374055,,,,,,,,,,,,,,,,,,,,,,,,,,,,,,,,,,,,,,,05,005,2022-09-23_10h28.53.165,test2,2022.2.4,60.0015201985375,
0,0,0,0,146,0,146,0,2449.557374055,2449.557374055,2449.557374055,2449.557374055,2449.557374055,2449.557374055,2449.557374055,1,-1,azul,0,['N_A'],2451.025636242,2451.025636242,2451.025636242,2451.025636242,2453.061865868,2453.061865868,2453.061865868,2453.061865868,2453.061865868,2453.061865868,2453.061865868,2453.061865868,2455.097130103,2455.097130103,2455.097130103,2455.097130103,,,,,,,,,,,,,,,,,,,,,,,,,,,,,,,,,,,,,,,05,005,2022-09-23_10h28.53.165,test2,2022.2.4,60.0015201985375,
0,0,0,0,147,0,147,0,2455.097130103,2455.097130103,2455.097130103,2455.097130103,2455.097130103,2455.097130103,2455.097130103,1,1,rojo,1,['N_A'],2457.06545703,2457.06545703,2457.06545703,2457.06545703,2459.101032869,2459.101032869,2459.101032869,2459.101032869,2459.101032869,2459.101032869,2459.101032869,2459.101032869,2461.1371829769996,2461.1371829769996,2461.1371829769996,2461.1371829769996,,,,,,,,,,,,,,,,,,,,,,,,,,,,,,,,,,,,,,,05,005,2022-09-23_10h28.53.165,test2,2022.2.4,60.0015201985375,
0,0,0,0,148,0,148,0,2461.1371829769996,2461.1371829769996,2461.1371829769996,2461.1371829769996,2461.1371829769996,2461.1371829769996,2461.1371829769996,-1,-1,azul,0,['N_B'],2464.2573890979997,2464.2573890979997,2464.2573890979997,2464.2573890979997,2466.292289571,2466.292289571,2466.292289571,2466.292289571,2466.292289571,2466.292289571,2466.292289571,2466.292289571,2468.328700195,2468.328700195,2468.328700195,2468.328700195,,,,,,,,,,,,,,,,,,,,,,,,,,,,,,,,,,,,,,,05,005,2022-09-23_10h28.53.165,test2,2022.2.4,60.0015201985375,
0,0,0,0,149,0,149,0,2468.328700195,2468.328700195,2468.328700195,2468.328700195,2468.328700195,2468.328700195,2468.328700195,1,-1,azul,0,['N_A'],2470.864552828,2470.864552828,2470.864552828,2470.864552828,2472.899918792,2472.899918792,2472.899918792,2472.899918792,2472.899918792,2472.899918792,2472.899918792,2472.899918792,2474.9359457279998,2474.9359457279998,2474.9359457279998,2474.9359457279998,,,,,,,,,,,,,,,,,,,,,,,,,,,,,,,,,,,,,,,05,005,2022-09-23_10h28.53.165,test2,2022.2.4,60.0015201985375,
0,0,0,0,150,0,150,0,2474.9359457279998,2474.9359457279998,2474.9359457279998,2474.9359457279998,2474.9359457279998,2474.9359457279998,2474.9359457279998,-1,1,azul,1,['N_A'],2476.487528356,2476.487528356,2476.487528356,2476.487528356,2478.5066168539997,2478.5066168539997,2478.5066168539997,2478.5066168539997,2478.5066168539997,2478.5066168539997,2478.5066168539997,2478.5066168539997,2480.5410935259997,2480.5410935259997,2480.5410935259997,2480.5410935259997,,,,,,,,,,,,,,,,,,,,,,,,,,,,,,,,,,,,,,,05,005,2022-09-23_10h28.53.165,test2,2022.2.4,60.0015201985375,
0,0,0,0,151,0,151,0,2480.5410935259997,2480.5410935259997,2480.5410935259997,2480.5410935259997,2480.5410935259997,2480.5410935259997,2480.5410935259997,1,1,rojo,1,['N_A'],2482.060170845,2482.060170845,2482.060170845,2482.060170845,2484.095812772,2484.095812772,2484.095812772,2484.095812772,2484.095812772,2484.095812772,2484.095812772,2484.095812772,2486.131560943,2486.131560943,2486.131560943,2486.131560943,,,,,,,,,,,,,,,,,,,,,,,,,,,,,,,,,,,,,,,05,005,2022-09-23_10h28.53.165,test2,2022.2.4,60.0015201985375,
0,0,0,0,152,0,152,0,2486.131560943,2486.131560943,2486.131560943,2486.131560943,2486.131560943,2486.131560943,2486.131560943,-1,-1,azul,0,['N_B'],2487.916607754,2487.916607754,2487.916607754,2487.916607754,2489.952199591,2489.952199591,2489.952199591,2489.952199591,2489.952199591,2489.952199591,2489.952199591,2489.952199591,2491.986959515,2491.986959515,2491.986959515,2491.986959515,,,,,,,,,,,,,,,,,,,,,,,,,,,,,,,,,,,,,,,05,005,2022-09-23_10h28.53.165,test2,2022.2.4,60.0015201985375,
0,0,0,0,153,0,153,0,2491.986959515,2491.986959515,2491.986959515,2491.986959515,2491.986959515,2491.986959515,2491.986959515,1,-1,azul,1,['N_B'],2493.6559755629996,2493.6559755629996,2493.6559755629996,2493.6559755629996,2495.6918564089997,2495.6918564089997,2495.6918564089997,2495.6918564089997,2495.6918564089997,2495.6918564089997,2495.6918564089997,2495.6918564089997,2497.726809206,2497.726809206,2497.726809206,2497.726809206,,,,,,,,,,,,,,,,,,,,,,,,,,,,,,,,,,,,,,,05,005,2022-09-23_10h28.53.165,test2,2022.2.4,60.0015201985375,
0,0,0,0,154,0,154,0,2497.726809206,2497.726809206,2497.726809206,2497.726809206,2497.726809206,2497.726809206,2497.726809206,1,1,azul,1,['N_B'],2499.8793847389998,2499.8793847389998,2499.8793847389998,2499.8793847389998,2501.914746696,2501.914746696,2501.914746696,2501.914746696,2501.914746696,2501.914746696,2501.914746696,2501.914746696,2503.950873462,2503.950873462,2503.950873462,2503.950873462,,,,,,,,,,,,,,,,,,,,,,,,,,,,,,,,,,,,,,,05,005,2022-09-23_10h28.53.165,test2,2022.2.4,60.0015201985375,
0,0,0,0,155,0,155,0,2503.950873462,2503.950873462,2503.950873462,2503.950873462,2503.950873462,2503.950873462,2503.950873462,1,-1,azul,0,['N_A'],2506.670467265,2506.670467265,2506.670467265,2506.670467265,2508.70676892,2508.70676892,2508.70676892,2508.70676892,2508.70676892,2508.70676892,2508.70676892,2508.70676892,2510.7415420939997,2510.7415420939997,2510.7415420939997,2510.7415420939997,,,,,,,,,,,,,,,,,,,,,,,,,,,,,,,,,,,,,,,05,005,2022-09-23_10h28.53.165,test2,2022.2.4,60.0015201985375,
0,0,0,0,156,0,156,0,2510.7415420939997,2510.7415420939997,2510.7415420939997,2510.7415420939997,2510.7415420939997,2510.7415420939997,2510.7415420939997,-1,-1,azul,1,['N_A'],2513.5279476429996,2513.5279476429996,2513.5279476429996,2513.5279476429996,2515.5632844389997,2515.5632844389997,2515.5632844389997,2515.5632844389997,2515.5632844389997,2515.5632844389997,2515.5632844389997,2515.5632844389997,2517.59926408,2517.59926408,2517.59926408,2517.59926408,,,,,,,,,,,,,,,,,,,,,,,,,,,,,,,,,,,,,,,05,005,2022-09-23_10h28.53.165,test2,2022.2.4,60.0015201985375,
0,0,0,0,157,0,157,0,2517.59926408,2517.59926408,2517.59926408,2517.59926408,2517.59926408,2517.59926408,2517.59926408,-1,-1,azul,0,['N_B'],2519.851517092,2519.851517092,2519.851517092,2519.851517092,2521.8874704349996,2521.8874704349996,2521.8874704349996,2521.8874704349996,2521.8874704349996,2521.8874704349996,2521.8874704349996,2521.8874704349996,2523.9229136589997,2523.9229136589997,2523.9229136589997,2523.9229136589997,,,,,,,,,,,,,,,,,,,,,,,,,,,,,,,,,,,,,,,05,005,2022-09-23_10h28.53.165,test2,2022.2.4,60.0015201985375,
0,0,0,0,158,0,158,0,2523.9229136589997,2523.9229136589997,2523.9229136589997,2523.9229136589997,2523.9229136589997,2523.9229136589997,2523.9229136589997,1,1,azul,1,['N_B'],2525.424539533,2525.424539533,2525.424539533,2525.424539533,2527.4597484859996,2527.4597484859996,2527.4597484859996,2527.4597484859996,2527.4597484859996,2527.4597484859996,2527.4597484859996,2527.4597484859996,2529.4951402449997,2529.4951402449997,2529.4951402449997,2529.4951402449997,,,,,,,,,,,,,,,,,,,,,,,,,,,,,,,,,,,,,,,05,005,2022-09-23_10h28.53.165,test2,2022.2.4,60.0015201985375,
0,0,0,0,159,0,159,0,2529.4951402449997,2529.4951402449997,2529.4951402449997,2529.4951402449997,2529.4951402449997,2529.4951402449997,2529.4951402449997,1,-1,azul,0,['N_A'],2531.914514359,2531.914514359,2531.914514359,2531.914514359,2533.950841936,2533.950841936,2533.950841936,2533.950841936,2533.950841936,2533.950841936,2533.950841936,2533.950841936,2535.986632405,2535.986632405,2535.986632405,2535.986632405,,,,,,,,,,,,,,,,,,,,,,,,,,,,,,,,,,,,,,,05,005,2022-09-23_10h28.53.165,test2,2022.2.4,60.0015201985375,
0,0,0,0,160,0,160,0,2535.986632405,2535.986632405,2535.986632405,2535.986632405,2535.986632405,2535.986632405,2535.986632405,1,1,rojo,1,['N_A'],2538.10542684,2538.10542684,2538.10542684,2538.10542684,2540.140140388,2540.140140388,2540.140140388,2540.140140388,2540.140140388,2540.140140388,2540.140140388,2540.140140388,2542.176123799,2542.176123799,2542.176123799,2542.176123799,,,,,,,,,,,,,,,,,,,,,,,,,,,,,,,,,,,,,,,05,005,2022-09-23_10h28.53.165,test2,2022.2.4,60.0015201985375,
0,0,0,0,161,0,161,0,2542.176123799,2542.176123799,2542.176123799,2542.176123799,2542.176123799,2542.176123799,2542.176123799,1,-1,rojo,1,['N_A'],2543.861799599,2543.861799599,2543.861799599,2543.861799599,2545.896887896,2545.896887896,2545.896887896,2545.896887896,2545.896887896,2545.896887896,2545.896887896,2545.896887896,2547.93335316,2547.93335316,2547.93335316,2547.93335316,,,,,,,,,,,,,,,,,,,,,,,,,,,,,,,,,,,,,,,05,005,2022-09-23_10h28.53.165,test2,2022.2.4,60.0015201985375,
0,0,0,0,162,0,162,0,2547.93335316,2547.93335316,2547.93335316,2547.93335316,2547.93335316,2547.93335316,2547.93335316,1,1,rojo,0,['N_B'],2550.118608067,2550.118608067,2550.118608067,2550.118608067,2552.137300395,2552.137300395,2552.137300395,2552.137300395,2552.137300395,2552.137300395,2552.137300395,2552.137300395,2554.172451564,2554.172451564,2554.172451564,2554.172451564,,,,,,,,,,,,,,,,,,,,,,,,,,,,,,,,,,,,,,,05,005,2022-09-23_10h28.53.165,test2,2022.2.4,60.0015201985375,
0,0,0,0,163,0,163,0,2554.172451564,2554.172451564,2554.172451564,2554.172451564,2554.172451564,2554.172451564,2554.172451564,-1,1,rojo,1,['N_B'],2555.7247100249997,2555.7247100249997,2555.7247100249997,2555.7247100249997,2557.759880045,2557.759880045,2557.759880045,2557.759880045,2557.759880045,2557.759880045,2557.759880045,2557.759880045,2559.7953863149996,2559.7953863149996,2559.7953863149996,2559.7953863149996,,,,,,,,,,,,,,,,,,,,,,,,,,,,,,,,,,,,,,,05,005,2022-09-23_10h28.53.165,test2,2022.2.4,60.0015201985375,
0,0,0,0,164,0,164,0,2559.7953863149996,2559.7953863149996,2559.7953863149996,2559.7953863149996,2559.7953863149996,2559.7953863149996,2559.7953863149996,1,-1,azul,0,['N_A'],2561.5142819,2561.5142819,2561.5142819,2561.5142819,2563.549671847,2563.549671847,2563.549671847,2563.549671847,2563.549671847,2563.549671847,2563.549671847,2563.549671847,2565.585592162,2565.585592162,2565.585592162,2565.585592162,,,,,,,,,,,,,,,,,,,,,,,,,,,,,,,,,,,,,,,05,005,2022-09-23_10h28.53.165,test2,2022.2.4,60.0015201985375,
0,0,0,0,165,0,165,0,2565.585592162,2565.585592162,2565.585592162,2565.585592162,2565.585592162,2565.585592162,2565.585592162,1,1,rojo,1,['N_A'],2567.604356839,2567.604356839,2567.604356839,2567.604356839,2569.640471233,2569.640471233,2569.640471233,2569.640471233,2569.640471233,2569.640471233,2569.640471233,2569.640471233,2571.675965893,2571.675965893,2571.675965893,2571.675965893,,,,,,,,,,,,,,,,,,,,,,,,,,,,,,,,,,,,,,,05,005,2022-09-23_10h28.53.165,test2,2022.2.4,60.0015201985375,
0,0,0,0,166,0,166,0,2571.675965893,2571.675965893,2571.675965893,2571.675965893,2571.675965893,2571.675965893,2571.675965893,-1,-1,azul,0,['N_B'],2573.677787751,2573.677787751,2573.677787751,2573.677787751,2575.712959431,2575.712959431,2575.712959431,2575.712959431,2575.712959431,2575.712959431,2575.712959431,2575.712959431,2577.749182876,2577.749182876,2577.749182876,2577.749182876,,,,,,,,,,,,,,,,,,,,,,,,,,,,,,,,,,,,,,,05,005,2022-09-23_10h28.53.165,test2,2022.2.4,60.0015201985375,
0,0,0,0,167,0,167,0,2577.749182876,2577.749182876,2577.749182876,2577.749182876,2577.749182876,2577.749182876,2577.749182876,1,-1,azul,1,['N_B'],2579.1672603959996,2579.1672603959996,2579.1672603959996,2579.1672603959996,2581.20260394,2581.20260394,2581.20260394,2581.20260394,2581.20260394,2581.20260394,2581.20260394,2581.20260394,2583.238555862,2583.238555862,2583.238555862,2583.238555862,,,,,,,,,,,,,,,,,,,,,,,,,,,,,,,,,,,,,,,05,005,2022-09-23_10h28.53.165,test2,2022.2.4,60.0015201985375,
0,0,0,0,168,0,168,0,2583.238555862,2583.238555862,2583.238555862,2583.238555862,2583.238555862,2583.238555862,2583.238555862,1,1,azul,1,['N_B'],2584.79040534,2584.79040534,2584.79040534,2584.79040534,2586.809033689,2586.809033689,2586.809033689,2586.809033689,2586.809033689,2586.809033689,2586.809033689,2586.809033689,2588.8449776939997,2588.8449776939997,2588.8449776939997,2588.8449776939997,,,,,,,,,,,,,,,,,,,,,,,,,,,,,,,,,,,,,,,05,005,2022-09-23_10h28.53.165,test2,2022.2.4,60.0015201985375,
0,0,0,0,169,0,169,0,2588.8449776939997,2588.8449776939997,2588.8449776939997,2588.8449776939997,2588.8449776939997,2588.8449776939997,2588.8449776939997,1,1,azul,1,['N_B'],2590.630496413,2590.630496413,2590.630496413,2590.630496413,2592.665385812,2592.665385812,2592.665385812,2592.665385812,2592.665385812,2592.665385812,2592.665385812,2592.665385812,2594.7010963999996,2594.7010963999996,2594.7010963999996,2594.7010963999996,,,,,,,,,,,,,,,,,,,,,,,,,,,,,,,,,,,,,,,05,005,2022-09-23_10h28.53.165,test2,2022.2.4,60.0015201985375,
0,0,0,0,170,0,170,0,2594.7010963999996,2594.7010963999996,2594.7010963999996,2594.7010963999996,2594.7010963999996,2594.7010963999996,2594.7010963999996,1,-1,azul,0,['N_A'],2597.4206266769997,2597.4206266769997,2597.4206266769997,2597.4206266769997,2599.4563203589996,2599.4563203589996,2599.4563203589996,2599.4563203589996,2599.4563203589996,2599.4563203589996,2599.4563203589996,2599.4563203589996,2601.4919211439997,2601.4919211439997,2601.4919211439997,2601.4919211439997,,,,,,,,,,,,,,,,,,,,,,,,,,,,,,,,,,,,,,,05,005,2022-09-23_10h28.53.165,test2,2022.2.4,60.0015201985375,
0,0,0,0,171,0,171,0,2601.4919211439997,2601.4919211439997,2601.4919211439997,2601.4919211439997,2601.4919211439997,2601.4919211439997,2601.4919211439997,-1,1,azul,1,['N_A'],2603.3775184329998,2603.3775184329998,2603.3775184329998,2603.3775184329998,2605.396499378,2605.396499378,2605.396499378,2605.396499378,2605.396499378,2605.396499378,2605.396499378,2605.396499378,2607.432095881,2607.432095881,2607.432095881,2607.432095881,,,,,,,,,,,,,,,,,,,,,,,,,,,,,,,,,,,,,,,05,005,2022-09-23_10h28.53.165,test2,2022.2.4,60.0015201985375,
0,0,0,0,172,0,172,0,2607.432095881,2607.432095881,2607.432095881,2607.432095881,2607.432095881,2607.432095881,2607.432095881,1,1,rojo,1,['N_A'],2609.517764112,2609.517764112,2609.517764112,2609.517764112,2611.552684669,2611.552684669,2611.552684669,2611.552684669,2611.552684669,2611.552684669,2611.552684669,2611.552684669,2613.588391552,2613.588391552,2613.588391552,2613.588391552,,,,,,,,,,,,,,,,,,,,,,,,,,,,,,,,,,,,,,,05,005,2022-09-23_10h28.53.165,test2,2022.2.4,60.0015201985375,
0,0,0,0,173,0,173,0,2613.588391552,2613.588391552,2613.588391552,2613.588391552,2613.588391552,2613.588391552,2613.588391552,-1,-1,azul,0,['N_B'],2615.223783211,2615.223783211,2615.223783211,2615.223783211,2617.2589057289997,2617.2589057289997,2617.2589057289997,2617.2589057289997,2617.2589057289997,2617.2589057289997,2617.2589057289997,2617.2589057289997,2619.2942298509997,2619.2942298509997,2619.2942298509997,2619.2942298509997,,,,,,,,,,,,,,,,,,,,,,,,,,,,,,,,,,,,,,,05,005,2022-09-23_10h28.53.165,test2,2022.2.4,60.0015201985375,
0,0,0,0,174,0,174,0,2619.2942298509997,2619.2942298509997,2619.2942298509997,2619.2942298509997,2619.2942298509997,2619.2942298509997,2619.2942298509997,1,-1,azul,0,['N_A'],2622.498412979,2622.498412979,2622.498412979,2622.498412979,2624.5337909769996,2624.5337909769996,2624.5337909769996,2624.5337909769996,2624.5337909769996,2624.5337909769996,2624.5337909769996,2624.5337909769996,2626.569615896,2626.569615896,2626.569615896,2626.569615896,,,,,,,,,,,,,,,,,,,,,,,,,,,,,,,,,,,,,,,05,005,2022-09-23_10h28.53.165,test2,2022.2.4,60.0015201985375,
0,0,0,0,175,0,175,0,2626.569615896,2626.569615896,2626.569615896,2626.569615896,2626.569615896,2626.569615896,2626.569615896,-1,-1,azul,0,['N_B'],2628.7885516029996,2628.7885516029996,2628.7885516029996,2628.7885516029996,2630.82451231,2630.82451231,2630.82451231,2630.82451231,2630.82451231,2630.82451231,2630.82451231,2630.82451231,2632.85993536,2632.85993536,2632.85993536,2632.85993536,,,,,,,,,,,,,,,,,,,,,,,,,,,,,,,,,,,,,,,05,005,2022-09-23_10h28.53.165,test2,2022.2.4,60.0015201985375,
0,0,0,0,176,0,176,0,2632.85993536,2632.85993536,2632.85993536,2632.85993536,2632.85993536,2632.85993536,2632.85993536,-1,1,rojo,1,['N_B'],2634.5118915969997,2634.5118915969997,2634.5118915969997,2634.5118915969997,2636.530351643,2636.530351643,2636.530351643,2636.530351643,2636.530351643,2636.530351643,2636.530351643,2636.530351643,2638.5653633479997,2638.5653633479997,2638.5653633479997,2638.5653633479997,,,,,,,,,,,,,,,,,,,,,,,,,,,,,,,,,,,,,,,05,005,2022-09-23_10h28.53.165,test2,2022.2.4,60.0015201985375,
0,0,0,0,177,0,177,0,2638.5653633479997,2638.5653633479997,2638.5653633479997,2638.5653633479997,2638.5653633479997,2638.5653633479997,2638.5653633479997,1,1,azul,1,['N_B'],2642.0535494359997,2642.0535494359997,2642.0535494359997,2642.0535494359997,2644.07216083,2644.07216083,2644.07216083,2644.07216083,2644.07216083,2644.07216083,2644.07216083,2644.07216083,2646.107671972,2646.107671972,2646.107671972,2646.107671972,,,,,,,,,,,,,,,,,,,,,,,,,,,,,,,,,,,,,,,05,005,2022-09-23_10h28.53.165,test2,2022.2.4,60.0015201985375,
0,0,0,0,178,0,178,0,2646.107671972,2646.107671972,2646.107671972,2646.107671972,2646.107671972,2646.107671972,2646.107671972,1,1,azul,1,['N_B'],2647.943145501,2647.943145501,2647.943145501,2647.943145501,2649.9785248569997,2649.9785248569997,2649.9785248569997,2649.9785248569997,2649.9785248569997,2649.9785248569997,2649.9785248569997,2649.9785248569997,2652.0144757949997,2652.0144757949997,2652.0144757949997,2652.0144757949997,,,,,,,,,,,,,,,,,,,,,,,,,,,,,,,,,,,,,,,05,005,2022-09-23_10h28.53.165,test2,2022.2.4,60.0015201985375,
0,0,0,0,179,0,179,0,2652.0144757949997,2652.0144757949997,2652.0144757949997,2652.0144757949997,2652.0144757949997,2652.0144757949997,2652.0144757949997,1,-1,azul,1,['N_B'],2655.000458062,2655.000458062,2655.000458062,2655.000458062,2657.03676262,2657.03676262,2657.03676262,2657.03676262,2657.03676262,2657.03676262,2657.03676262,2657.03676262,2659.071796966,2659.071796966,2659.071796966,2659.071796966,,,,,,,,,,,,,,,,,,,,,,,,,,,,,,,,,,,,,,,05,005,2022-09-23_10h28.53.165,test2,2022.2.4,60.0015201985375,
0,0,0,0,180,0,180,0,2659.071796966,2659.071796966,2659.071796966,2659.071796966,2659.071796966,2659.071796966,2659.071796966,1,-1,azul,0,['N_A'],2660.8736007029997,2660.8736007029997,2660.8736007029997,2660.8736007029997,2662.9094757939997,2662.9094757939997,2662.9094757939997,2662.9094757939997,2662.9094757939997,2662.9094757939997,2662.9094757939997,2662.9094757939997,2664.9448086979996,2664.9448086979996,2664.9448086979996,2664.9448086979996,,,,,,,,,,,,,,,,,,,,,,,,,,,,,,,,,,,,,,,05,005,2022-09-23_10h28.53.165,test2,2022.2.4,60.0015201985375,
0,0,0,0,181,0,181,0,2664.9448086979996,2664.9448086979996,2664.9448086979996,2664.9448086979996,2664.9448086979996,2664.9448086979996,2664.9448086979996,1,1,rojo,1,['N_A'],2667.647946025,2667.647946025,2667.647946025,2667.647946025,2669.66709851,2669.66709851,2669.66709851,2669.66709851,2669.66709851,2669.66709851,2669.66709851,2669.66709851,2671.702391244,2671.702391244,2671.702391244,2671.702391244,,,,,,,,,,,,,,,,,,,,,,,,,,,,,,,,,,,,,,,05,005,2022-09-23_10h28.53.165,test2,2022.2.4,60.0015201985375,
0,0,0,0,182,0,182,0,2671.702391244,2671.702391244,2671.702391244,2671.702391244,2671.702391244,2671.702391244,2671.702391244,1,1,rojo,1,['N_A'],2673.154154341,2673.154154341,2673.154154341,2673.154154341,2675.171854977,2675.171854977,2675.171854977,2675.171854977,2675.171854977,2675.171854977,2675.171854977,2675.171854977,2677.2087278649997,2677.2087278649997,2677.2087278649997,2677.2087278649997,,,,,,,,,,,,,,,,,,,,,,,,,,,,,,,,,,,,,,,05,005,2022-09-23_10h28.53.165,test2,2022.2.4,60.0015201985375,
0,0,0,0,183,0,183,0,2677.2087278649997,2677.2087278649997,2677.2087278649997,2677.2087278649997,2677.2087278649997,2677.2087278649997,2677.2087278649997,1,1,rojo,1,['N_A'],2679.0943889789996,2679.0943889789996,2679.0943889789996,2679.0943889789996,2681.112817497,2681.112817497,2681.112817497,2681.112817497,2681.112817497,2681.112817497,2681.112817497,2681.112817497,2683.1483540729996,2683.1483540729996,2683.1483540729996,2683.1483540729996,,,,,,,,,,,,,,,,,,,,,,,,,,,,,,,,,,,,,,,05,005,2022-09-23_10h28.53.165,test2,2022.2.4,60.0015201985375,
0,0,0,0,184,0,184,0,2683.1483540729996,2683.1483540729996,2683.1483540729996,2683.1483540729996,2683.1483540729996,2683.1483540729996,2683.1483540729996,-1,1,azul,1,['N_A'],2685.4348992819996,2685.4348992819996,2685.4348992819996,2685.4348992819996,2687.469349231,2687.469349231,2687.469349231,2687.469349231,2687.469349231,2687.469349231,2687.469349231,2687.469349231,2689.5059307799997,2689.5059307799997,2689.5059307799997,2689.5059307799997,,,,,,,,,,,,,,,,,,,,,,,,,,,,,,,,,,,,,,,05,005,2022-09-23_10h28.53.165,test2,2022.2.4,60.0015201985375,
0,0,0,0,185,0,185,0,2689.5059307799997,2689.5059307799997,2689.5059307799997,2689.5059307799997,2689.5059307799997,2689.5059307799997,2689.5059307799997,-1,-1,azul,1,['N_A'],2691.307589271,2691.307589271,2691.307589271,2691.307589271,2693.342904664,2693.342904664,2693.342904664,2693.342904664,2693.342904664,2693.342904664,2693.342904664,2693.342904664,2695.3787607189997,2695.3787607189997,2695.3787607189997,2695.3787607189997,,,,,,,,,,,,,,,,,,,,,,,,,,,,,,,,,,,,,,,05,005,2022-09-23_10h28.53.165,test2,2022.2.4,60.0015201985375,
0,0,0,0,186,0,186,0,2695.3787607189997,2695.3787607189997,2695.3787607189997,2695.3787607189997,2695.3787607189997,2695.3787607189997,2695.3787607189997,1,1,rojo,1,['N_A'],2697.3814076959998,2697.3814076959998,2697.3814076959998,2697.3814076959998,2699.39962582,2699.39962582,2699.39962582,2699.39962582,2699.39962582,2699.39962582,2699.39962582,2699.39962582,2701.4349479969997,2701.4349479969997,2701.4349479969997,2701.4349479969997,,,,,,,,,,,,,,,,,,,,,,,,,,,,,,,,,,,,,,,05,005,2022-09-23_10h28.53.165,test2,2022.2.4,60.0015201985375,
0,0,0,0,187,0,187,0,2701.4349479969997,2701.4349479969997,2701.4349479969997,2701.4349479969997,2701.4349479969997,2701.4349479969997,2701.4349479969997,1,1,rojo,1,['N_A'],2703.2203418189997,2703.2203418189997,2703.2203418189997,2703.2203418189997,2705.2561217579996,2705.2561217579996,2705.2561217579996,2705.2561217579996,2705.2561217579996,2705.2561217579996,2705.2561217579996,2705.2561217579996,2707.29231034,2707.29231034,2707.29231034,2707.29231034,,,,,,,,,,,,,,,,,,,,,,,,,,,,,,,,,,,,,,,05,005,2022-09-23_10h28.53.165,test2,2022.2.4,60.0015201985375,
0,0,0,0,188,0,188,0,2707.29231034,2707.29231034,2707.29231034,2707.29231034,2707.29231034,2707.29231034,2707.29231034,-1,-1,azul,0,['N_B'],2709.093519705,2709.093519705,2709.093519705,2709.093519705,2711.12916593,2711.12916593,2711.12916593,2711.12916593,2711.12916593,2711.12916593,2711.12916593,2711.12916593,2713.1645338099997,2713.1645338099997,2713.1645338099997,2713.1645338099997,,,,,,,,,,,,,,,,,,,,,,,,,,,,,,,,,,,,,,,05,005,2022-09-23_10h28.53.165,test2,2022.2.4,60.0015201985375,
