trials_2.thisRepN,trials_2.thisTrialN,trials_2.thisN,trials_2.thisIndex,trials.thisRepN,trials.thisTrialN,trials.thisN,trials.thisIndex,Instrucción2.started,N_A_4.started,N_B_4.started,Exitos_3.started,Dias_3.started,Stimuli_1.started,Stimuli_2.started,Transitions,Rewards,Mode,Stay,Neighbour,Stimuli_3.started,Modo.started,Dias2.started,Exitos2.started,Stimuli_3.stopped,Modo.stopped,Dias2.stopped,Exitos2.stopped,Reward.started,Stimuli_reward.started,Exitos3.started,Dias3.started,Reward.stopped,Stimuli_reward.stopped,Exitos3.stopped,Dias3.stopped,Cue_text.started,Stimuli_4.started,Exitos4.started,Dias4.started,Stimuli_3_3.started,Stimuli_2_3.started,Instrucción.started,N_A.started,N_B.started,N_C.started,Exitos_2.started,Dias_2.started,Stimuli_1_3.started,Stimuli_3_2.started,Stimuli_2_2.started,Pregunta.started,N_A_2.started,N_B_2.started,N_C_2.started,Exitos5.started,Dias5.started,Stimuli_1_2.started,Resp_final_1,Modo2.started,Modo1.started,Pregunta_4.started,Modo3.started,Exitos7.started,Dias6.started,Resp_final_2,Modo1_2.started,Pregunta_3.started,Modo2_2.started,Exitos8.started,Dias7.started,Resp_final_3,Mensaje_Final2.started,Exitos6.started,participant,session,date,expName,psychopyVersion,frameRate,
0,0,0,0,0,0,0,0,309.35624873800043,309.35624873800043,309.35624873800043,309.35624873800043,309.35624873800043,309.35624873800043,309.35624873800043,0,0,0,0,['N_B'],323.0533378910004,323.0533378910004,323.0533378910004,323.0533378910004,325.09030403200086,325.09030403200086,325.09030403200086,325.09030403200086,325.09030403200086,325.09030403200086,325.09030403200086,325.09030403200086,327.12509385700014,327.12509385700014,327.12509385700014,327.12509385700014,,,,,,,,,,,,,,,,,,,,,,,,,,,,,,,,,,,,,,,05,006,2022-09-23_11h44.54.373,test2,2022.2.4,59.754403902513616,
0,0,0,0,1,0,1,0,327.12509385700014,327.12509385700014,327.12509385700014,327.12509385700014,327.12509385700014,327.12509385700014,327.12509385700014,1,-1,azul,0,['N_A'],331.84662032100005,331.84662032100005,331.84662032100005,331.84662032100005,333.8823618810002,333.8823618810002,333.8823618810002,333.8823618810002,333.8823618810002,333.8823618810002,333.8823618810002,333.8823618810002,335.9181550230005,335.9181550230005,335.9181550230005,335.9181550230005,,,,,,,,,,,,,,,,,,,,,,,,,,,,,,,,,,,,,,,05,006,2022-09-23_11h44.54.373,test2,2022.2.4,59.754403902513616,
0,0,0,0,2,0,2,0,335.9181550230005,335.9181550230005,335.9181550230005,335.9181550230005,335.9181550230005,335.9181550230005,335.9181550230005,1,1,rojo,1,['N_A'],341.20755946700046,341.20755946700046,341.20755946700046,341.20755946700046,343.242792731,343.242792731,343.242792731,343.242792731,343.242792731,343.242792731,343.242792731,343.242792731,345.2779949120004,345.2779949120004,345.2779949120004,345.2779949120004,,,,,,,,,,,,,,,,,,,,,,,,,,,,,,,,,,,,,,,05,006,2022-09-23_11h44.54.373,test2,2022.2.4,59.754403902513616,
0,0,0,0,3,0,3,0,345.2779949120004,345.2779949120004,345.2779949120004,345.2779949120004,345.2779949120004,345.2779949120004,345.2779949120004,1,-1,rojo,1,['N_A'],350.20042880000074,350.20042880000074,350.20042880000074,350.20042880000074,352.2360663160007,352.2360663160007,352.2360663160007,352.2360663160007,352.2360663160007,352.2360663160007,352.2360663160007,352.2360663160007,354.27197591500044,354.27197591500044,354.27197591500044,354.27197591500044,,,,,,,,,,,,,,,,,,,,,,,,,,,,,,,,,,,,,,,05,006,2022-09-23_11h44.54.373,test2,2022.2.4,59.754403902513616,
0,0,0,0,4,0,4,0,354.27197591500044,354.27197591500044,354.27197591500044,354.27197591500044,354.27197591500044,354.27197591500044,354.27197591500044,1,1,rojo,1,['N_A'],358.15862167200066,358.15862167200066,358.15862167200066,358.15862167200066,360.178808572,360.178808572,360.178808572,360.178808572,360.178808572,360.178808572,360.178808572,360.178808572,362.2135369030002,362.2135369030002,362.2135369030002,362.2135369030002,,,,,,,,,,,,,,,,,,,,,,,,,,,,,,,,,,,,,,,05,006,2022-09-23_11h44.54.373,test2,2022.2.4,59.754403902513616,
0,0,0,0,5,0,5,0,362.2135369030002,362.2135369030002,362.2135369030002,362.2135369030002,362.2135369030002,362.2135369030002,362.2135369030002,-1,1,azul,1,['N_A'],366.20186245900004,366.20186245900004,366.20186245900004,366.20186245900004,368.21988115600016,368.21988115600016,368.21988115600016,368.21988115600016,368.21988115600016,368.21988115600016,368.21988115600016,368.21988115600016,370.25573319200066,370.25573319200066,370.25573319200066,370.25573319200066,,,,,,,,,,,,,,,,,,,,,,,,,,,,,,,,,,,,,,,05,006,2022-09-23_11h44.54.373,test2,2022.2.4,59.754403902513616,
0,0,0,0,6,0,6,0,370.25573319200066,370.25573319200066,370.25573319200066,370.25573319200066,370.25573319200066,370.25573319200066,370.25573319200066,-1,1,azul,1,['N_A'],373.24256441300076,373.24256441300076,373.24256441300076,373.24256441300076,375.27799584700006,375.27799584700006,375.27799584700006,375.27799584700006,375.27799584700006,375.27799584700006,375.27799584700006,375.27799584700006,377.3134781410008,377.3134781410008,377.3134781410008,377.3134781410008,,,,,,,,,,,,,,,,,,,,,,,,,,,,,,,,,,,,,,,05,006,2022-09-23_11h44.54.373,test2,2022.2.4,59.754403902513616,
0,0,0,0,7,0,7,0,377.3134781410008,377.3134781410008,377.3134781410008,377.3134781410008,377.3134781410008,377.3134781410008,377.3134781410008,1,-1,rojo,1,['N_A'],381.4018054350008,381.4018054350008,381.4018054350008,381.4018054350008,383.43696329400063,383.43696329400063,383.43696329400063,383.43696329400063,383.43696329400063,383.43696329400063,383.43696329400063,383.43696329400063,385.47303147,385.47303147,385.47303147,385.47303147,,,,,,,,,,,,,,,,,,,,,,,,,,,,,,,,,,,,,,,05,006,2022-09-23_11h44.54.373,test2,2022.2.4,59.754403902513616,
0,0,0,0,8,0,8,0,385.47303147,385.47303147,385.47303147,385.47303147,385.47303147,385.47303147,385.47303147,1,-1,rojo,1,['N_A'],387.457600144,387.457600144,387.457600144,387.457600144,389.49385919500037,389.49385919500037,389.49385919500037,389.49385919500037,389.49385919500037,389.49385919500037,389.49385919500037,389.49385919500037,391.52905370900044,391.52905370900044,391.52905370900044,391.52905370900044,,,,,,,,,,,,,,,,,,,,,,,,,,,,,,,,,,,,,,,05,006,2022-09-23_11h44.54.373,test2,2022.2.4,59.754403902513616,
0,0,0,0,9,0,9,0,391.52905370900044,391.52905370900044,391.52905370900044,391.52905370900044,391.52905370900044,391.52905370900044,391.52905370900044,-1,1,azul,1,['N_A'],393.36528642600024,393.36528642600024,393.36528642600024,393.36528642600024,395.3838428880008,395.3838428880008,395.3838428880008,395.3838428880008,395.3838428880008,395.3838428880008,395.3838428880008,395.3838428880008,397.4190875710001,397.4190875710001,397.4190875710001,397.4190875710001,,,,,,,,,,,,,,,,,,,,,,,,,,,,,,,,,,,,,,,05,006,2022-09-23_11h44.54.373,test2,2022.2.4,59.754403902513616,
0,0,0,0,10,0,10,0,397.4190875710001,397.4190875710001,397.4190875710001,397.4190875710001,397.4190875710001,397.4190875710001,397.4190875710001,1,1,rojo,1,['N_A'],399.321659233,399.321659233,399.321659233,399.321659233,401.3566711760004,401.3566711760004,401.3566711760004,401.3566711760004,401.3566711760004,401.3566711760004,401.3566711760004,401.3566711760004,403.3923481610009,403.3923481610009,403.3923481610009,403.3923481610009,,,,,,,,,,,,,,,,,,,,,,,,,,,,,,,,,,,,,,,05,006,2022-09-23_11h44.54.373,test2,2022.2.4,59.754403902513616,
0,0,0,0,11,0,11,0,403.3923481610009,403.3923481610009,403.3923481610009,403.3923481610009,403.3923481610009,403.3923481610009,403.3923481610009,1,-1,rojo,1,['N_A'],404.9779722250005,404.9779722250005,404.9779722250005,404.9779722250005,407.0128466570004,407.0128466570004,407.0128466570004,407.0128466570004,407.0128466570004,407.0128466570004,407.0128466570004,407.0128466570004,409.04907931400066,409.04907931400066,409.04907931400066,409.04907931400066,,,,,,,,,,,,,,,,,,,,,,,,,,,,,,,,,,,,,,,05,006,2022-09-23_11h44.54.373,test2,2022.2.4,59.754403902513616,
0,0,0,0,12,0,12,0,409.04907931400066,409.04907931400066,409.04907931400066,409.04907931400066,409.04907931400066,409.04907931400066,409.04907931400066,-1,1,azul,0,['N_B'],410.56758324100065,410.56758324100065,410.56758324100065,410.56758324100065,412.58610838800087,412.58610838800087,412.58610838800087,412.58610838800087,412.58610838800087,412.58610838800087,412.58610838800087,412.58610838800087,414.6213146530008,414.6213146530008,414.6213146530008,414.6213146530008,,,,,,,,,,,,,,,,,,,,,,,,,,,,,,,,,,,,,,,05,006,2022-09-23_11h44.54.373,test2,2022.2.4,59.754403902513616,
0,0,0,0,13,0,13,0,414.6213146530008,414.6213146530008,414.6213146530008,414.6213146530008,414.6213146530008,414.6213146530008,414.6213146530008,1,1,azul,1,['N_B'],416.30705544600005,416.30705544600005,416.30705544600005,416.30705544600005,418.3418907790001,418.3418907790001,418.3418907790001,418.3418907790001,418.3418907790001,418.3418907790001,418.3418907790001,418.3418907790001,420.3780854980005,420.3780854980005,420.3780854980005,420.3780854980005,,,,,,,,,,,,,,,,,,,,,,,,,,,,,,,,,,,,,,,05,006,2022-09-23_11h44.54.373,test2,2022.2.4,59.754403902513616,
0,0,0,0,14,0,14,0,420.3780854980005,420.3780854980005,420.3780854980005,420.3780854980005,420.3780854980005,420.3780854980005,420.3780854980005,1,-1,azul,0,['N_A'],422.0625271560002,422.0625271560002,422.0625271560002,422.0625271560002,424.0982850700002,424.0982850700002,424.0982850700002,424.0982850700002,424.0982850700002,424.0982850700002,424.0982850700002,424.0982850700002,426.13474742000017,426.13474742000017,426.13474742000017,426.13474742000017,,,,,,,,,,,,,,,,,,,,,,,,,,,,,,,,,,,,,,,05,006,2022-09-23_11h44.54.373,test2,2022.2.4,59.754403902513616,
0,0,0,0,15,0,15,0,426.13474742000017,426.13474742000017,426.13474742000017,426.13474742000017,426.13474742000017,426.13474742000017,426.13474742000017,1,1,rojo,0,['N_B'],427.75237163100064,427.75237163100064,427.75237163100064,427.75237163100064,429.7882364950001,429.7882364950001,429.7882364950001,429.7882364950001,429.7882364950001,429.7882364950001,429.7882364950001,429.7882364950001,431.8237758570003,431.8237758570003,431.8237758570003,431.8237758570003,,,,,,,,,,,,,,,,,,,,,,,,,,,,,,,,,,,,,,,05,006,2022-09-23_11h44.54.373,test2,2022.2.4,59.754403902513616,
0,0,0,0,16,0,16,0,431.8237758570003,431.8237758570003,431.8237758570003,431.8237758570003,431.8237758570003,431.8237758570003,431.8237758570003,1,-1,azul,0,['N_A'],433.34182381700066,433.34182381700066,433.34182381700066,433.34182381700066,435.37778836300004,435.37778836300004,435.37778836300004,435.37778836300004,435.37778836300004,435.37778836300004,435.37778836300004,435.37778836300004,437.4127806330007,437.4127806330007,437.4127806330007,437.4127806330007,,,,,,,,,,,,,,,,,,,,,,,,,,,,,,,,,,,,,,,05,006,2022-09-23_11h44.54.373,test2,2022.2.4,59.754403902513616,
0,0,0,0,17,0,17,0,437.4127806330007,437.4127806330007,437.4127806330007,437.4127806330007,437.4127806330007,437.4127806330007,437.4127806330007,1,1,rojo,0,['N_B'],439.06534149600066,439.06534149600066,439.06534149600066,439.06534149600066,441.08395771100004,441.08395771100004,441.08395771100004,441.08395771100004,441.08395771100004,441.08395771100004,441.08395771100004,441.08395771100004,443.1201100210001,443.1201100210001,443.1201100210001,443.1201100210001,,,,,,,,,,,,,,,,,,,,,,,,,,,,,,,,,,,,,,,05,006,2022-09-23_11h44.54.373,test2,2022.2.4,59.754403902513616,
0,0,0,0,18,0,18,0,443.1201100210001,443.1201100210001,443.1201100210001,443.1201100210001,443.1201100210001,443.1201100210001,443.1201100210001,1,1,azul,0,['N_A'],444.8717458030005,444.8717458030005,444.8717458030005,444.8717458030005,446.90691117700044,446.90691117700044,446.90691117700044,446.90691117700044,446.90691117700044,446.90691117700044,446.90691117700044,446.90691117700044,448.9430316300004,448.9430316300004,448.9430316300004,448.9430316300004,,,,,,,,,,,,,,,,,,,,,,,,,,,,,,,,,,,,,,,05,006,2022-09-23_11h44.54.373,test2,2022.2.4,59.754403902513616,
0,0,0,0,19,0,19,0,448.9430316300004,448.9430316300004,448.9430316300004,448.9430316300004,448.9430316300004,448.9430316300004,448.9430316300004,1,-1,rojo,0,['N_B'],450.6280969420004,450.6280969420004,450.6280969420004,450.6280969420004,452.6632499040006,452.6632499040006,452.6632499040006,452.6632499040006,452.6632499040006,452.6632499040006,452.6632499040006,452.6632499040006,454.69924275000085,454.69924275000085,454.69924275000085,454.69924275000085,,,,,,,,,,,,,,,,,,,,,,,,,,,,,,,,,,,,,,,05,006,2022-09-23_11h44.54.373,test2,2022.2.4,59.754403902513616,
0,0,0,0,20,0,20,0,454.69924275000085,454.69924275000085,454.69924275000085,454.69924275000085,454.69924275000085,454.69924275000085,454.69924275000085,1,1,azul,0,['N_A'],457.0348029200004,457.0348029200004,457.0348029200004,457.0348029200004,459.0707323600009,459.0707323600009,459.0707323600009,459.0707323600009,459.0707323600009,459.0707323600009,459.0707323600009,459.0707323600009,461.10603943800015,461.10603943800015,461.10603943800015,461.10603943800015,,,,,,,,,,,,,,,,,,,,,,,,,,,,,,,,,,,,,,,05,006,2022-09-23_11h44.54.373,test2,2022.2.4,59.754403902513616,
0,0,0,0,21,0,21,0,461.10603943800015,461.10603943800015,461.10603943800015,461.10603943800015,461.10603943800015,461.10603943800015,461.10603943800015,1,-1,rojo,0,['N_B'],463.1588610910003,463.1588610910003,463.1588610910003,463.1588610910003,465.19411142400077,465.19411142400077,465.19411142400077,465.19411142400077,465.19411142400077,465.19411142400077,465.19411142400077,465.19411142400077,467.2290269940004,467.2290269940004,467.2290269940004,467.2290269940004,,,,,,,,,,,,,,,,,,,,,,,,,,,,,,,,,,,,,,,05,006,2022-09-23_11h44.54.373,test2,2022.2.4,59.754403902513616,
0,0,0,0,22,0,22,0,467.2290269940004,467.2290269940004,467.2290269940004,467.2290269940004,467.2290269940004,467.2290269940004,467.2290269940004,1,1,azul,0,['N_A'],469.2154624880004,469.2154624880004,469.2154624880004,469.2154624880004,471.25044530300056,471.25044530300056,471.25044530300056,471.25044530300056,471.25044530300056,471.25044530300056,471.25044530300056,471.25044530300056,473.2859064680006,473.2859064680006,473.2859064680006,473.2859064680006,,,,,,,,,,,,,,,,,,,,,,,,,,,,,,,,,,,,,,,05,006,2022-09-23_11h44.54.373,test2,2022.2.4,59.754403902513616,
0,0,0,0,23,0,23,0,473.2859064680006,473.2859064680006,473.2859064680006,473.2859064680006,473.2859064680006,473.2859064680006,473.2859064680006,1,-1,rojo,0,['N_B'],475.2387161550005,475.2387161550005,475.2387161550005,475.2387161550005,477.27422771500005,477.27422771500005,477.27422771500005,477.27422771500005,477.27422771500005,477.27422771500005,477.27422771500005,477.27422771500005,479.3099185330002,479.3099185330002,479.3099185330002,479.3099185330002,,,,,,,,,,,,,,,,,,,,,,,,,,,,,,,,,,,,,,,05,006,2022-09-23_11h44.54.373,test2,2022.2.4,59.754403902513616,
0,0,0,0,24,0,24,0,479.3099185330002,479.3099185330002,479.3099185330002,479.3099185330002,479.3099185330002,479.3099185330002,479.3099185330002,1,1,azul,0,['N_A'],481.6620354500001,481.6620354500001,481.6620354500001,481.6620354500001,483.69747364900013,483.69747364900013,483.69747364900013,483.69747364900013,483.69747364900013,483.69747364900013,483.69747364900013,483.69747364900013,485.7334596670007,485.7334596670007,485.7334596670007,485.7334596670007,,,,,,,,,,,,,,,,,,,,,,,,,,,,,,,,,,,,,,,05,006,2022-09-23_11h44.54.373,test2,2022.2.4,59.754403902513616,
0,0,0,0,25,0,25,0,485.7334596670007,485.7334596670007,485.7334596670007,485.7334596670007,485.7334596670007,485.7334596670007,485.7334596670007,1,-1,rojo,1,['N_A'],487.3855318370006,487.3855318370006,487.3855318370006,487.3855318370006,489.4207226140006,489.4207226140006,489.4207226140006,489.4207226140006,489.4207226140006,489.4207226140006,489.4207226140006,489.4207226140006,491.45634256300036,491.45634256300036,491.45634256300036,491.45634256300036,,,,,,,,,,,,,,,,,,,,,,,,,,,,,,,,,,,,,,,05,006,2022-09-23_11h44.54.373,test2,2022.2.4,59.754403902513616,
0,0,0,0,26,0,26,0,491.45634256300036,491.45634256300036,491.45634256300036,491.45634256300036,491.45634256300036,491.45634256300036,491.45634256300036,1,-1,rojo,1,['N_A'],493.00790809700084,493.00790809700084,493.00790809700084,493.00790809700084,495.0443134010002,495.0443134010002,495.0443134010002,495.0443134010002,495.0443134010002,495.0443134010002,495.0443134010002,495.0443134010002,497.07909602900054,497.07909602900054,497.07909602900054,497.07909602900054,,,,,,,,,,,,,,,,,,,,,,,,,,,,,,,,,,,,,,,05,006,2022-09-23_11h44.54.373,test2,2022.2.4,59.754403902513616,
0,0,0,0,27,0,27,0,497.07909602900054,497.07909602900054,497.07909602900054,497.07909602900054,497.07909602900054,497.07909602900054,497.07909602900054,1,1,rojo,1,['N_A'],498.6982015000003,498.6982015000003,498.6982015000003,498.6982015000003,500.7330434610003,500.7330434610003,500.7330434610003,500.7330434610003,500.7330434610003,500.7330434610003,500.7330434610003,500.7330434610003,502.76896223900076,502.76896223900076,502.76896223900076,502.76896223900076,,,,,,,,,,,,,,,,,,,,,,,,,,,,,,,,,,,,,,,05,006,2022-09-23_11h44.54.373,test2,2022.2.4,59.754403902513616,
0,0,0,0,28,0,28,0,502.76896223900076,502.76896223900076,502.76896223900076,502.76896223900076,502.76896223900076,502.76896223900076,502.76896223900076,1,-1,rojo,0,['N_B'],504.21997297600046,504.21997297600046,504.21997297600046,504.21997297600046,506.2555896060003,506.2555896060003,506.2555896060003,506.2555896060003,506.2555896060003,506.2555896060003,506.2555896060003,506.2555896060003,508.2917223250006,508.2917223250006,508.2917223250006,508.2917223250006,,,,,,,,,,,,,,,,,,,,,,,,,,,,,,,,,,,,,,,05,006,2022-09-23_11h44.54.373,test2,2022.2.4,59.754403902513616,
0,0,0,0,29,0,29,0,508.2917223250006,508.2917223250006,508.2917223250006,508.2917223250006,508.2917223250006,508.2917223250006,508.2917223250006,1,1,azul,1,['N_B'],510.04329093400065,510.04329093400065,510.04329093400065,510.04329093400065,512.0786623290005,512.0786623290005,512.0786623290005,512.0786623290005,512.0786623290005,512.0786623290005,512.0786623290005,512.0786623290005,514.1149691380006,514.1149691380006,514.1149691380006,514.1149691380006,,,,,,,,,,,,,,,,,,,,,,,,,,,,,,,,,,,,,,,05,006,2022-09-23_11h44.54.373,test2,2022.2.4,59.754403902513616,
0,0,0,0,30,0,30,0,514.1149691380006,514.1149691380006,514.1149691380006,514.1149691380006,514.1149691380006,514.1149691380006,514.1149691380006,1,-1,azul,1,['N_B'],516.2671077410005,516.2671077410005,516.2671077410005,516.2671077410005,518.3026589350002,518.3026589350002,518.3026589350002,518.3026589350002,518.3026589350002,518.3026589350002,518.3026589350002,518.3026589350002,520.3385119550003,520.3385119550003,520.3385119550003,520.3385119550003,,,,,,,,,,,,,,,,,,,,,,,,,,,,,,,,,,,,,,,05,006,2022-09-23_11h44.54.373,test2,2022.2.4,59.754403902513616,
0,0,0,0,31,0,31,0,520.3385119550003,520.3385119550003,520.3385119550003,520.3385119550003,520.3385119550003,520.3385119550003,520.3385119550003,1,-1,azul,1,['N_B'],522.257230147,522.257230147,522.257230147,522.257230147,524.2925578490003,524.2925578490003,524.2925578490003,524.2925578490003,524.2925578490003,524.2925578490003,524.2925578490003,524.2925578490003,526.3279270720004,526.3279270720004,526.3279270720004,526.3279270720004,,,,,,,,,,,,,,,,,,,,,,,,,,,,,,,,,,,,,,,05,006,2022-09-23_11h44.54.373,test2,2022.2.4,59.754403902513616,
0,0,0,0,32,0,32,0,526.3279270720004,526.3279270720004,526.3279270720004,526.3279270720004,526.3279270720004,526.3279270720004,526.3279270720004,1,-1,azul,1,['N_B'],528.0132904340007,528.0132904340007,528.0132904340007,528.0132904340007,530.0489155780006,530.0489155780006,530.0489155780006,530.0489155780006,530.0489155780006,530.0489155780006,530.0489155780006,530.0489155780006,532.0844524370004,532.0844524370004,532.0844524370004,532.0844524370004,,,,,,,,,,,,,,,,,,,,,,,,,,,,,,,,,,,,,,,05,006,2022-09-23_11h44.54.373,test2,2022.2.4,59.754403902513616,
0,0,0,0,33,0,33,0,532.0844524370004,532.0844524370004,532.0844524370004,532.0844524370004,532.0844524370004,532.0844524370004,532.0844524370004,-1,-1,rojo,1,['N_B'],533.6699499800006,533.6699499800006,533.6699499800006,533.6699499800006,535.7056700560006,535.7056700560006,535.7056700560006,535.7056700560006,535.7056700560006,535.7056700560006,535.7056700560006,535.7056700560006,537.7402816890008,537.7402816890008,537.7402816890008,537.7402816890008,,,,,,,,,,,,,,,,,,,,,,,,,,,,,,,,,,,,,,,05,006,2022-09-23_11h44.54.373,test2,2022.2.4,59.754403902513616,
0,0,0,0,34,0,34,0,537.7402816890008,537.7402816890008,537.7402816890008,537.7402816890008,537.7402816890008,537.7402816890008,537.7402816890008,-1,-1,rojo,0,['N_A'],539.2258761910007,539.2258761910007,539.2258761910007,539.2258761910007,541.2613441860003,541.2613441860003,541.2613441860003,541.2613441860003,541.2613441860003,541.2613441860003,541.2613441860003,541.2613441860003,543.2967912270005,543.2967912270005,543.2967912270005,543.2967912270005,,,,,,,,,,,,,,,,,,,,,,,,,,,,,,,,,,,,,,,05,006,2022-09-23_11h44.54.373,test2,2022.2.4,59.754403902513616,
0,0,0,0,35,0,35,0,543.2967912270005,543.2967912270005,543.2967912270005,543.2967912270005,543.2967912270005,543.2967912270005,543.2967912270005,-1,-1,azul,1,['N_A'],544.9158304000002,544.9158304000002,544.9158304000002,544.9158304000002,546.9509198580008,546.9509198580008,546.9509198580008,546.9509198580008,546.9509198580008,546.9509198580008,546.9509198580008,546.9509198580008,548.9865537450005,548.9865537450005,548.9865537450005,548.9865537450005,,,,,,,,,,,,,,,,,,,,,,,,,,,,,,,,,,,,,,,05,006,2022-09-23_11h44.54.373,test2,2022.2.4,59.754403902513616,
0,0,0,0,36,0,36,0,548.9865537450005,548.9865537450005,548.9865537450005,548.9865537450005,548.9865537450005,548.9865537450005,548.9865537450005,1,1,rojo,1,['N_A'],550.471930142,550.471930142,550.471930142,550.471930142,552.5076815740003,552.5076815740003,552.5076815740003,552.5076815740003,552.5076815740003,552.5076815740003,552.5076815740003,552.5076815740003,554.5428191570008,554.5428191570008,554.5428191570008,554.5428191570008,,,,,,,,,,,,,,,,,,,,,,,,,,,,,,,,,,,,,,,05,006,2022-09-23_11h44.54.373,test2,2022.2.4,59.754403902513616,
0,0,0,0,37,0,37,0,554.5428191570008,554.5428191570008,554.5428191570008,554.5428191570008,554.5428191570008,554.5428191570008,554.5428191570008,1,-1,rojo,1,['N_A'],556.2608070190008,556.2608070190008,556.2608070190008,556.2608070190008,558.2971730240006,558.2971730240006,558.2971730240006,558.2971730240006,558.2971730240006,558.2971730240006,558.2971730240006,558.2971730240006,560.3319332710007,560.3319332710007,560.3319332710007,560.3319332710007,,,,,,,,,,,,,,,,,,,,,,,,,,,,,,,,,,,,,,,05,006,2022-09-23_11h44.54.373,test2,2022.2.4,59.754403902513616,
0,0,0,0,38,0,38,0,560.3319332710007,560.3319332710007,560.3319332710007,560.3319332710007,560.3319332710007,560.3319332710007,560.3319332710007,1,1,rojo,1,['N_A'],562.017085511,562.017085511,562.017085511,562.017085511,564.036014669,564.036014669,564.036014669,564.036014669,564.036014669,564.036014669,564.036014669,564.036014669,566.0717941100002,566.0717941100002,566.0717941100002,566.0717941100002,,,,,,,,,,,,,,,,,,,,,,,,,,,,,,,,,,,,,,,05,006,2022-09-23_11h44.54.373,test2,2022.2.4,59.754403902513616,
0,0,0,0,39,0,39,0,566.0717941100002,566.0717941100002,566.0717941100002,566.0717941100002,566.0717941100002,566.0717941100002,566.0717941100002,1,1,rojo,1,['N_A'],568.0237222120004,568.0237222120004,568.0237222120004,568.0237222120004,570.0424273690005,570.0424273690005,570.0424273690005,570.0424273690005,570.0424273690005,570.0424273690005,570.0424273690005,570.0424273690005,572.0786002680006,572.0786002680006,572.0786002680006,572.0786002680006,,,,,,,,,,,,,,,,,,,,,,,,,,,,,,,,,,,,,,,05,006,2022-09-23_11h44.54.373,test2,2022.2.4,59.754403902513616,
0,0,0,0,40,0,40,0,572.0786002680006,572.0786002680006,572.0786002680006,572.0786002680006,572.0786002680006,572.0786002680006,572.0786002680006,1,1,rojo,1,['N_A'],573.6965544430004,573.6965544430004,573.6965544430004,573.6965544430004,575.7152947900004,575.7152947900004,575.7152947900004,575.7152947900004,575.7152947900004,575.7152947900004,575.7152947900004,575.7152947900004,577.7516230680003,577.7516230680003,577.7516230680003,577.7516230680003,,,,,,,,,,,,,,,,,,,,,,,,,,,,,,,,,,,,,,,05,006,2022-09-23_11h44.54.373,test2,2022.2.4,59.754403902513616,
0,0,0,0,41,0,41,0,577.7516230680003,577.7516230680003,577.7516230680003,577.7516230680003,577.7516230680003,577.7516230680003,577.7516230680003,1,1,rojo,1,['N_A'],579.4867962310009,579.4867962310009,579.4867962310009,579.4867962310009,581.5217695010006,581.5217695010006,581.5217695010006,581.5217695010006,581.5217695010006,581.5217695010006,581.5217695010006,581.5217695010006,583.558274944,583.558274944,583.558274944,583.558274944,,,,,,,,,,,,,,,,,,,,,,,,,,,,,,,,,,,,,,,05,006,2022-09-23_11h44.54.373,test2,2022.2.4,59.754403902513616,
0,0,0,0,42,0,42,0,583.558274944,583.558274944,583.558274944,583.558274944,583.558274944,583.558274944,583.558274944,1,-1,rojo,1,['N_A'],585.1100212040001,585.1100212040001,585.1100212040001,585.1100212040001,587.1456348630009,587.1456348630009,587.1456348630009,587.1456348630009,587.1456348630009,587.1456348630009,587.1456348630009,587.1456348630009,589.1809222230004,589.1809222230004,589.1809222230004,589.1809222230004,,,,,,,,,,,,,,,,,,,,,,,,,,,,,,,,,,,,,,,05,006,2022-09-23_11h44.54.373,test2,2022.2.4,59.754403902513616,
0,0,0,0,43,0,43,0,589.1809222230004,589.1809222230004,589.1809222230004,589.1809222230004,589.1809222230004,589.1809222230004,589.1809222230004,1,-1,rojo,1,['N_A'],590.8991241940003,590.8991241940003,590.8991241940003,590.8991241940003,592.934765469,592.934765469,592.934765469,592.934765469,592.934765469,592.934765469,592.934765469,592.934765469,594.9705450950005,594.9705450950005,594.9705450950005,594.9705450950005,,,,,,,,,,,,,,,,,,,,,,,,,,,,,,,,,,,,,,,05,006,2022-09-23_11h44.54.373,test2,2022.2.4,59.754403902513616,
0,0,0,0,44,0,44,0,594.9705450950005,594.9705450950005,594.9705450950005,594.9705450950005,594.9705450950005,594.9705450950005,594.9705450950005,1,1,rojo,1,['N_A'],597.0561787460001,597.0561787460001,597.0561787460001,597.0561787460001,599.0917594970006,599.0917594970006,599.0917594970006,599.0917594970006,599.0917594970006,599.0917594970006,599.0917594970006,599.0917594970006,601.1272363810003,601.1272363810003,601.1272363810003,601.1272363810003,,,,,,,,,,,,,,,,,,,,,,,,,,,,,,,,,,,,,,,05,006,2022-09-23_11h44.54.373,test2,2022.2.4,59.754403902513616,
0,0,0,0,45,0,45,0,601.1272363810003,601.1272363810003,601.1272363810003,601.1272363810003,601.1272363810003,601.1272363810003,601.1272363810003,-1,-1,azul,1,['N_A'],603.0793964410004,603.0793964410004,603.0793964410004,603.0793964410004,605.114772119,605.114772119,605.114772119,605.114772119,605.114772119,605.114772119,605.114772119,605.114772119,607.1506001730004,607.1506001730004,607.1506001730004,607.1506001730004,,,,,,,,,,,,,,,,,,,,,,,,,,,,,,,,,,,,,,,05,006,2022-09-23_11h44.54.373,test2,2022.2.4,59.754403902513616,
0,0,0,0,46,0,46,0,607.1506001730004,607.1506001730004,607.1506001730004,607.1506001730004,607.1506001730004,607.1506001730004,607.1506001730004,-1,1,azul,1,['N_A'],609.5696564580003,609.5696564580003,609.5696564580003,609.5696564580003,611.5890844170008,611.5890844170008,611.5890844170008,611.5890844170008,611.5890844170008,611.5890844170008,611.5890844170008,611.5890844170008,613.6237133960003,613.6237133960003,613.6237133960003,613.6237133960003,,,,,,,,,,,,,,,,,,,,,,,,,,,,,,,,,,,,,,,05,006,2022-09-23_11h44.54.373,test2,2022.2.4,59.754403902513616,
0,0,0,0,47,0,47,0,613.6237133960003,613.6237133960003,613.6237133960003,613.6237133960003,613.6237133960003,613.6237133960003,613.6237133960003,1,1,rojo,1,['N_A'],615.226005689,615.226005689,615.226005689,615.226005689,617.2617823540004,617.2617823540004,617.2617823540004,617.2617823540004,617.2617823540004,617.2617823540004,617.2617823540004,617.2617823540004,619.2977047720005,619.2977047720005,619.2977047720005,619.2977047720005,,,,,,,,,,,,,,,,,,,,,,,,,,,,,,,,,,,,,,,05,006,2022-09-23_11h44.54.373,test2,2022.2.4,59.754403902513616,
0,0,0,0,48,0,48,0,619.2977047720005,619.2977047720005,619.2977047720005,619.2977047720005,619.2977047720005,619.2977047720005,619.2977047720005,1,-1,rojo,1,['N_A'],621.0162966480002,621.0162966480002,621.0162966480002,621.0162966480002,623.0515944080007,623.0515944080007,623.0515944080007,623.0515944080007,623.0515944080007,623.0515944080007,623.0515944080007,623.0515944080007,625.0871418790002,625.0871418790002,625.0871418790002,625.0871418790002,,,,,,,,,,,,,,,,,,,,,,,,,,,,,,,,,,,,,,,05,006,2022-09-23_11h44.54.373,test2,2022.2.4,59.754403902513616,
0,0,0,0,49,0,49,0,625.0871418790002,625.0871418790002,625.0871418790002,625.0871418790002,625.0871418790002,625.0871418790002,625.0871418790002,1,-1,rojo,1,['N_A'],627.3062833240001,627.3062833240001,627.3062833240001,627.3062833240001,629.3415616750008,629.3415616750008,629.3415616750008,629.3415616750008,629.3415616750008,629.3415616750008,629.3415616750008,629.3415616750008,631.3775460690003,631.3775460690003,631.3775460690003,631.3775460690003,,,,,,,,,,,,,,,,,,,,,,,,,,,,,,,,,,,,,,,05,006,2022-09-23_11h44.54.373,test2,2022.2.4,59.754403902513616,
0,0,0,0,50,0,50,0,631.3775460690003,631.3775460690003,631.3775460690003,631.3775460690003,631.3775460690003,631.3775460690003,631.3775460690003,1,-1,rojo,1,['N_A'],633.4628210220008,633.4628210220008,633.4628210220008,633.4628210220008,635.498923653,635.498923653,635.498923653,635.498923653,635.498923653,635.498923653,635.498923653,635.498923653,637.5344640440007,637.5344640440007,637.5344640440007,637.5344640440007,,,,,,,,,,,,,,,,,,,,,,,,,,,,,,,,,,,,,,,05,006,2022-09-23_11h44.54.373,test2,2022.2.4,59.754403902513616,
0,0,0,0,51,0,51,0,637.5344640440007,637.5344640440007,637.5344640440007,637.5344640440007,637.5344640440007,637.5344640440007,637.5344640440007,1,1,rojo,1,['N_A'],639.4862373170008,639.4862373170008,639.4862373170008,639.4862373170008,641.5218048770002,641.5218048770002,641.5218048770002,641.5218048770002,641.5218048770002,641.5218048770002,641.5218048770002,641.5218048770002,643.5578224530009,643.5578224530009,643.5578224530009,643.5578224530009,,,,,,,,,,,,,,,,,,,,,,,,,,,,,,,,,,,,,,,05,006,2022-09-23_11h44.54.373,test2,2022.2.4,59.754403902513616,
0,0,0,0,52,0,52,0,643.5578224530009,643.5578224530009,643.5578224530009,643.5578224530009,643.5578224530009,643.5578224530009,643.5578224530009,1,-1,rojo,1,['N_A'],645.2094275860009,645.2094275860009,645.2094275860009,645.2094275860009,647.2448395700003,647.2448395700003,647.2448395700003,647.2448395700003,647.2448395700003,647.2448395700003,647.2448395700003,647.2448395700003,649.279969487,649.279969487,649.279969487,649.279969487,,,,,,,,,,,,,,,,,,,,,,,,,,,,,,,,,,,,,,,05,006,2022-09-23_11h44.54.373,test2,2022.2.4,59.754403902513616,
0,0,0,0,53,0,53,0,649.279969487,649.279969487,649.279969487,649.279969487,649.279969487,649.279969487,649.279969487,1,-1,rojo,1,['N_A'],650.9660045240007,650.9660045240007,650.9660045240007,650.9660045240007,653.0010092000002,653.0010092000002,653.0010092000002,653.0010092000002,653.0010092000002,653.0010092000002,653.0010092000002,653.0010092000002,655.0369126310006,655.0369126310006,655.0369126310006,655.0369126310006,,,,,,,,,,,,,,,,,,,,,,,,,,,,,,,,,,,,,,,05,006,2022-09-23_11h44.54.373,test2,2022.2.4,59.754403902513616,
0,0,0,0,54,0,54,0,655.0369126310006,655.0369126310006,655.0369126310006,655.0369126310006,655.0369126310006,655.0369126310006,655.0369126310006,-1,-1,azul,0,['N_B'],657.1725741630007,657.1725741630007,657.1725741630007,657.1725741630007,659.2075486070007,659.2075486070007,659.2075486070007,659.2075486070007,659.2075486070007,659.2075486070007,659.2075486070007,659.2075486070007,661.2435929850008,661.2435929850008,661.2435929850008,661.2435929850008,,,,,,,,,,,,,,,,,,,,,,,,,,,,,,,,,,,,,,,05,006,2022-09-23_11h44.54.373,test2,2022.2.4,59.754403902513616,
0,0,0,0,55,0,55,0,661.2435929850008,661.2435929850008,661.2435929850008,661.2435929850008,661.2435929850008,661.2435929850008,661.2435929850008,1,-1,azul,1,['N_B'],663.1953752570007,663.1953752570007,663.1953752570007,663.1953752570007,665.2312880650006,665.2312880650006,665.2312880650006,665.2312880650006,665.2312880650006,665.2312880650006,665.2312880650006,665.2312880650006,667.2665420520007,667.2665420520007,667.2665420520007,667.2665420520007,,,,,,,,,,,,,,,,,,,,,,,,,,,,,,,,,,,,,,,05,006,2022-09-23_11h44.54.373,test2,2022.2.4,59.754403902513616,
0,0,0,0,56,0,56,0,667.2665420520007,667.2665420520007,667.2665420520007,667.2665420520007,667.2665420520007,667.2665420520007,667.2665420520007,-1,1,rojo,1,['N_B'],669.0854215840009,669.0854215840009,669.0854215840009,669.0854215840009,671.1218295530007,671.1218295530007,671.1218295530007,671.1218295530007,671.1218295530007,671.1218295530007,671.1218295530007,671.1218295530007,673.1565857290007,673.1565857290007,673.1565857290007,673.1565857290007,,,,,,,,,,,,,,,,,,,,,,,,,,,,,,,,,,,,,,,05,006,2022-09-23_11h44.54.373,test2,2022.2.4,59.754403902513616,
0,0,0,0,57,0,57,0,673.1565857290007,673.1565857290007,673.1565857290007,673.1565857290007,673.1565857290007,673.1565857290007,673.1565857290007,-1,-1,rojo,1,['N_B'],675.4429096130007,675.4429096130007,675.4429096130007,675.4429096130007,677.4778035700001,677.4778035700001,677.4778035700001,677.4778035700001,677.4778035700001,677.4778035700001,677.4778035700001,677.4778035700001,679.5137506360006,679.5137506360006,679.5137506360006,679.5137506360006,,,,,,,,,,,,,,,,,,,,,,,,,,,,,,,,,,,,,,,05,006,2022-09-23_11h44.54.373,test2,2022.2.4,59.754403902513616,
0,0,0,0,58,0,58,0,679.5137506360006,679.5137506360006,679.5137506360006,679.5137506360006,679.5137506360006,679.5137506360006,679.5137506360006,1,1,azul,1,['N_B'],682.0668978820004,682.0668978820004,682.0668978820004,682.0668978820004,684.0859851070009,684.0859851070009,684.0859851070009,684.0859851070009,684.0859851070009,684.0859851070009,684.0859851070009,684.0859851070009,686.1216652170006,686.1216652170006,686.1216652170006,686.1216652170006,,,,,,,,,,,,,,,,,,,,,,,,,,,,,,,,,,,,,,,05,006,2022-09-23_11h44.54.373,test2,2022.2.4,59.754403902513616,
0,0,0,0,59,0,59,0,686.1216652170006,686.1216652170006,686.1216652170006,686.1216652170006,686.1216652170006,686.1216652170006,686.1216652170006,1,1,azul,1,['N_B'],688.640201526,688.640201526,688.640201526,688.640201526,690.6593872880003,690.6593872880003,690.6593872880003,690.6593872880003,690.6593872880003,690.6593872880003,690.6593872880003,690.6593872880003,692.6950166460001,692.6950166460001,692.6950166460001,692.6950166460001,,,,,,,,,,,,,,,,,,,,,,,,,,,,,,,,,,,,,,,05,006,2022-09-23_11h44.54.373,test2,2022.2.4,59.754403902513616,
0,0,0,0,60,0,60,0,692.6950166460001,692.6950166460001,692.6950166460001,692.6950166460001,692.6950166460001,692.6950166460001,692.6950166460001,1,1,azul,1,['N_B'],694.4962988350007,694.4962988350007,694.4962988350007,694.4962988350007,696.5329096510004,696.5329096510004,696.5329096510004,696.5329096510004,696.5329096510004,696.5329096510004,696.5329096510004,696.5329096510004,698.5675969670001,698.5675969670001,698.5675969670001,698.5675969670001,,,,,,,,,,,,,,,,,,,,,,,,,,,,,,,,,,,,,,,05,006,2022-09-23_11h44.54.373,test2,2022.2.4,59.754403902513616,
0,0,0,0,61,0,61,0,698.5675969670001,698.5675969670001,698.5675969670001,698.5675969670001,698.5675969670001,698.5675969670001,698.5675969670001,1,-1,azul,0,['N_A'],700.4865621840008,700.4865621840008,700.4865621840008,700.4865621840008,702.5225278760008,702.5225278760008,702.5225278760008,702.5225278760008,702.5225278760008,702.5225278760008,702.5225278760008,702.5225278760008,704.5578452710006,704.5578452710006,704.5578452710006,704.5578452710006,,,,,,,,,,,,,,,,,,,,,,,,,,,,,,,,,,,,,,,05,006,2022-09-23_11h44.54.373,test2,2022.2.4,59.754403902513616,
0,0,0,0,62,0,62,0,704.5578452710006,704.5578452710006,704.5578452710006,704.5578452710006,704.5578452710006,704.5578452710006,704.5578452710006,1,-1,rojo,0,['N_B'],708.2458482850006,708.2458482850006,708.2458482850006,708.2458482850006,710.2807666960007,710.2807666960007,710.2807666960007,710.2807666960007,710.2807666960007,710.2807666960007,710.2807666960007,710.2807666960007,712.3170773450001,712.3170773450001,712.3170773450001,712.3170773450001,,,,,,,,,,,,,,,,,,,,,,,,,,,,,,,,,,,,,,,05,006,2022-09-23_11h44.54.373,test2,2022.2.4,59.754403902513616,
0,0,0,0,63,0,63,0,712.3170773450001,712.3170773450001,712.3170773450001,712.3170773450001,712.3170773450001,712.3170773450001,712.3170773450001,1,-1,azul,0,['N_A'],714.4019659150008,714.4019659150008,714.4019659150008,714.4019659150008,716.4378491180005,716.4378491180005,716.4378491180005,716.4378491180005,716.4378491180005,716.4378491180005,716.4378491180005,716.4378491180005,718.4735494320003,718.4735494320003,718.4735494320003,718.4735494320003,,,,,,,,,,,,,,,,,,,,,,,,,,,,,,,,,,,,,,,05,006,2022-09-23_11h44.54.373,test2,2022.2.4,59.754403902513616,
0,0,0,0,64,0,64,0,718.4735494320003,718.4735494320003,718.4735494320003,718.4735494320003,718.4735494320003,718.4735494320003,718.4735494320003,1,-1,rojo,1,['N_A'],720.1582345010002,720.1582345010002,720.1582345010002,720.1582345010002,722.1946756530006,722.1946756530006,722.1946756530006,722.1946756530006,722.1946756530006,722.1946756530006,722.1946756530006,722.1946756530006,724.2296185800005,724.2296185800005,724.2296185800005,724.2296185800005,,,,,,,,,,,,,,,,,,,,,,,,,,,,,,,,,,,,,,,05,006,2022-09-23_11h44.54.373,test2,2022.2.4,59.754403902513616,
0,0,0,0,65,0,65,0,724.2296185800005,724.2296185800005,724.2296185800005,724.2296185800005,724.2296185800005,724.2296185800005,724.2296185800005,1,-1,rojo,1,['N_A'],726.3657376720003,726.3657376720003,726.3657376720003,726.3657376720003,728.4006741580006,728.4006741580006,728.4006741580006,728.4006741580006,728.4006741580006,728.4006741580006,728.4006741580006,728.4006741580006,730.4363071050002,730.4363071050002,730.4363071050002,730.4363071050002,,,,,,,,,,,,,,,,,,,,,,,,,,,,,,,,,,,,,,,05,006,2022-09-23_11h44.54.373,test2,2022.2.4,59.754403902513616,
0,0,0,0,66,0,66,0,730.4363071050002,730.4363071050002,730.4363071050002,730.4363071050002,730.4363071050002,730.4363071050002,730.4363071050002,1,-1,rojo,1,['N_A'],731.9884485800003,731.9884485800003,731.9884485800003,731.9884485800003,734.0235244980004,734.0235244980004,734.0235244980004,734.0235244980004,734.0235244980004,734.0235244980004,734.0235244980004,734.0235244980004,736.0597721970007,736.0597721970007,736.0597721970007,736.0597721970007,,,,,,,,,,,,,,,,,,,,,,,,,,,,,,,,,,,,,,,05,006,2022-09-23_11h44.54.373,test2,2022.2.4,59.754403902513616,
0,0,0,0,67,0,67,0,736.0597721970007,736.0597721970007,736.0597721970007,736.0597721970007,736.0597721970007,736.0597721970007,736.0597721970007,1,1,rojo,1,['N_A'],737.6445896160003,737.6445896160003,737.6445896160003,737.6445896160003,739.6800983950006,739.6800983950006,739.6800983950006,739.6800983950006,739.6800983950006,739.6800983950006,739.6800983950006,739.6800983950006,741.7159467070005,741.7159467070005,741.7159467070005,741.7159467070005,,,,,,,,,,,,,,,,,,,,,,,,,,,,,,,,,,,,,,,05,006,2022-09-23_11h44.54.373,test2,2022.2.4,59.754403902513616,
0,0,0,0,68,0,68,0,741.7159467070005,741.7159467070005,741.7159467070005,741.7159467070005,741.7159467070005,741.7159467070005,741.7159467070005,-1,-1,azul,1,['N_A'],743.3337379320001,743.3337379320001,743.3337379320001,743.3337379320001,745.3705113310007,745.3705113310007,745.3705113310007,745.3705113310007,745.3705113310007,745.3705113310007,745.3705113310007,745.3705113310007,747.4053459350007,747.4053459350007,747.4053459350007,747.4053459350007,,,,,,,,,,,,,,,,,,,,,,,,,,,,,,,,,,,,,,,05,006,2022-09-23_11h44.54.373,test2,2022.2.4,59.754403902513616,
0,0,0,0,69,0,69,0,747.4053459350007,747.4053459350007,747.4053459350007,747.4053459350007,747.4053459350007,747.4053459350007,747.4053459350007,-1,-1,azul,1,['N_A'],749.1411018190001,749.1411018190001,749.1411018190001,749.1411018190001,751.1761023440004,751.1761023440004,751.1761023440004,751.1761023440004,751.1761023440004,751.1761023440004,751.1761023440004,751.1761023440004,753.2120163990003,753.2120163990003,753.2120163990003,753.2120163990003,,,,,,,,,,,,,,,,,,,,,,,,,,,,,,,,,,,,,,,05,006,2022-09-23_11h44.54.373,test2,2022.2.4,59.754403902513616,
0,0,0,0,70,0,70,0,753.2120163990003,753.2120163990003,753.2120163990003,753.2120163990003,753.2120163990003,753.2120163990003,753.2120163990003,1,-1,rojo,1,['N_A'],754.9640126270006,754.9640126270006,754.9640126270006,754.9640126270006,756.9995866990002,756.9995866990002,756.9995866990002,756.9995866990002,756.9995866990002,756.9995866990002,756.9995866990002,756.9995866990002,759.0350261220001,759.0350261220001,759.0350261220001,759.0350261220001,,,,,,,,,,,,,,,,,,,,,,,,,,,,,,,,,,,,,,,05,006,2022-09-23_11h44.54.373,test2,2022.2.4,59.754403902513616,
0,0,0,0,71,0,71,0,759.0350261220001,759.0350261220001,759.0350261220001,759.0350261220001,759.0350261220001,759.0350261220001,759.0350261220001,1,-1,rojo,1,['N_A'],760.5865926630004,760.5865926630004,760.5865926630004,760.5865926630004,762.6219863910001,762.6219863910001,762.6219863910001,762.6219863910001,762.6219863910001,762.6219863910001,762.6219863910001,762.6219863910001,764.6578038750004,764.6578038750004,764.6578038750004,764.6578038750004,,,,,,,,,,,,,,,,,,,,,,,,,,,,,,,,,,,,,,,05,006,2022-09-23_11h44.54.373,test2,2022.2.4,59.754403902513616,
0,0,0,0,72,0,72,0,764.6578038750004,764.6578038750004,764.6578038750004,764.6578038750004,764.6578038750004,764.6578038750004,764.6578038750004,-1,-1,azul,1,['N_A'],766.3598106050003,766.3598106050003,766.3598106050003,766.3598106050003,768.3947386120008,768.3947386120008,768.3947386120008,768.3947386120008,768.3947386120008,768.3947386120008,768.3947386120008,768.3947386120008,770.4308054050007,770.4308054050007,770.4308054050007,770.4308054050007,,,,,,,,,,,,,,,,,,,,,,,,,,,,,,,,,,,,,,,05,006,2022-09-23_11h44.54.373,test2,2022.2.4,59.754403902513616,
0,0,0,0,73,0,73,0,770.4308054050007,770.4308054050007,770.4308054050007,770.4308054050007,770.4308054050007,770.4308054050007,770.4308054050007,-1,-1,azul,1,['N_A'],772.5335750180002,772.5335750180002,772.5335750180002,772.5335750180002,774.5686497440001,774.5686497440001,774.5686497440001,774.5686497440001,774.5686497440001,774.5686497440001,774.5686497440001,774.5686497440001,776.6036843670008,776.6036843670008,776.6036843670008,776.6036843670008,,,,,,,,,,,,,,,,,,,,,,,,,,,,,,,,,,,,,,,05,006,2022-09-23_11h44.54.373,test2,2022.2.4,59.754403902513616,
0,0,0,0,74,0,74,0,776.6036843670008,776.6036843670008,776.6036843670008,776.6036843670008,776.6036843670008,776.6036843670008,776.6036843670008,1,-1,rojo,1,['N_A'],778.4899704530008,778.4899704530008,778.4899704530008,778.4899704530008,780.5250470910005,780.5250470910005,780.5250470910005,780.5250470910005,780.5250470910005,780.5250470910005,780.5250470910005,780.5250470910005,782.5607988200009,782.5607988200009,782.5607988200009,782.5607988200009,,,,,,,,,,,,,,,,,,,,,,,,,,,,,,,,,,,,,,,05,006,2022-09-23_11h44.54.373,test2,2022.2.4,59.754403902513616,
0,0,0,0,75,0,75,0,782.5607988200009,782.5607988200009,782.5607988200009,782.5607988200009,782.5607988200009,782.5607988200009,782.5607988200009,1,1,rojo,1,['N_A'],784.6460921010002,784.6460921010002,784.6460921010002,784.6460921010002,786.6820495460006,786.6820495460006,786.6820495460006,786.6820495460006,786.6820495460006,786.6820495460006,786.6820495460006,786.6820495460006,788.7176906160003,788.7176906160003,788.7176906160003,788.7176906160003,,,,,,,,,,,,,,,,,,,,,,,,,,,,,,,,,,,,,,,05,006,2022-09-23_11h44.54.373,test2,2022.2.4,59.754403902513616,
0,0,0,0,76,0,76,0,788.7176906160003,788.7176906160003,788.7176906160003,788.7176906160003,788.7176906160003,788.7176906160003,788.7176906160003,1,-1,rojo,1,['N_A'],790.402628797,790.402628797,790.402628797,790.402628797,792.4388500360001,792.4388500360001,792.4388500360001,792.4388500360001,792.4388500360001,792.4388500360001,792.4388500360001,792.4388500360001,794.4738362780008,794.4738362780008,794.4738362780008,794.4738362780008,,,,,,,,,,,,,,,,,,,,,,,,,,,,,,,,,,,,,,,05,006,2022-09-23_11h44.54.373,test2,2022.2.4,59.754403902513616,
0,0,0,0,77,0,77,0,794.4738362780008,794.4738362780008,794.4738362780008,794.4738362780008,794.4738362780008,794.4738362780008,794.4738362780008,-1,-1,azul,1,['N_A'],796.1755408660001,796.1755408660001,796.1755408660001,796.1755408660001,798.2464663640003,798.2464663640003,798.2464663640003,798.2464663640003,798.2464663640003,798.2464663640003,798.2464663640003,798.2464663640003,800.2818155780005,800.2818155780005,800.2818155780005,800.2818155780005,,,,,,,,,,,,,,,,,,,,,,,,,,,,,,,,,,,,,,,05,006,2022-09-23_11h44.54.373,test2,2022.2.4,59.754403902513616,
0,0,0,0,78,0,78,0,800.2818155780005,800.2818155780005,800.2818155780005,800.2818155780005,800.2818155780005,800.2818155780005,800.2818155780005,1,-1,rojo,1,['N_A'],804.367729648,804.367729648,804.367729648,804.367729648,806.4037409950006,806.4037409950006,806.4037409950006,806.4037409950006,806.4037409950006,806.4037409950006,806.4037409950006,806.4037409950006,808.4395149020002,808.4395149020002,808.4395149020002,808.4395149020002,,,,,,,,,,,,,,,,,,,,,,,,,,,,,,,,,,,,,,,05,006,2022-09-23_11h44.54.373,test2,2022.2.4,59.754403902513616,
0,0,0,0,79,0,79,0,808.4395149020002,808.4395149020002,808.4395149020002,808.4395149020002,808.4395149020002,808.4395149020002,808.4395149020002,-1,-1,azul,1,['N_A'],810.2583618240005,810.2583618240005,810.2583618240005,810.2583618240005,812.2928326660003,812.2928326660003,812.2928326660003,812.2928326660003,812.2928326660003,812.2928326660003,812.2928326660003,812.2928326660003,814.329605035,814.329605035,814.329605035,814.329605035,,,,,,,,,,,,,,,,,,,,,,,,,,,,,,,,,,,,,,,05,006,2022-09-23_11h44.54.373,test2,2022.2.4,59.754403902513616,
0,0,0,0,80,0,80,0,814.329605035,814.329605035,814.329605035,814.329605035,814.329605035,814.329605035,814.329605035,-1,-1,azul,1,['N_A'],816.6818495690004,816.6818495690004,816.6818495690004,816.6818495690004,818.7175789110006,818.7175789110006,818.7175789110006,818.7175789110006,818.7175789110006,818.7175789110006,818.7175789110006,818.7175789110006,820.7530673360006,820.7530673360006,820.7530673360006,820.7530673360006,,,,,,,,,,,,,,,,,,,,,,,,,,,,,,,,,,,,,,,05,006,2022-09-23_11h44.54.373,test2,2022.2.4,59.754403902513616,
0,0,0,0,81,0,81,0,820.7530673360006,820.7530673360006,820.7530673360006,820.7530673360006,820.7530673360006,820.7530673360006,820.7530673360006,1,-1,rojo,1,['N_A'],822.2714819580005,822.2714819580005,822.2714819580005,822.2714819580005,824.3072787810006,824.3072787810006,824.3072787810006,824.3072787810006,824.3072787810006,824.3072787810006,824.3072787810006,824.3072787810006,826.3426594820003,826.3426594820003,826.3426594820003,826.3426594820003,,,,,,,,,,,,,,,,,,,,,,,,,,,,,,,,,,,,,,,05,006,2022-09-23_11h44.54.373,test2,2022.2.4,59.754403902513616,
0,0,0,0,82,0,82,0,826.3426594820003,826.3426594820003,826.3426594820003,826.3426594820003,826.3426594820003,826.3426594820003,826.3426594820003,-1,1,azul,1,['N_A'],827.9447101400001,827.9447101400001,827.9447101400001,827.9447101400001,829.9793896710007,829.9793896710007,829.9793896710007,829.9793896710007,829.9793896710007,829.9793896710007,829.9793896710007,829.9793896710007,832.0149786500006,832.0149786500006,832.0149786500006,832.0149786500006,,,,,,,,,,,,,,,,,,,,,,,,,,,,,,,,,,,,,,,05,006,2022-09-23_11h44.54.373,test2,2022.2.4,59.754403902513616,
0,0,0,0,83,0,83,0,832.0149786500006,832.0149786500006,832.0149786500006,832.0149786500006,832.0149786500006,832.0149786500006,832.0149786500006,1,-1,rojo,1,['N_A'],834.5007754430007,834.5007754430007,834.5007754430007,834.5007754430007,836.5367096230002,836.5367096230002,836.5367096230002,836.5367096230002,836.5367096230002,836.5367096230002,836.5367096230002,836.5367096230002,838.5724990540002,838.5724990540002,838.5724990540002,838.5724990540002,,,,,,,,,,,,,,,,,,,,,,,,,,,,,,,,,,,,,,,05,006,2022-09-23_11h44.54.373,test2,2022.2.4,59.754403902513616,
0,0,0,0,84,0,84,0,838.5724990540002,838.5724990540002,838.5724990540002,838.5724990540002,838.5724990540002,838.5724990540002,838.5724990540002,-1,-1,azul,1,['N_A'],840.2914533400008,840.2914533400008,840.2914533400008,840.2914533400008,842.3265947250002,842.3265947250002,842.3265947250002,842.3265947250002,842.3265947250002,842.3265947250002,842.3265947250002,842.3265947250002,844.3616788620002,844.3616788620002,844.3616788620002,844.3616788620002,,,,,,,,,,,,,,,,,,,,,,,,,,,,,,,,,,,,,,,05,006,2022-09-23_11h44.54.373,test2,2022.2.4,59.754403902513616,
0,0,0,0,85,0,85,0,844.3616788620002,844.3616788620002,844.3616788620002,844.3616788620002,844.3616788620002,844.3616788620002,844.3616788620002,-1,1,azul,1,['N_A'],846.0137453780007,846.0137453780007,846.0137453780007,846.0137453780007,848.0327661040001,848.0327661040001,848.0327661040001,848.0327661040001,848.0327661040001,848.0327661040001,848.0327661040001,848.0327661040001,850.0689810950007,850.0689810950007,850.0689810950007,850.0689810950007,,,,,,,,,,,,,,,,,,,,,,,,,,,,,,,,,,,,,,,05,006,2022-09-23_11h44.54.373,test2,2022.2.4,59.754403902513616,
0,0,0,0,86,0,86,0,850.0689810950007,850.0689810950007,850.0689810950007,850.0689810950007,850.0689810950007,850.0689810950007,850.0689810950007,1,1,rojo,1,['N_A'],852.3877622140008,852.3877622140008,852.3877622140008,852.3877622140008,854.4070647190001,854.4070647190001,854.4070647190001,854.4070647190001,854.4070647190001,854.4070647190001,854.4070647190001,854.4070647190001,856.4422249190002,856.4422249190002,856.4422249190002,856.4422249190002,,,,,,,,,,,,,,,,,,,,,,,,,,,,,,,,,,,,,,,05,006,2022-09-23_11h44.54.373,test2,2022.2.4,59.754403902513616,
0,0,0,0,87,0,87,0,856.4422249190002,856.4422249190002,856.4422249190002,856.4422249190002,856.4422249190002,856.4422249190002,856.4422249190002,1,1,rojo,1,['N_A'],858.0272939880006,858.0272939880006,858.0272939880006,858.0272939880006,860.0448640540008,860.0448640540008,860.0448640540008,860.0448640540008,860.0448640540008,860.0448640540008,860.0448640540008,860.0448640540008,862.082237437,862.082237437,862.082237437,862.082237437,,,,,,,,,,,,,,,,,,,,,,,,,,,,,,,,,,,,,,,05,006,2022-09-23_11h44.54.373,test2,2022.2.4,59.754403902513616,
0,0,0,0,88,0,88,0,862.082237437,862.082237437,862.082237437,862.082237437,862.082237437,862.082237437,862.082237437,1,1,rojo,1,['N_A'],864.9680276820009,864.9680276820009,864.9680276820009,864.9680276820009,867.0037726230003,867.0037726230003,867.0037726230003,867.0037726230003,867.0037726230003,867.0037726230003,867.0037726230003,867.0037726230003,869.0398684540005,869.0398684540005,869.0398684540005,869.0398684540005,,,,,,,,,,,,,,,,,,,,,,,,,,,,,,,,,,,,,,,05,006,2022-09-23_11h44.54.373,test2,2022.2.4,59.754403902513616,
0,0,0,0,89,0,89,0,869.0398684540005,869.0398684540005,869.0398684540005,869.0398684540005,869.0398684540005,869.0398684540005,869.0398684540005,1,-1,rojo,1,['N_A'],871.826292228,871.826292228,871.826292228,871.826292228,873.861227978,873.861227978,873.861227978,873.861227978,873.861227978,873.861227978,873.861227978,873.861227978,875.8972878690001,875.8972878690001,875.8972878690001,875.8972878690001,,,,,,,,,,,,,,,,,,,,,,,,,,,,,,,,,,,,,,,05,006,2022-09-23_11h44.54.373,test2,2022.2.4,59.754403902513616,
0,0,0,0,90,0,90,0,875.8972878690001,875.8972878690001,875.8972878690001,875.8972878690001,875.8972878690001,875.8972878690001,875.8972878690001,-1,-1,azul,1,['N_A'],878.2163062040008,878.2163062040008,878.2163062040008,878.2163062040008,880.2518839070008,880.2518839070008,880.2518839070008,880.2518839070008,880.2518839070008,880.2518839070008,880.2518839070008,880.2518839070008,882.2877140330002,882.2877140330002,882.2877140330002,882.2877140330002,,,,,,,,,,,,,,,,,,,,,,,,,,,,,,,,,,,,,,,05,006,2022-09-23_11h44.54.373,test2,2022.2.4,59.754403902513616,
0,0,0,0,91,0,91,0,882.2877140330002,882.2877140330002,882.2877140330002,882.2877140330002,882.2877140330002,882.2877140330002,882.2877140330002,-1,-1,azul,1,['N_A'],884.0730900790004,884.0730900790004,884.0730900790004,884.0730900790004,886.1084954760008,886.1084954760008,886.1084954760008,886.1084954760008,886.1084954760008,886.1084954760008,886.1084954760008,886.1084954760008,888.1441879070007,888.1441879070007,888.1441879070007,888.1441879070007,,,,,,,,,,,,,,,,,,,,,,,,,,,,,,,,,,,,,,,05,006,2022-09-23_11h44.54.373,test2,2022.2.4,59.754403902513616,
0,0,0,0,92,0,92,0,888.1441879070007,888.1441879070007,888.1441879070007,888.1441879070007,888.1441879070007,888.1441879070007,888.1441879070007,1,-1,rojo,1,['N_A'],890.0794714230005,890.0794714230005,890.0794714230005,890.0794714230005,892.1151193940004,892.1151193940004,892.1151193940004,892.1151193940004,892.1151193940004,892.1151193940004,892.1151193940004,892.1151193940004,894.1501607130003,894.1501607130003,894.1501607130003,894.1501607130003,,,,,,,,,,,,,,,,,,,,,,,,,,,,,,,,,,,,,,,05,006,2022-09-23_11h44.54.373,test2,2022.2.4,59.754403902513616,
0,0,0,0,93,0,93,0,894.1501607130003,894.1501607130003,894.1501607130003,894.1501607130003,894.1501607130003,894.1501607130003,894.1501607130003,1,-1,rojo,1,['N_A'],895.9360707550004,895.9360707550004,895.9360707550004,895.9360707550004,897.971589922,897.971589922,897.971589922,897.971589922,897.971589922,897.971589922,897.971589922,897.971589922,900.0070288860006,900.0070288860006,900.0070288860006,900.0070288860006,,,,,,,,,,,,,,,,,,,,,,,,,,,,,,,,,,,,,,,05,006,2022-09-23_11h44.54.373,test2,2022.2.4,59.754403902513616,
0,0,0,0,94,0,94,0,900.0070288860006,900.0070288860006,900.0070288860006,900.0070288860006,900.0070288860006,900.0070288860006,900.0070288860006,1,1,rojo,1,['N_A'],903.1442146380004,903.1442146380004,903.1442146380004,903.1442146380004,905.1794831430007,905.1794831430007,905.1794831430007,905.1794831430007,905.1794831430007,905.1794831430007,905.1794831430007,905.1794831430007,907.214791116,907.214791116,907.214791116,907.214791116,,,,,,,,,,,,,,,,,,,,,,,,,,,,,,,,,,,,,,,05,006,2022-09-23_11h44.54.373,test2,2022.2.4,59.754403902513616,
0,0,0,0,95,0,95,0,907.214791116,907.214791116,907.214791116,907.214791116,907.214791116,907.214791116,907.214791116,-1,-1,azul,1,['N_A'],908.9675487870009,908.9675487870009,908.9675487870009,908.9675487870009,911.0025768190008,911.0025768190008,911.0025768190008,911.0025768190008,911.0025768190008,911.0025768190008,911.0025768190008,911.0025768190008,913.0377142410007,913.0377142410007,913.0377142410007,913.0377142410007,,,,,,,,,,,,,,,,,,,,,,,,,,,,,,,,,,,,,,,05,006,2022-09-23_11h44.54.373,test2,2022.2.4,59.754403902513616,
0,0,0,0,96,0,96,0,913.0377142410007,913.0377142410007,913.0377142410007,913.0377142410007,913.0377142410007,913.0377142410007,913.0377142410007,1,-1,rojo,1,['N_A'],914.6227880120005,914.6227880120005,914.6227880120005,914.6227880120005,916.658777695,916.658777695,916.658777695,916.658777695,916.658777695,916.658777695,916.658777695,916.658777695,918.6936814220007,918.6936814220007,918.6936814220007,918.6936814220007,,,,,,,,,,,,,,,,,,,,,,,,,,,,,,,,,,,,,,,05,006,2022-09-23_11h44.54.373,test2,2022.2.4,59.754403902513616,
0,0,0,0,97,0,97,0,918.6936814220007,918.6936814220007,918.6936814220007,918.6936814220007,918.6936814220007,918.6936814220007,918.6936814220007,-1,1,azul,1,['N_A'],920.3798718960006,920.3798718960006,920.3798718960006,920.3798718960006,922.4147444100008,922.4147444100008,922.4147444100008,922.4147444100008,922.4147444100008,922.4147444100008,922.4147444100008,922.4147444100008,924.4510379890007,924.4510379890007,924.4510379890007,924.4510379890007,,,,,,,,,,,,,,,,,,,,,,,,,,,,,,,,,,,,,,,05,006,2022-09-23_11h44.54.373,test2,2022.2.4,59.754403902513616,
0,0,0,0,98,0,98,0,924.4510379890007,924.4510379890007,924.4510379890007,924.4510379890007,924.4510379890007,924.4510379890007,924.4510379890007,1,-1,rojo,1,['N_A'],926.1362577980008,926.1362577980008,926.1362577980008,926.1362577980008,928.1721799000006,928.1721799000006,928.1721799000006,928.1721799000006,928.1721799000006,928.1721799000006,928.1721799000006,928.1721799000006,930.2069789530005,930.2069789530005,930.2069789530005,930.2069789530005,,,,,,,,,,,,,,,,,,,,,,,,,,,,,,,,,,,,,,,05,006,2022-09-23_11h44.54.373,test2,2022.2.4,59.754403902513616,
0,0,0,0,99,0,99,0,930.2069789530005,930.2069789530005,930.2069789530005,930.2069789530005,930.2069789530005,930.2069789530005,930.2069789530005,1,-1,rojo,1,['N_A'],931.9594863400007,931.9594863400007,931.9594863400007,931.9594863400007,933.9943290710007,933.9943290710007,933.9943290710007,933.9943290710007,933.9943290710007,933.9943290710007,933.9943290710007,933.9943290710007,936.0301068380004,936.0301068380004,936.0301068380004,936.0301068380004,,,,,,,,,,,,,,,,,,,,,,,,,,,,,,,,,,,,,,,05,006,2022-09-23_11h44.54.373,test2,2022.2.4,59.754403902513616,
0,0,0,0,100,0,100,0,936.0301068380004,936.0301068380004,936.0301068380004,936.0301068380004,936.0301068380004,936.0301068380004,936.0301068380004,1,1,rojo,1,['N_A'],939.6845188330008,939.6845188330008,939.6845188330008,939.6845188330008,941.7024104100001,941.7024104100001,941.7024104100001,941.7024104100001,941.7024104100001,941.7024104100001,941.7024104100001,941.7024104100001,943.7387163250005,943.7387163250005,943.7387163250005,943.7387163250005,,,,,,,,,,,,,,,,,,,,,,,,,,,,,,,,,,,,,,,05,006,2022-09-23_11h44.54.373,test2,2022.2.4,59.754403902513616,
0,0,0,0,101,0,101,0,943.7387163250005,943.7387163250005,943.7387163250005,943.7387163250005,943.7387163250005,943.7387163250005,943.7387163250005,1,1,rojo,1,['N_A'],947.1257649860008,947.1257649860008,947.1257649860008,947.1257649860008,949.1445623490008,949.1445623490008,949.1445623490008,949.1445623490008,949.1445623490008,949.1445623490008,949.1445623490008,949.1445623490008,951.1795017970007,951.1795017970007,951.1795017970007,951.1795017970007,,,,,,,,,,,,,,,,,,,,,,,,,,,,,,,,,,,,,,,05,006,2022-09-23_11h44.54.373,test2,2022.2.4,59.754403902513616,
0,0,0,0,102,0,102,0,951.1795017970007,951.1795017970007,951.1795017970007,951.1795017970007,951.1795017970007,951.1795017970007,951.1795017970007,1,1,rojo,1,['N_A'],953.4831190570003,953.4831190570003,953.4831190570003,953.4831190570003,955.5178488130005,955.5178488130005,955.5178488130005,955.5178488130005,955.5178488130005,955.5178488130005,955.5178488130005,955.5178488130005,957.5534358940004,957.5534358940004,957.5534358940004,957.5534358940004,,,,,,,,,,,,,,,,,,,,,,,,,,,,,,,,,,,,,,,05,006,2022-09-23_11h44.54.373,test2,2022.2.4,59.754403902513616,
0,0,0,0,103,0,103,0,957.5534358940004,957.5534358940004,957.5534358940004,957.5534358940004,957.5534358940004,957.5534358940004,957.5534358940004,1,-1,rojo,1,['N_A'],959.5390075390005,959.5390075390005,959.5390075390005,959.5390075390005,961.5743798780004,961.5743798780004,961.5743798780004,961.5743798780004,961.5743798780004,961.5743798780004,961.5743798780004,961.5743798780004,963.6107204900009,963.6107204900009,963.6107204900009,963.6107204900009,,,,,,,,,,,,,,,,,,,,,,,,,,,,,,,,,,,,,,,05,006,2022-09-23_11h44.54.373,test2,2022.2.4,59.754403902513616,
0,0,0,0,104,0,104,0,963.6107204900009,963.6107204900009,963.6107204900009,963.6107204900009,963.6107204900009,963.6107204900009,963.6107204900009,1,-1,rojo,1,['N_A'],965.0950842380007,965.0950842380007,965.0950842380007,965.0950842380007,967.1313333410008,967.1313333410008,967.1313333410008,967.1313333410008,967.1313333410008,967.1313333410008,967.1313333410008,967.1313333410008,969.1667909430007,969.1667909430007,969.1667909430007,969.1667909430007,,,,,,,,,,,,,,,,,,,,,,,,,,,,,,,,,,,,,,,05,006,2022-09-23_11h44.54.373,test2,2022.2.4,59.754403902513616,
0,0,0,0,105,0,105,0,969.1667909430007,969.1667909430007,969.1667909430007,969.1667909430007,969.1667909430007,969.1667909430007,969.1667909430007,-1,1,azul,1,['N_A'],970.852070676,970.852070676,970.852070676,970.852070676,972.8869670380009,972.8869670380009,972.8869670380009,972.8869670380009,972.8869670380009,972.8869670380009,972.8869670380009,972.8869670380009,974.922919568,974.922919568,974.922919568,974.922919568,,,,,,,,,,,,,,,,,,,,,,,,,,,,,,,,,,,,,,,05,006,2022-09-23_11h44.54.373,test2,2022.2.4,59.754403902513616,
0,0,0,0,106,0,106,0,974.922919568,974.922919568,974.922919568,974.922919568,974.922919568,974.922919568,974.922919568,-1,-1,azul,1,['N_A'],976.8088300730005,976.8088300730005,976.8088300730005,976.8088300730005,978.8439697260001,978.8439697260001,978.8439697260001,978.8439697260001,978.8439697260001,978.8439697260001,978.8439697260001,978.8439697260001,980.8795643040003,980.8795643040003,980.8795643040003,980.8795643040003,,,,,,,,,,,,,,,,,,,,,,,,,,,,,,,,,,,,,,,05,006,2022-09-23_11h44.54.373,test2,2022.2.4,59.754403902513616,
0,0,0,0,107,0,107,0,980.8795643040003,980.8795643040003,980.8795643040003,980.8795643040003,980.8795643040003,980.8795643040003,980.8795643040003,1,-1,rojo,1,['N_A'],982.5650597720005,982.5650597720005,982.5650597720005,982.5650597720005,984.6005457260007,984.6005457260007,984.6005457260007,984.6005457260007,984.6005457260007,984.6005457260007,984.6005457260007,984.6005457260007,986.6357588730007,986.6357588730007,986.6357588730007,986.6357588730007,,,,,,,,,,,,,,,,,,,,,,,,,,,,,,,,,,,,,,,05,006,2022-09-23_11h44.54.373,test2,2022.2.4,59.754403902513616,
0,0,0,0,108,0,108,0,986.6357588730007,986.6357588730007,986.6357588730007,986.6357588730007,986.6357588730007,986.6357588730007,986.6357588730007,1,-1,rojo,1,['N_A'],988.8883924970005,988.8883924970005,988.8883924970005,988.8883924970005,990.9240623170008,990.9240623170008,990.9240623170008,990.9240623170008,990.9240623170008,990.9240623170008,990.9240623170008,990.9240623170008,992.9590804050003,992.9590804050003,992.9590804050003,992.9590804050003,,,,,,,,,,,,,,,,,,,,,,,,,,,,,,,,,,,,,,,05,006,2022-09-23_11h44.54.373,test2,2022.2.4,59.754403902513616,
0,0,0,0,109,0,109,0,992.9590804050003,992.9590804050003,992.9590804050003,992.9590804050003,992.9590804050003,992.9590804050003,992.9590804050003,1,-1,rojo,1,['N_A'],996.4296734380005,996.4296734380005,996.4296734380005,996.4296734380005,998.4654540890006,998.4654540890006,998.4654540890006,998.4654540890006,998.4654540890006,998.4654540890006,998.4654540890006,998.4654540890006,1000.5007999540003,1000.5007999540003,1000.5007999540003,1000.5007999540003,,,,,,,,,,,,,,,,,,,,,,,,,,,,,,,,,,,,,,,05,006,2022-09-23_11h44.54.373,test2,2022.2.4,59.754403902513616,
0,0,0,0,110,0,110,0,1000.5007999540003,1000.5007999540003,1000.5007999540003,1000.5007999540003,1000.5007999540003,1000.5007999540003,1000.5007999540003,1,-1,rojo,1,['N_A'],1002.8538718620002,1002.8538718620002,1002.8538718620002,1002.8538718620002,1004.8896970160004,1004.8896970160004,1004.8896970160004,1004.8896970160004,1004.8896970160004,1004.8896970160004,1004.8896970160004,1004.8896970160004,1006.9250293410005,1006.9250293410005,1006.9250293410005,1006.9250293410005,,,,,,,,,,,,,,,,,,,,,,,,,,,,,,,,,,,,,,,05,006,2022-09-23_11h44.54.373,test2,2022.2.4,59.754403902513616,
0,0,0,0,111,0,111,0,1006.9250293410005,1006.9250293410005,1006.9250293410005,1006.9250293410005,1006.9250293410005,1006.9250293410005,1006.9250293410005,1,1,rojo,1,['N_A'],1008.9769782150006,1008.9769782150006,1008.9769782150006,1008.9769782150006,1011.0127207960004,1011.0127207960004,1011.0127207960004,1011.0127207960004,1011.0127207960004,1011.0127207960004,1011.0127207960004,1011.0127207960004,1013.0482755000003,1013.0482755000003,1013.0482755000003,1013.0482755000003,,,,,,,,,,,,,,,,,,,,,,,,,,,,,,,,,,,,,,,05,006,2022-09-23_11h44.54.373,test2,2022.2.4,59.754403902513616,
0,0,0,0,112,0,112,0,1013.0482755000003,1013.0482755000003,1013.0482755000003,1013.0482755000003,1013.0482755000003,1013.0482755000003,1013.0482755000003,1,-1,rojo,1,['N_A'],1014.9009395860003,1014.9009395860003,1014.9009395860003,1014.9009395860003,1016.9362342510003,1016.9362342510003,1016.9362342510003,1016.9362342510003,1016.9362342510003,1016.9362342510003,1016.9362342510003,1016.9362342510003,1018.9711149780005,1018.9711149780005,1018.9711149780005,1018.9711149780005,,,,,,,,,,,,,,,,,,,,,,,,,,,,,,,,,,,,,,,05,006,2022-09-23_11h44.54.373,test2,2022.2.4,59.754403902513616,
0,0,0,0,113,0,113,0,1018.9711149780005,1018.9711149780005,1018.9711149780005,1018.9711149780005,1018.9711149780005,1018.9711149780005,1018.9711149780005,1,-1,rojo,1,['N_A'],1020.5570145620004,1020.5570145620004,1020.5570145620004,1020.5570145620004,1022.5923179250003,1022.5923179250003,1022.5923179250003,1022.5923179250003,1022.5923179250003,1022.5923179250003,1022.5923179250003,1022.5923179250003,1024.6278975900004,1024.6278975900004,1024.6278975900004,1024.6278975900004,,,,,,,,,,,,,,,,,,,,,,,,,,,,,,,,,,,,,,,05,006,2022-09-23_11h44.54.373,test2,2022.2.4,59.754403902513616,
0,0,0,0,114,0,114,0,1024.6278975900004,1024.6278975900004,1024.6278975900004,1024.6278975900004,1024.6278975900004,1024.6278975900004,1024.6278975900004,1,1,rojo,1,['N_A'],1026.3802001010008,1026.3802001010008,1026.3802001010008,1026.3802001010008,1028.399100517,1028.399100517,1028.399100517,1028.399100517,1028.399100517,1028.399100517,1028.399100517,1028.399100517,1030.4345126590006,1030.4345126590006,1030.4345126590006,1030.4345126590006,,,,,,,,,,,,,,,,,,,,,,,,,,,,,,,,,,,,,,,05,006,2022-09-23_11h44.54.373,test2,2022.2.4,59.754403902513616,
0,0,0,0,115,0,115,0,1030.4345126590006,1030.4345126590006,1030.4345126590006,1030.4345126590006,1030.4345126590006,1030.4345126590006,1030.4345126590006,1,1,rojo,1,['N_A'],1032.5532164230008,1032.5532164230008,1032.5532164230008,1032.5532164230008,1034.588699981,1034.588699981,1034.588699981,1034.588699981,1034.588699981,1034.588699981,1034.588699981,1034.588699981,1036.6245636790009,1036.6245636790009,1036.6245636790009,1036.6245636790009,,,,,,,,,,,,,,,,,,,,,,,,,,,,,,,,,,,,,,,05,006,2022-09-23_11h44.54.373,test2,2022.2.4,59.754403902513616,
0,0,0,0,116,0,116,0,1036.6245636790009,1036.6245636790009,1036.6245636790009,1036.6245636790009,1036.6245636790009,1036.6245636790009,1036.6245636790009,1,-1,rojo,1,['N_A'],1039.0107961620006,1039.0107961620006,1039.0107961620006,1039.0107961620006,1041.045766012,1041.045766012,1041.045766012,1041.045766012,1041.045766012,1041.045766012,1041.045766012,1041.045766012,1043.0816025210006,1043.0816025210006,1043.0816025210006,1043.0816025210006,,,,,,,,,,,,,,,,,,,,,,,,,,,,,,,,,,,,,,,05,006,2022-09-23_11h44.54.373,test2,2022.2.4,59.754403902513616,
0,0,0,0,117,0,117,0,1043.0816025210006,1043.0816025210006,1043.0816025210006,1043.0816025210006,1043.0816025210006,1043.0816025210006,1043.0816025210006,1,-1,rojo,1,['N_A'],1045.0499355520005,1045.0499355520005,1045.0499355520005,1045.0499355520005,1047.0855223760009,1047.0855223760009,1047.0855223760009,1047.0855223760009,1047.0855223760009,1047.0855223760009,1047.0855223760009,1047.0855223760009,1049.121497737,1049.121497737,1049.121497737,1049.121497737,,,,,,,,,,,,,,,,,,,,,,,,,,,,,,,,,,,,,,,05,006,2022-09-23_11h44.54.373,test2,2022.2.4,59.754403902513616,
0,0,0,0,118,0,118,0,1049.121497737,1049.121497737,1049.121497737,1049.121497737,1049.121497737,1049.121497737,1049.121497737,-1,1,azul,1,['N_A'],1051.5911796150003,1051.5911796150003,1051.5911796150003,1051.5911796150003,1053.6094386280001,1053.6094386280001,1053.6094386280001,1053.6094386280001,1053.6094386280001,1053.6094386280001,1053.6094386280001,1053.6094386280001,1055.645463584,1055.645463584,1055.645463584,1055.645463584,,,,,,,,,,,,,,,,,,,,,,,,,,,,,,,,,,,,,,,05,006,2022-09-23_11h44.54.373,test2,2022.2.4,59.754403902513616,
0,0,0,0,119,0,119,0,1055.645463584,1055.645463584,1055.645463584,1055.645463584,1055.645463584,1055.645463584,1055.645463584,-1,1,azul,1,['N_A'],1058.6649238530008,1058.6649238530008,1058.6649238530008,1058.6649238530008,1060.701024553,1060.701024553,1060.701024553,1060.701024553,1060.701024553,1060.701024553,1060.701024553,1060.701024553,1062.7368484690005,1062.7368484690005,1062.7368484690005,1062.7368484690005,,,,,,,,,,,,,,,,,,,,,,,,,,,,,,,,,,,,,,,05,006,2022-09-23_11h44.54.373,test2,2022.2.4,59.754403902513616,
0,0,0,0,120,0,120,0,1062.7368484690005,1062.7368484690005,1062.7368484690005,1062.7368484690005,1062.7368484690005,1062.7368484690005,1062.7368484690005,1,-1,rojo,1,['N_A'],1064.4213892910002,1064.4213892910002,1064.4213892910002,1064.4213892910002,1066.4575336410007,1066.4575336410007,1066.4575336410007,1066.4575336410007,1066.4575336410007,1066.4575336410007,1066.4575336410007,1066.4575336410007,1068.4930030680007,1068.4930030680007,1068.4930030680007,1068.4930030680007,,,,,,,,,,,,,,,,,,,,,,,,,,,,,,,,,,,,,,,05,006,2022-09-23_11h44.54.373,test2,2022.2.4,59.754403902513616,
0,0,0,0,121,0,121,0,1068.4930030680007,1068.4930030680007,1068.4930030680007,1068.4930030680007,1068.4930030680007,1068.4930030680007,1068.4930030680007,-1,-1,azul,1,['N_A'],1070.7122631830007,1070.7122631830007,1070.7122631830007,1070.7122631830007,1072.7475147570003,1072.7475147570003,1072.7475147570003,1072.7475147570003,1072.7475147570003,1072.7475147570003,1072.7475147570003,1072.7475147570003,1074.783307486,1074.783307486,1074.783307486,1074.783307486,,,,,,,,,,,,,,,,,,,,,,,,,,,,,,,,,,,,,,,05,006,2022-09-23_11h44.54.373,test2,2022.2.4,59.754403902513616,
0,0,0,0,122,0,122,0,1074.783307486,1074.783307486,1074.783307486,1074.783307486,1074.783307486,1074.783307486,1074.783307486,1,-1,rojo,1,['N_A'],1076.4348224980004,1076.4348224980004,1076.4348224980004,1076.4348224980004,1078.4708043630008,1078.4708043630008,1078.4708043630008,1078.4708043630008,1078.4708043630008,1078.4708043630008,1078.4708043630008,1078.4708043630008,1080.506070464,1080.506070464,1080.506070464,1080.506070464,,,,,,,,,,,,,,,,,,,,,,,,,,,,,,,,,,,,,,,05,006,2022-09-23_11h44.54.373,test2,2022.2.4,59.754403902513616,
0,0,0,0,123,0,123,0,1080.506070464,1080.506070464,1080.506070464,1080.506070464,1080.506070464,1080.506070464,1080.506070464,1,-1,rojo,1,['N_A'],1083.0419166220008,1083.0419166220008,1083.0419166220008,1083.0419166220008,1085.077731751,1085.077731751,1085.077731751,1085.077731751,1085.077731751,1085.077731751,1085.077731751,1085.077731751,1087.1133256150006,1087.1133256150006,1087.1133256150006,1087.1133256150006,,,,,,,,,,,,,,,,,,,,,,,,,,,,,,,,,,,,,,,05,006,2022-09-23_11h44.54.373,test2,2022.2.4,59.754403902513616,
0,0,0,0,124,0,124,0,1087.1133256150006,1087.1133256150006,1087.1133256150006,1087.1133256150006,1087.1133256150006,1087.1133256150006,1087.1133256150006,1,-1,rojo,1,['N_A'],1088.698656607,1088.698656607,1088.698656607,1088.698656607,1090.7343129600004,1090.7343129600004,1090.7343129600004,1090.7343129600004,1090.7343129600004,1090.7343129600004,1090.7343129600004,1090.7343129600004,1092.7701919680003,1092.7701919680003,1092.7701919680003,1092.7701919680003,,,,,,,,,,,,,,,,,,,,,,,,,,,,,,,,,,,,,,,05,006,2022-09-23_11h44.54.373,test2,2022.2.4,59.754403902513616,
0,0,0,0,125,0,125,0,1092.7701919680003,1092.7701919680003,1092.7701919680003,1092.7701919680003,1092.7701919680003,1092.7701919680003,1092.7701919680003,1,1,rojo,1,['N_A'],1096.056886546,1096.056886546,1096.056886546,1096.056886546,1098.0926051000006,1098.0926051000006,1098.0926051000006,1098.0926051000006,1098.0926051000006,1098.0926051000006,1098.0926051000006,1098.0926051000006,1100.1280907680002,1100.1280907680002,1100.1280907680002,1100.1280907680002,,,,,,,,,,,,,,,,,,,,,,,,,,,,,,,,,,,,,,,05,006,2022-09-23_11h44.54.373,test2,2022.2.4,59.754403902513616,
0,0,0,0,126,0,126,0,1100.1280907680002,1100.1280907680002,1100.1280907680002,1100.1280907680002,1100.1280907680002,1100.1280907680002,1100.1280907680002,1,-1,rojo,1,['N_A'],1101.8469083980008,1101.8469083980008,1101.8469083980008,1101.8469083980008,1103.8815467740005,1103.8815467740005,1103.8815467740005,1103.8815467740005,1103.8815467740005,1103.8815467740005,1103.8815467740005,1103.8815467740005,1105.917380537,1105.917380537,1105.917380537,1105.917380537,,,,,,,,,,,,,,,,,,,,,,,,,,,,,,,,,,,,,,,05,006,2022-09-23_11h44.54.373,test2,2022.2.4,59.754403902513616,
0,0,0,0,127,0,127,0,1105.917380537,1105.917380537,1105.917380537,1105.917380537,1105.917380537,1105.917380537,1105.917380537,1,-1,rojo,1,['N_A'],1108.336527972,1108.336527972,1108.336527972,1108.336527972,1110.3726826950005,1110.3726826950005,1110.3726826950005,1110.3726826950005,1110.3726826950005,1110.3726826950005,1110.3726826950005,1110.3726826950005,1112.408281129,1112.408281129,1112.408281129,1112.408281129,,,,,,,,,,,,,,,,,,,,,,,,,,,,,,,,,,,,,,,05,006,2022-09-23_11h44.54.373,test2,2022.2.4,59.754403902513616,
0,0,0,0,128,0,128,0,1112.408281129,1112.408281129,1112.408281129,1112.408281129,1112.408281129,1112.408281129,1112.408281129,1,-1,rojo,1,['N_A'],1114.1934235580002,1114.1934235580002,1114.1934235580002,1114.1934235580002,1116.2295116090008,1116.2295116090008,1116.2295116090008,1116.2295116090008,1116.2295116090008,1116.2295116090008,1116.2295116090008,1116.2295116090008,1118.2645656930008,1118.2645656930008,1118.2645656930008,1118.2645656930008,,,,,,,,,,,,,,,,,,,,,,,,,,,,,,,,,,,,,,,05,006,2022-09-23_11h44.54.373,test2,2022.2.4,59.754403902513616,
0,0,0,0,129,0,129,0,1118.2645656930008,1118.2645656930008,1118.2645656930008,1118.2645656930008,1118.2645656930008,1118.2645656930008,1118.2645656930008,1,-1,rojo,1,['N_A'],1119.7827946320003,1119.7827946320003,1119.7827946320003,1119.7827946320003,1121.8182557190003,1121.8182557190003,1121.8182557190003,1121.8182557190003,1121.8182557190003,1121.8182557190003,1121.8182557190003,1121.8182557190003,1123.853659845,1123.853659845,1123.853659845,1123.853659845,,,,,,,,,,,,,,,,,,,,,,,,,,,,,,,,,,,,,,,05,006,2022-09-23_11h44.54.373,test2,2022.2.4,59.754403902513616,
0,0,0,0,130,0,130,0,1123.853659845,1123.853659845,1123.853659845,1123.853659845,1123.853659845,1123.853659845,1123.853659845,1,-1,rojo,1,['N_A'],1125.5056987970002,1125.5056987970002,1125.5056987970002,1125.5056987970002,1127.5417635210006,1127.5417635210006,1127.5417635210006,1127.5417635210006,1127.5417635210006,1127.5417635210006,1127.5417635210006,1127.5417635210006,1129.5771145190001,1129.5771145190001,1129.5771145190001,1129.5771145190001,,,,,,,,,,,,,,,,,,,,,,,,,,,,,,,,,,,,,,,05,006,2022-09-23_11h44.54.373,test2,2022.2.4,59.754403902513616,
0,0,0,0,131,0,131,0,1129.5771145190001,1129.5771145190001,1129.5771145190001,1129.5771145190001,1129.5771145190001,1129.5771145190001,1129.5771145190001,1,-1,rojo,1,['N_A'],1138.0699106820002,1138.0699106820002,1138.0699106820002,1138.0699106820002,1140.1053112540003,1140.1053112540003,1140.1053112540003,1140.1053112540003,1140.1053112540003,1140.1053112540003,1140.1053112540003,1140.1053112540003,1142.1409254170003,1142.1409254170003,1142.1409254170003,1142.1409254170003,,,,,,,,,,,,,,,,,,,,,,,,,,,,,,,,,,,,,,,05,006,2022-09-23_11h44.54.373,test2,2022.2.4,59.754403902513616,
0,0,0,0,132,0,132,0,1142.1409254170003,1142.1409254170003,1142.1409254170003,1142.1409254170003,1142.1409254170003,1142.1409254170003,1142.1409254170003,1,-1,rojo,1,['N_A'],1144.9936882360007,1144.9936882360007,1144.9936882360007,1144.9936882360007,1147.029400845,1147.029400845,1147.029400845,1147.029400845,1147.029400845,1147.029400845,1147.029400845,1147.029400845,1149.0645451850005,1149.0645451850005,1149.0645451850005,1149.0645451850005,,,,,,,,,,,,,,,,,,,,,,,,,,,,,,,,,,,,,,,05,006,2022-09-23_11h44.54.373,test2,2022.2.4,59.754403902513616,
0,0,0,0,133,0,133,0,1149.0645451850005,1149.0645451850005,1149.0645451850005,1149.0645451850005,1149.0645451850005,1149.0645451850005,1149.0645451850005,1,-1,rojo,1,['N_A'],1150.6999220810003,1150.6999220810003,1150.6999220810003,1150.6999220810003,1152.7359444720005,1152.7359444720005,1152.7359444720005,1152.7359444720005,1152.7359444720005,1152.7359444720005,1152.7359444720005,1152.7359444720005,1154.7709451480005,1154.7709451480005,1154.7709451480005,1154.7709451480005,,,,,,,,,,,,,,,,,,,,,,,,,,,,,,,,,,,,,,,05,006,2022-09-23_11h44.54.373,test2,2022.2.4,59.754403902513616,
0,0,0,0,134,0,134,0,1154.7709451480005,1154.7709451480005,1154.7709451480005,1154.7709451480005,1154.7709451480005,1154.7709451480005,1154.7709451480005,-1,-1,azul,1,['N_A'],1156.2565580210003,1156.2565580210003,1156.2565580210003,1156.2565580210003,1158.2920500700002,1158.2920500700002,1158.2920500700002,1158.2920500700002,1158.2920500700002,1158.2920500700002,1158.2920500700002,1158.2920500700002,1160.327265676,1160.327265676,1160.327265676,1160.327265676,,,,,,,,,,,,,,,,,,,,,,,,,,,,,,,,,,,,,,,05,006,2022-09-23_11h44.54.373,test2,2022.2.4,59.754403902513616,
0,0,0,0,135,0,135,0,1160.327265676,1160.327265676,1160.327265676,1160.327265676,1160.327265676,1160.327265676,1160.327265676,-1,1,azul,1,['N_A'],1162.012923833,1162.012923833,1162.012923833,1162.012923833,1164.0322614860006,1164.0322614860006,1164.0322614860006,1164.0322614860006,1164.0322614860006,1164.0322614860006,1164.0322614860006,1164.0322614860006,1166.0666102970008,1166.0666102970008,1166.0666102970008,1166.0666102970008,,,,,,,,,,,,,,,,,,,,,,,,,,,,,,,,,,,,,,,05,006,2022-09-23_11h44.54.373,test2,2022.2.4,59.754403902513616,
0,0,0,0,136,0,136,0,1166.0666102970008,1166.0666102970008,1166.0666102970008,1166.0666102970008,1166.0666102970008,1166.0666102970008,1166.0666102970008,-1,1,azul,1,['N_A'],1169.8879448410007,1169.8879448410007,1169.8879448410007,1169.8879448410007,1171.9237700900003,1171.9237700900003,1171.9237700900003,1171.9237700900003,1171.9237700900003,1171.9237700900003,1171.9237700900003,1171.9237700900003,1173.9594863340008,1173.9594863340008,1173.9594863340008,1173.9594863340008,,,,,,,,,,,,,,,,,,,,,,,,,,,,,,,,,,,,,,,05,006,2022-09-23_11h44.54.373,test2,2022.2.4,59.754403902513616,
0,0,0,0,137,0,137,0,1173.9594863340008,1173.9594863340008,1173.9594863340008,1173.9594863340008,1173.9594863340008,1173.9594863340008,1173.9594863340008,-1,-1,azul,1,['N_A'],1175.6110922530006,1175.6110922530006,1175.6110922530006,1175.6110922530006,1177.6464038190006,1177.6464038190006,1177.6464038190006,1177.6464038190006,1177.6464038190006,1177.6464038190006,1177.6464038190006,1177.6464038190006,1179.6818638610002,1179.6818638610002,1179.6818638610002,1179.6818638610002,,,,,,,,,,,,,,,,,,,,,,,,,,,,,,,,,,,,,,,05,006,2022-09-23_11h44.54.373,test2,2022.2.4,59.754403902513616,
0,0,0,0,138,0,138,0,1179.6818638610002,1179.6818638610002,1179.6818638610002,1179.6818638610002,1179.6818638610002,1179.6818638610002,1179.6818638610002,-1,1,azul,1,['N_A'],1181.517241851,1181.517241851,1181.517241851,1181.517241851,1183.5528793540007,1183.5528793540007,1183.5528793540007,1183.5528793540007,1183.5528793540007,1183.5528793540007,1183.5528793540007,1183.5528793540007,1185.5886110330002,1185.5886110330002,1185.5886110330002,1185.5886110330002,,,,,,,,,,,,,,,,,,,,,,,,,,,,,,,,,,,,,,,05,006,2022-09-23_11h44.54.373,test2,2022.2.4,59.754403902513616,
0,0,0,0,139,0,139,0,1185.5886110330002,1185.5886110330002,1185.5886110330002,1185.5886110330002,1185.5886110330002,1185.5886110330002,1185.5886110330002,1,-1,rojo,1,['N_A'],1188.2420250120003,1188.2420250120003,1188.2420250120003,1188.2420250120003,1190.277331964,1190.277331964,1190.277331964,1190.277331964,1190.277331964,1190.277331964,1190.277331964,1190.277331964,1192.3126790760007,1192.3126790760007,1192.3126790760007,1192.3126790760007,,,,,,,,,,,,,,,,,,,,,,,,,,,,,,,,,,,,,,,05,006,2022-09-23_11h44.54.373,test2,2022.2.4,59.754403902513616,
0,0,0,0,140,0,140,0,1192.3126790760007,1192.3126790760007,1192.3126790760007,1192.3126790760007,1192.3126790760007,1192.3126790760007,1192.3126790760007,1,-1,rojo,1,['N_A'],1193.8641107600006,1193.8641107600006,1193.8641107600006,1193.8641107600006,1195.900531106,1195.900531106,1195.900531106,1195.900531106,1195.900531106,1195.900531106,1195.900531106,1195.900531106,1197.935793689,1197.935793689,1197.935793689,1197.935793689,,,,,,,,,,,,,,,,,,,,,,,,,,,,,,,,,,,,,,,05,006,2022-09-23_11h44.54.373,test2,2022.2.4,59.754403902513616,
0,0,0,0,141,0,141,0,1197.935793689,1197.935793689,1197.935793689,1197.935793689,1197.935793689,1197.935793689,1197.935793689,1,-1,rojo,1,['N_A'],1199.5543516480002,1199.5543516480002,1199.5543516480002,1199.5543516480002,1201.5898029790005,1201.5898029790005,1201.5898029790005,1201.5898029790005,1201.5898029790005,1201.5898029790005,1201.5898029790005,1201.5898029790005,1203.6256139430006,1203.6256139430006,1203.6256139430006,1203.6256139430006,,,,,,,,,,,,,,,,,,,,,,,,,,,,,,,,,,,,,,,05,006,2022-09-23_11h44.54.373,test2,2022.2.4,59.754403902513616,
0,0,0,0,142,0,142,0,1203.6256139430006,1203.6256139430006,1203.6256139430006,1203.6256139430006,1203.6256139430006,1203.6256139430006,1203.6256139430006,1,-1,rojo,1,['N_A'],1205.9447910440003,1205.9447910440003,1205.9447910440003,1205.9447910440003,1207.9806190560003,1207.9806190560003,1207.9806190560003,1207.9806190560003,1207.9806190560003,1207.9806190560003,1207.9806190560003,1207.9806190560003,1210.0156512270005,1210.0156512270005,1210.0156512270005,1210.0156512270005,,,,,,,,,,,,,,,,,,,,,,,,,,,,,,,,,,,,,,,05,006,2022-09-23_11h44.54.373,test2,2022.2.4,59.754403902513616,
0,0,0,0,143,0,143,0,1210.0156512270005,1210.0156512270005,1210.0156512270005,1210.0156512270005,1210.0156512270005,1210.0156512270005,1210.0156512270005,-1,-1,azul,1,['N_A'],1212.0678886630003,1212.0678886630003,1212.0678886630003,1212.0678886630003,1214.1038485440004,1214.1038485440004,1214.1038485440004,1214.1038485440004,1214.1038485440004,1214.1038485440004,1214.1038485440004,1214.1038485440004,1216.1386148170004,1216.1386148170004,1216.1386148170004,1216.1386148170004,,,,,,,,,,,,,,,,,,,,,,,,,,,,,,,,,,,,,,,05,006,2022-09-23_11h44.54.373,test2,2022.2.4,59.754403902513616,
0,0,0,0,144,0,144,0,1216.1386148170004,1216.1386148170004,1216.1386148170004,1216.1386148170004,1216.1386148170004,1216.1386148170004,1216.1386148170004,1,-1,rojo,1,['N_A'],1217.9083348800004,1217.9083348800004,1217.9083348800004,1217.9083348800004,1219.9431252170007,1219.9431252170007,1219.9431252170007,1219.9431252170007,1219.9431252170007,1219.9431252170007,1219.9431252170007,1219.9431252170007,1221.978654388,1221.978654388,1221.978654388,1221.978654388,,,,,,,,,,,,,,,,,,,,,,,,,,,,,,,,,,,,,,,05,006,2022-09-23_11h44.54.373,test2,2022.2.4,59.754403902513616,
0,0,0,0,145,0,145,0,1221.978654388,1221.978654388,1221.978654388,1221.978654388,1221.978654388,1221.978654388,1221.978654388,-1,1,azul,1,['N_A'],1225.9333688800007,1225.9333688800007,1225.9333688800007,1225.9333688800007,1227.951648698,1227.951648698,1227.951648698,1227.951648698,1227.951648698,1227.951648698,1227.951648698,1227.951648698,1229.9876029960005,1229.9876029960005,1229.9876029960005,1229.9876029960005,,,,,,,,,,,,,,,,,,,,,,,,,,,,,,,,,,,,,,,05,006,2022-09-23_11h44.54.373,test2,2022.2.4,59.754403902513616,
0,0,0,0,146,0,146,0,1229.9876029960005,1229.9876029960005,1229.9876029960005,1229.9876029960005,1229.9876029960005,1229.9876029960005,1229.9876029960005,-1,1,azul,1,['N_A'],1234.7766319660004,1234.7766319660004,1234.7766319660004,1234.7766319660004,1236.8121844440002,1236.8121844440002,1236.8121844440002,1236.8121844440002,1236.8121844440002,1236.8121844440002,1236.8121844440002,1236.8121844440002,1238.8475989800008,1238.8475989800008,1238.8475989800008,1238.8475989800008,,,,,,,,,,,,,,,,,,,,,,,,,,,,,,,,,,,,,,,05,006,2022-09-23_11h44.54.373,test2,2022.2.4,59.754403902513616,
0,0,0,0,147,0,147,0,1238.8475989800008,1238.8475989800008,1238.8475989800008,1238.8475989800008,1238.8475989800008,1238.8475989800008,1238.8475989800008,1,-1,rojo,1,['N_A'],1241.1670726990005,1241.1670726990005,1241.1670726990005,1241.1670726990005,1243.2023341330005,1243.2023341330005,1243.2023341330005,1243.2023341330005,1243.2023341330005,1243.2023341330005,1243.2023341330005,1243.2023341330005,1245.2376981940006,1245.2376981940006,1245.2376981940006,1245.2376981940006,,,,,,,,,,,,,,,,,,,,,,,,,,,,,,,,,,,,,,,05,006,2022-09-23_11h44.54.373,test2,2022.2.4,59.754403902513616,
0,0,0,0,148,0,148,0,1245.2376981940006,1245.2376981940006,1245.2376981940006,1245.2376981940006,1245.2376981940006,1245.2376981940006,1245.2376981940006,1,-1,rojo,1,['N_A'],1246.9402360630002,1246.9402360630002,1246.9402360630002,1246.9402360630002,1248.975349536,1248.975349536,1248.975349536,1248.975349536,1248.975349536,1248.975349536,1248.975349536,1248.975349536,1251.0111342710006,1251.0111342710006,1251.0111342710006,1251.0111342710006,,,,,,,,,,,,,,,,,,,,,,,,,,,,,,,,,,,,,,,05,006,2022-09-23_11h44.54.373,test2,2022.2.4,59.754403902513616,
0,0,0,0,149,0,149,0,1251.0111342710006,1251.0111342710006,1251.0111342710006,1251.0111342710006,1251.0111342710006,1251.0111342710006,1251.0111342710006,-1,1,azul,1,['N_A'],1252.6122540250008,1252.6122540250008,1252.6122540250008,1252.6122540250008,1254.6478475390004,1254.6478475390004,1254.6478475390004,1254.6478475390004,1254.6478475390004,1254.6478475390004,1254.6478475390004,1254.6478475390004,1256.6841140810002,1256.6841140810002,1256.6841140810002,1256.6841140810002,,,,,,,,,,,,,,,,,,,,,,,,,,,,,,,,,,,,,,,05,006,2022-09-23_11h44.54.373,test2,2022.2.4,59.754403902513616,
0,0,0,0,150,0,150,0,1256.6841140810002,1256.6841140810002,1256.6841140810002,1256.6841140810002,1256.6841140810002,1256.6841140810002,1256.6841140810002,1,-1,rojo,1,['N_A'],1258.5368731760009,1258.5368731760009,1258.5368731760009,1258.5368731760009,1260.571303957,1260.571303957,1260.571303957,1260.571303957,1260.571303957,1260.571303957,1260.571303957,1260.571303957,1262.607278501,1262.607278501,1262.607278501,1262.607278501,,,,,,,,,,,,,,,,,,,,,,,,,,,,,,,,,,,,,,,05,006,2022-09-23_11h44.54.373,test2,2022.2.4,59.754403902513616,
0,0,0,0,151,0,151,0,1262.607278501,1262.607278501,1262.607278501,1262.607278501,1262.607278501,1262.607278501,1262.607278501,1,-1,rojo,1,['N_A'],1264.5925820960001,1264.5925820960001,1264.5925820960001,1264.5925820960001,1266.6285943010007,1266.6285943010007,1266.6285943010007,1266.6285943010007,1266.6285943010007,1266.6285943010007,1266.6285943010007,1266.6285943010007,1268.6641803370003,1268.6641803370003,1268.6641803370003,1268.6641803370003,,,,,,,,,,,,,,,,,,,,,,,,,,,,,,,,,,,,,,,05,006,2022-09-23_11h44.54.373,test2,2022.2.4,59.754403902513616,
0,0,0,0,152,0,152,0,1268.6641803370003,1268.6641803370003,1268.6641803370003,1268.6641803370003,1268.6641803370003,1268.6641803370003,1268.6641803370003,1,1,rojo,1,['N_A'],1270.3654538750006,1270.3654538750006,1270.3654538750006,1270.3654538750006,1272.4020522190003,1272.4020522190003,1272.4020522190003,1272.4020522190003,1272.4020522190003,1272.4020522190003,1272.4020522190003,1272.4020522190003,1274.4365958860008,1274.4365958860008,1274.4365958860008,1274.4365958860008,,,,,,,,,,,,,,,,,,,,,,,,,,,,,,,,,,,,,,,05,006,2022-09-23_11h44.54.373,test2,2022.2.4,59.754403902513616,
0,0,0,0,153,0,153,0,1274.4365958860008,1274.4365958860008,1274.4365958860008,1274.4365958860008,1274.4365958860008,1274.4365958860008,1274.4365958860008,1,-1,rojo,1,['N_A'],1276.1549323280005,1276.1549323280005,1276.1549323280005,1276.1549323280005,1278.1909868150005,1278.1909868150005,1278.1909868150005,1278.1909868150005,1278.1909868150005,1278.1909868150005,1278.1909868150005,1278.1909868150005,1280.226745031,1280.226745031,1280.226745031,1280.226745031,,,,,,,,,,,,,,,,,,,,,,,,,,,,,,,,,,,,,,,05,006,2022-09-23_11h44.54.373,test2,2022.2.4,59.754403902513616,
0,0,0,0,154,0,154,0,1280.226745031,1280.226745031,1280.226745031,1280.226745031,1280.226745031,1280.226745031,1280.226745031,1,-1,rojo,1,['N_A'],1282.0449946840008,1282.0449946840008,1282.0449946840008,1282.0449946840008,1284.0808767690005,1284.0808767690005,1284.0808767690005,1284.0808767690005,1284.0808767690005,1284.0808767690005,1284.0808767690005,1284.0808767690005,1286.1158619430007,1286.1158619430007,1286.1158619430007,1286.1158619430007,,,,,,,,,,,,,,,,,,,,,,,,,,,,,,,,,,,,,,,05,006,2022-09-23_11h44.54.373,test2,2022.2.4,59.754403902513616,
0,0,0,0,155,0,155,0,1286.1158619430007,1286.1158619430007,1286.1158619430007,1286.1158619430007,1286.1158619430007,1286.1158619430007,1286.1158619430007,1,-1,rojo,1,['N_A'],1287.9687751610008,1287.9687751610008,1287.9687751610008,1287.9687751610008,1290.0042070200006,1290.0042070200006,1290.0042070200006,1290.0042070200006,1290.0042070200006,1290.0042070200006,1290.0042070200006,1290.0042070200006,1292.0396574610004,1292.0396574610004,1292.0396574610004,1292.0396574610004,,,,,,,,,,,,,,,,,,,,,,,,,,,,,,,,,,,,,,,05,006,2022-09-23_11h44.54.373,test2,2022.2.4,59.754403902513616,
0,0,0,0,156,0,156,0,1292.0396574610004,1292.0396574610004,1292.0396574610004,1292.0396574610004,1292.0396574610004,1292.0396574610004,1292.0396574610004,-1,1,azul,1,['N_A'],1295.5599441010008,1295.5599441010008,1295.5599441010008,1295.5599441010008,1297.5961164400005,1297.5961164400005,1297.5961164400005,1297.5961164400005,1297.5961164400005,1297.5961164400005,1297.5961164400005,1297.5961164400005,1299.6315528410005,1299.6315528410005,1299.6315528410005,1299.6315528410005,,,,,,,,,,,,,,,,,,,,,,,,,,,,,,,,,,,,,,,05,006,2022-09-23_11h44.54.373,test2,2022.2.4,59.754403902513616,
0,0,0,0,157,0,157,0,1299.6315528410005,1299.6315528410005,1299.6315528410005,1299.6315528410005,1299.6315528410005,1299.6315528410005,1299.6315528410005,1,-1,rojo,1,['N_A'],1302.384705206,1302.384705206,1302.384705206,1302.384705206,1304.4198682360002,1304.4198682360002,1304.4198682360002,1304.4198682360002,1304.4198682360002,1304.4198682360002,1304.4198682360002,1304.4198682360002,1306.4554615210009,1306.4554615210009,1306.4554615210009,1306.4554615210009,,,,,,,,,,,,,,,,,,,,,,,,,,,,,,,,,,,,,,,05,006,2022-09-23_11h44.54.373,test2,2022.2.4,59.754403902513616,
0,0,0,0,158,0,158,0,1306.4554615210009,1306.4554615210009,1306.4554615210009,1306.4554615210009,1306.4554615210009,1306.4554615210009,1306.4554615210009,1,-1,rojo,1,['N_A'],1307.9072278390004,1307.9072278390004,1307.9072278390004,1307.9072278390004,1309.9424889890006,1309.9424889890006,1309.9424889890006,1309.9424889890006,1309.9424889890006,1309.9424889890006,1309.9424889890006,1309.9424889890006,1311.9785688780003,1311.9785688780003,1311.9785688780003,1311.9785688780003,,,,,,,,,,,,,,,,,,,,,,,,,,,,,,,,,,,,,,,05,006,2022-09-23_11h44.54.373,test2,2022.2.4,59.754403902513616,
0,0,0,0,159,0,159,0,1311.9785688780003,1311.9785688780003,1311.9785688780003,1311.9785688780003,1311.9785688780003,1311.9785688780003,1311.9785688780003,1,1,rojo,1,['N_A'],1314.5977021150002,1314.5977021150002,1314.5977021150002,1314.5977021150002,1316.6158812430003,1316.6158812430003,1316.6158812430003,1316.6158812430003,1316.6158812430003,1316.6158812430003,1316.6158812430003,1316.6158812430003,1318.6525256050008,1318.6525256050008,1318.6525256050008,1318.6525256050008,,,,,,,,,,,,,,,,,,,,,,,,,,,,,,,,,,,,,,,05,006,2022-09-23_11h44.54.373,test2,2022.2.4,59.754403902513616,
0,0,0,0,160,0,160,0,1318.6525256050008,1318.6525256050008,1318.6525256050008,1318.6525256050008,1318.6525256050008,1318.6525256050008,1318.6525256050008,-1,1,azul,1,['N_A'],1321.1721456390005,1321.1721456390005,1321.1721456390005,1321.1721456390005,1323.2070526510006,1323.2070526510006,1323.2070526510006,1323.2070526510006,1323.2070526510006,1323.2070526510006,1323.2070526510006,1323.2070526510006,1325.2431598430003,1325.2431598430003,1325.2431598430003,1325.2431598430003,,,,,,,,,,,,,,,,,,,,,,,,,,,,,,,,,,,,,,,05,006,2022-09-23_11h44.54.373,test2,2022.2.4,59.754403902513616,
0,0,0,0,161,0,161,0,1325.2431598430003,1325.2431598430003,1325.2431598430003,1325.2431598430003,1325.2431598430003,1325.2431598430003,1325.2431598430003,-1,-1,azul,1,['N_A'],1327.7622244780005,1327.7622244780005,1327.7622244780005,1327.7622244780005,1329.7978682980001,1329.7978682980001,1329.7978682980001,1329.7978682980001,1329.7978682980001,1329.7978682980001,1329.7978682980001,1329.7978682980001,1331.8330852920008,1331.8330852920008,1331.8330852920008,1331.8330852920008,,,,,,,,,,,,,,,,,,,,,,,,,,,,,,,,,,,,,,,05,006,2022-09-23_11h44.54.373,test2,2022.2.4,59.754403902513616,
0,0,0,0,162,0,162,0,1331.8330852920008,1331.8330852920008,1331.8330852920008,1331.8330852920008,1331.8330852920008,1331.8330852920008,1331.8330852920008,1,-1,rojo,1,['N_A'],1333.6520086300006,1333.6520086300006,1333.6520086300006,1333.6520086300006,1335.6877992910004,1335.6877992910004,1335.6877992910004,1335.6877992910004,1335.6877992910004,1335.6877992910004,1335.6877992910004,1335.6877992910004,1337.723343263,1337.723343263,1337.723343263,1337.723343263,,,,,,,,,,,,,,,,,,,,,,,,,,,,,,,,,,,,,,,05,006,2022-09-23_11h44.54.373,test2,2022.2.4,59.754403902513616,
0,0,0,0,163,0,163,0,1337.723343263,1337.723343263,1337.723343263,1337.723343263,1337.723343263,1337.723343263,1337.723343263,1,-1,rojo,1,['N_A'],1339.4088701150004,1339.4088701150004,1339.4088701150004,1339.4088701150004,1341.4440552150008,1341.4440552150008,1341.4440552150008,1341.4440552150008,1341.4440552150008,1341.4440552150008,1341.4440552150008,1341.4440552150008,1343.4795923410002,1343.4795923410002,1343.4795923410002,1343.4795923410002,,,,,,,,,,,,,,,,,,,,,,,,,,,,,,,,,,,,,,,05,006,2022-09-23_11h44.54.373,test2,2022.2.4,59.754403902513616,
0,0,0,0,164,0,164,0,1343.4795923410002,1343.4795923410002,1343.4795923410002,1343.4795923410002,1343.4795923410002,1343.4795923410002,1343.4795923410002,1,-1,rojo,1,['N_A'],1345.2320759960003,1345.2320759960003,1345.2320759960003,1345.2320759960003,1347.267610756,1347.267610756,1347.267610756,1347.267610756,1347.267610756,1347.267610756,1347.267610756,1347.267610756,1349.3023092190006,1349.3023092190006,1349.3023092190006,1349.3023092190006,,,,,,,,,,,,,,,,,,,,,,,,,,,,,,,,,,,,,,,05,006,2022-09-23_11h44.54.373,test2,2022.2.4,59.754403902513616,
0,0,0,0,165,0,165,0,1349.3023092190006,1349.3023092190006,1349.3023092190006,1349.3023092190006,1349.3023092190006,1349.3023092190006,1349.3023092190006,1,-1,rojo,1,['N_A'],1351.0878072630003,1351.0878072630003,1351.0878072630003,1351.0878072630003,1353.1240460670006,1353.1240460670006,1353.1240460670006,1353.1240460670006,1353.1240460670006,1353.1240460670006,1353.1240460670006,1353.1240460670006,1355.1588640320006,1355.1588640320006,1355.1588640320006,1355.1588640320006,,,,,,,,,,,,,,,,,,,,,,,,,,,,,,,,,,,,,,,05,006,2022-09-23_11h44.54.373,test2,2022.2.4,59.754403902513616,
0,0,0,0,166,0,166,0,1355.1588640320006,1355.1588640320006,1355.1588640320006,1355.1588640320006,1355.1588640320006,1355.1588640320006,1355.1588640320006,1,1,rojo,1,['N_A'],1358.5796932330004,1358.5796932330004,1358.5796932330004,1358.5796932330004,1360.6152518340004,1360.6152518340004,1360.6152518340004,1360.6152518340004,1360.6152518340004,1360.6152518340004,1360.6152518340004,1360.6152518340004,1362.6511014510006,1362.6511014510006,1362.6511014510006,1362.6511014510006,,,,,,,,,,,,,,,,,,,,,,,,,,,,,,,,,,,,,,,05,006,2022-09-23_11h44.54.373,test2,2022.2.4,59.754403902513616,
0,0,0,0,167,0,167,0,1362.6511014510006,1362.6511014510006,1362.6511014510006,1362.6511014510006,1362.6511014510006,1362.6511014510006,1362.6511014510006,-1,-1,azul,1,['N_A'],1369.3086242830004,1369.3086242830004,1369.3086242830004,1369.3086242830004,1371.3439746620006,1371.3439746620006,1371.3439746620006,1371.3439746620006,1371.3439746620006,1371.3439746620006,1371.3439746620006,1371.3439746620006,1373.3787559420007,1373.3787559420007,1373.3787559420007,1373.3787559420007,,,,,,,,,,,,,,,,,,,,,,,,,,,,,,,,,,,,,,,05,006,2022-09-23_11h44.54.373,test2,2022.2.4,59.754403902513616,
0,0,0,0,168,0,168,0,1373.3787559420007,1373.3787559420007,1373.3787559420007,1373.3787559420007,1373.3787559420007,1373.3787559420007,1373.3787559420007,1,-1,rojo,1,['N_A'],1375.2147687980005,1375.2147687980005,1375.2147687980005,1375.2147687980005,1377.2504989210001,1377.2504989210001,1377.2504989210001,1377.2504989210001,1377.2504989210001,1377.2504989210001,1377.2504989210001,1377.2504989210001,1379.2858114130004,1379.2858114130004,1379.2858114130004,1379.2858114130004,,,,,,,,,,,,,,,,,,,,,,,,,,,,,,,,,,,,,,,05,006,2022-09-23_11h44.54.373,test2,2022.2.4,59.754403902513616,
0,0,0,0,169,0,169,0,1379.2858114130004,1379.2858114130004,1379.2858114130004,1379.2858114130004,1379.2858114130004,1379.2858114130004,1379.2858114130004,1,-1,rojo,1,['N_A'],1381.1046760090003,1381.1046760090003,1381.1046760090003,1381.1046760090003,1383.1399428090008,1383.1399428090008,1383.1399428090008,1383.1399428090008,1383.1399428090008,1383.1399428090008,1383.1399428090008,1383.1399428090008,1385.1760510420008,1385.1760510420008,1385.1760510420008,1385.1760510420008,,,,,,,,,,,,,,,,,,,,,,,,,,,,,,,,,,,,,,,05,006,2022-09-23_11h44.54.373,test2,2022.2.4,59.754403902513616,
0,0,0,0,170,0,170,0,1385.1760510420008,1385.1760510420008,1385.1760510420008,1385.1760510420008,1385.1760510420008,1385.1760510420008,1385.1760510420008,1,-1,rojo,1,['N_A'],1386.7106951710002,1386.7106951710002,1386.7106951710002,1386.7106951710002,1388.7458054590006,1388.7458054590006,1388.7458054590006,1388.7458054590006,1388.7458054590006,1388.7458054590006,1388.7458054590006,1388.7458054590006,1390.781757785,1390.781757785,1390.781757785,1390.781757785,,,,,,,,,,,,,,,,,,,,,,,,,,,,,,,,,,,,,,,05,006,2022-09-23_11h44.54.373,test2,2022.2.4,59.754403902513616,
0,0,0,0,171,0,171,0,1390.781757785,1390.781757785,1390.781757785,1390.781757785,1390.781757785,1390.781757785,1390.781757785,1,-1,rojo,1,['N_A'],1393.5515410060007,1393.5515410060007,1393.5515410060007,1393.5515410060007,1395.5872781490007,1395.5872781490007,1395.5872781490007,1395.5872781490007,1395.5872781490007,1395.5872781490007,1395.5872781490007,1395.5872781490007,1397.622411104,1397.622411104,1397.622411104,1397.622411104,,,,,,,,,,,,,,,,,,,,,,,,,,,,,,,,,,,,,,,05,006,2022-09-23_11h44.54.373,test2,2022.2.4,59.754403902513616,
0,0,0,0,172,0,172,0,1397.622411104,1397.622411104,1397.622411104,1397.622411104,1397.622411104,1397.622411104,1397.622411104,-1,1,azul,1,['N_A'],1400.692638945,1400.692638945,1400.692638945,1400.692638945,1402.7118195850007,1402.7118195850007,1402.7118195850007,1402.7118195850007,1402.7118195850007,1402.7118195850007,1402.7118195850007,1402.7118195850007,1404.7467803090003,1404.7467803090003,1404.7467803090003,1404.7467803090003,,,,,,,,,,,,,,,,,,,,,,,,,,,,,,,,,,,,,,,05,006,2022-09-23_11h44.54.373,test2,2022.2.4,59.754403902513616,
0,0,0,0,173,0,173,0,1404.7467803090003,1404.7467803090003,1404.7467803090003,1404.7467803090003,1404.7467803090003,1404.7467803090003,1404.7467803090003,-1,1,azul,1,['N_A'],1406.3654564030003,1406.3654564030003,1406.3654564030003,1406.3654564030003,1408.3841596460006,1408.3841596460006,1408.3841596460006,1408.3841596460006,1408.3841596460006,1408.3841596460006,1408.3841596460006,1408.3841596460006,1410.4200019950003,1410.4200019950003,1410.4200019950003,1410.4200019950003,,,,,,,,,,,,,,,,,,,,,,,,,,,,,,,,,,,,,,,05,006,2022-09-23_11h44.54.373,test2,2022.2.4,59.754403902513616,
0,0,0,0,174,0,174,0,1410.4200019950003,1410.4200019950003,1410.4200019950003,1410.4200019950003,1410.4200019950003,1410.4200019950003,1410.4200019950003,1,1,rojo,1,['N_A'],1412.672479416,1412.672479416,1412.672479416,1412.672479416,1414.6916075180006,1414.6916075180006,1414.6916075180006,1414.6916075180006,1414.6916075180006,1414.6916075180006,1414.6916075180006,1414.6916075180006,1416.7271101650003,1416.7271101650003,1416.7271101650003,1416.7271101650003,,,,,,,,,,,,,,,,,,,,,,,,,,,,,,,,,,,,,,,05,006,2022-09-23_11h44.54.373,test2,2022.2.4,59.754403902513616,
0,0,0,0,175,0,175,0,1416.7271101650003,1416.7271101650003,1416.7271101650003,1416.7271101650003,1416.7271101650003,1416.7271101650003,1416.7271101650003,1,1,rojo,1,['N_A'],1419.2132506360003,1419.2132506360003,1419.2132506360003,1419.2132506360003,1421.2485588860009,1421.2485588860009,1421.2485588860009,1421.2485588860009,1421.2485588860009,1421.2485588860009,1421.2485588860009,1421.2485588860009,1423.2842018930005,1423.2842018930005,1423.2842018930005,1423.2842018930005,,,,,,,,,,,,,,,,,,,,,,,,,,,,,,,,,,,,,,,05,006,2022-09-23_11h44.54.373,test2,2022.2.4,59.754403902513616,
0,0,0,0,176,0,176,0,1423.2842018930005,1423.2842018930005,1423.2842018930005,1423.2842018930005,1423.2842018930005,1423.2842018930005,1423.2842018930005,1,-1,rojo,1,['N_A'],1425.4702305960009,1425.4702305960009,1425.4702305960009,1425.4702305960009,1427.5050524820008,1427.5050524820008,1427.5050524820008,1427.5050524820008,1427.5050524820008,1427.5050524820008,1427.5050524820008,1427.5050524820008,1429.541595738,1429.541595738,1429.541595738,1429.541595738,,,,,,,,,,,,,,,,,,,,,,,,,,,,,,,,,,,,,,,05,006,2022-09-23_11h44.54.373,test2,2022.2.4,59.754403902513616,
