trials_2.thisRepN,trials_2.thisTrialN,trials_2.thisN,trials_2.thisIndex,trials.thisRepN,trials.thisTrialN,trials.thisN,trials.thisIndex,Instrucción2.started,N_A_4.started,N_B_4.started,Exitos_3.started,Dias_3.started,Stimuli_1.started,Stimuli_2.started,Transitions,Rewards,Mode,Stay,Neighbour,Stimuli_3.started,Modo.started,Dias2.started,Exitos2.started,Stimuli_3.stopped,Modo.stopped,Dias2.stopped,Exitos2.stopped,Reward.started,Stimuli_reward.started,Exitos3.started,Dias3.started,Reward.stopped,Stimuli_reward.stopped,Exitos3.stopped,Dias3.stopped,Cue_text.started,Stimuli_4.started,Exitos4.started,Dias4.started,Stimuli_3_3.started,Stimuli_2_3.started,Instrucción.started,N_A.started,N_B.started,N_C.started,Exitos_2.started,Dias_2.started,Stimuli_1_3.started,Stimuli_3_2.started,Stimuli_2_2.started,Pregunta.started,N_A_2.started,N_B_2.started,N_C_2.started,Exitos5.started,Dias5.started,Stimuli_1_2.started,Resp_final_1,Modo2.started,Modo1.started,Pregunta_4.started,Modo3.started,Exitos7.started,Dias6.started,Resp_final_2,Modo1_2.started,Pregunta_3.started,Modo2_2.started,Exitos8.started,Dias7.started,Resp_final_3,Mensaje_Final2.started,Exitos6.started,participant,session,date,expName,psychopyVersion,frameRate,
0,0,0,0,0,0,0,0,32.30820966899955,32.30820966899955,32.30820966899955,32.30820966899955,32.30820966899955,32.30820966899955,32.30820966899955,0,0,0,0,['N_A'],64.82618161199935,64.82618161199935,64.82618161199935,64.82618161199935,66.86329209299947,66.86329209299947,66.86329209299947,66.86329209299947,66.86329209299947,66.86329209299947,66.86329209299947,66.86329209299947,68.89825963399926,68.89825963399926,68.89825963399926,68.89825963399926,,,,,,,,,,,,,,,,,,,,,,,,,,,,,,,,,,,,,,,05,007,2022-09-23_14h40.16.066,test2,2022.2.4,59.89105362140533,
0,0,0,0,1,0,1,0,68.89825963399926,68.89825963399926,68.89825963399926,68.89825963399926,68.89825963399926,68.89825963399926,68.89825963399926,1,1,rojo,0,['N_B'],80.16112816399982,80.16112816399982,80.16112816399982,80.16112816399982,82.17953119099911,82.17953119099911,82.17953119099911,82.17953119099911,82.17953119099911,82.17953119099911,82.17953119099911,82.17953119099911,84.21492551099982,84.21492551099982,84.21492551099982,84.21492551099982,,,,,,,,,,,,,,,,,,,,,,,,,,,,,,,,,,,,,,,05,007,2022-09-23_14h40.16.066,test2,2022.2.4,59.89105362140533,
0,0,0,0,2,0,2,0,84.21492551099982,84.21492551099982,84.21492551099982,84.21492551099982,84.21492551099982,84.21492551099982,84.21492551099982,-1,1,rojo,0,['N_A'],91.99097614600032,91.99097614600032,91.99097614600032,91.99097614600032,94.02707019099944,94.02707019099944,94.02707019099944,94.02707019099944,94.02707019099944,94.02707019099944,94.02707019099944,94.02707019099944,96.06146807199912,96.06146807199912,96.06146807199912,96.06146807199912,,,,,,,,,,,,,,,,,,,,,,,,,,,,,,,,,,,,,,,05,007,2022-09-23_14h40.16.066,test2,2022.2.4,59.89105362140533,
0,0,0,0,3,0,3,0,96.06146807199912,96.06146807199912,96.06146807199912,96.06146807199912,96.06146807199912,96.06146807199912,96.06146807199912,1,-1,rojo,0,['N_B'],101.11674472599952,101.11674472599952,101.11674472599952,101.11674472599952,103.15281801200035,103.15281801200035,103.15281801200035,103.15281801200035,103.15281801200035,103.15281801200035,103.15281801200035,103.15281801200035,105.1887674640002,105.1887674640002,105.1887674640002,105.1887674640002,,,,,,,,,,,,,,,,,,,,,,,,,,,,,,,,,,,,,,,05,007,2022-09-23_14h40.16.066,test2,2022.2.4,59.89105362140533,
0,0,0,0,4,0,4,0,105.1887674640002,105.1887674640002,105.1887674640002,105.1887674640002,105.1887674640002,105.1887674640002,105.1887674640002,1,1,azul,1,['N_B'],108.90922006799883,108.90922006799883,108.90922006799883,108.90922006799883,110.94513098399875,110.94513098399875,110.94513098399875,110.94513098399875,110.94513098399875,110.94513098399875,110.94513098399875,110.94513098399875,112.98061387999951,112.98061387999951,112.98061387999951,112.98061387999951,,,,,,,,,,,,,,,,,,,,,,,,,,,,,,,,,,,,,,,05,007,2022-09-23_14h40.16.066,test2,2022.2.4,59.89105362140533,
0,0,0,0,5,0,5,0,112.98061387999951,112.98061387999951,112.98061387999951,112.98061387999951,112.98061387999951,112.98061387999951,112.98061387999951,1,-1,azul,0,['N_A'],116.1177033669992,116.1177033669992,116.1177033669992,116.1177033669992,118.15371691799919,118.15371691799919,118.15371691799919,118.15371691799919,118.15371691799919,118.15371691799919,118.15371691799919,118.15371691799919,120.18801178600006,120.18801178600006,120.18801178600006,120.18801178600006,,,,,,,,,,,,,,,,,,,,,,,,,,,,,,,,,,,,,,,05,007,2022-09-23_14h40.16.066,test2,2022.2.4,59.89105362140533,
0,0,0,0,6,0,6,0,120.18801178600006,120.18801178600006,120.18801178600006,120.18801178600006,120.18801178600006,120.18801178600006,120.18801178600006,-1,-1,azul,1,['N_A'],122.00714302099914,122.00714302099914,122.00714302099914,122.00714302099914,124.04289427599906,124.04289427599906,124.04289427599906,124.04289427599906,124.04289427599906,124.04289427599906,124.04289427599906,124.04289427599906,126.07887356799984,126.07887356799984,126.07887356799984,126.07887356799984,,,,,,,,,,,,,,,,,,,,,,,,,,,,,,,,,,,,,,,05,007,2022-09-23_14h40.16.066,test2,2022.2.4,59.89105362140533,
0,0,0,0,7,0,7,0,126.07887356799984,126.07887356799984,126.07887356799984,126.07887356799984,126.07887356799984,126.07887356799984,126.07887356799984,1,-1,rojo,0,['N_B'],132.55185362199882,132.55185362199882,132.55185362199882,132.55185362199882,134.587942836999,134.587942836999,134.587942836999,134.587942836999,134.587942836999,134.587942836999,134.587942836999,134.587942836999,136.62299583399908,136.62299583399908,136.62299583399908,136.62299583399908,,,,,,,,,,,,,,,,,,,,,,,,,,,,,,,,,,,,,,,05,007,2022-09-23_14h40.16.066,test2,2022.2.4,59.89105362140533,
0,0,0,0,8,0,8,0,136.62299583399908,136.62299583399908,136.62299583399908,136.62299583399908,136.62299583399908,136.62299583399908,136.62299583399908,1,-1,azul,1,['N_B'],138.4088271719993,138.4088271719993,138.4088271719993,138.4088271719993,140.44426292099888,140.44426292099888,140.44426292099888,140.44426292099888,140.44426292099888,140.44426292099888,140.44426292099888,140.44426292099888,142.47997493799994,142.47997493799994,142.47997493799994,142.47997493799994,,,,,,,,,,,,,,,,,,,,,,,,,,,,,,,,,,,,,,,05,007,2022-09-23_14h40.16.066,test2,2022.2.4,59.89105362140533,
0,0,0,0,9,0,9,0,142.47997493799994,142.47997493799994,142.47997493799994,142.47997493799994,142.47997493799994,142.47997493799994,142.47997493799994,1,-1,azul,0,['N_A'],144.1648176210001,144.1648176210001,144.1648176210001,144.1648176210001,146.2005926439997,146.2005926439997,146.2005926439997,146.2005926439997,146.2005926439997,146.2005926439997,146.2005926439997,146.2005926439997,148.23605261000012,148.23605261000012,148.23605261000012,148.23605261000012,,,,,,,,,,,,,,,,,,,,,,,,,,,,,,,,,,,,,,,05,007,2022-09-23_14h40.16.066,test2,2022.2.4,59.89105362140533,
0,0,0,0,10,0,10,0,148.23605261000012,148.23605261000012,148.23605261000012,148.23605261000012,148.23605261000012,148.23605261000012,148.23605261000012,1,-1,rojo,0,['N_B'],150.05489226999998,150.05489226999998,150.05489226999998,150.05489226999998,152.09041457999956,152.09041457999956,152.09041457999956,152.09041457999956,152.09041457999956,152.09041457999956,152.09041457999956,152.09041457999956,154.1254849649995,154.1254849649995,154.1254849649995,154.1254849649995,,,,,,,,,,,,,,,,,,,,,,,,,,,,,,,,,,,,,,,05,007,2022-09-23_14h40.16.066,test2,2022.2.4,59.89105362140533,
0,0,0,0,11,0,11,0,154.1254849649995,154.1254849649995,154.1254849649995,154.1254849649995,154.1254849649995,154.1254849649995,154.1254849649995,-1,-1,rojo,1,['N_B'],156.17754398999932,156.17754398999932,156.17754398999932,156.17754398999932,158.21366966700043,158.21366966700043,158.21366966700043,158.21366966700043,158.21366966700043,158.21366966700043,158.21366966700043,158.21366966700043,160.24881204399935,160.24881204399935,160.24881204399935,160.24881204399935,,,,,,,,,,,,,,,,,,,,,,,,,,,,,,,,,,,,,,,05,007,2022-09-23_14h40.16.066,test2,2022.2.4,59.89105362140533,
0,0,0,0,12,0,12,0,160.24881204399935,160.24881204399935,160.24881204399935,160.24881204399935,160.24881204399935,160.24881204399935,160.24881204399935,1,-1,azul,1,['N_B'],161.78473425799893,161.78473425799893,161.78473425799893,161.78473425799893,163.81956957399962,163.81956957399962,163.81956957399962,163.81956957399962,163.81956957399962,163.81956957399962,163.81956957399962,163.81956957399962,165.85592883000027,165.85592883000027,165.85592883000027,165.85592883000027,,,,,,,,,,,,,,,,,,,,,,,,,,,,,,,,,,,,,,,05,007,2022-09-23_14h40.16.066,test2,2022.2.4,59.89105362140533,
0,0,0,0,13,0,13,0,165.85592883000027,165.85592883000027,165.85592883000027,165.85592883000027,165.85592883000027,165.85592883000027,165.85592883000027,1,1,azul,0,['N_A'],172.6467169160005,172.6467169160005,172.6467169160005,172.6467169160005,174.66439627100044,174.66439627100044,174.66439627100044,174.66439627100044,174.66439627100044,174.66439627100044,174.66439627100044,174.66439627100044,176.70076746799896,176.70076746799896,176.70076746799896,176.70076746799896,,,,,,,,,,,,,,,,,,,,,,,,,,,,,,,,,,,,,,,05,007,2022-09-23_14h40.16.066,test2,2022.2.4,59.89105362140533,
0,0,0,0,14,0,14,0,176.70076746799896,176.70076746799896,176.70076746799896,176.70076746799896,176.70076746799896,176.70076746799896,176.70076746799896,1,1,rojo,1,['N_A'],179.25406557299902,179.25406557299902,179.25406557299902,179.25406557299902,181.272320742999,181.272320742999,181.272320742999,181.272320742999,181.272320742999,181.272320742999,181.272320742999,181.272320742999,183.30792664399996,183.30792664399996,183.30792664399996,183.30792664399996,,,,,,,,,,,,,,,,,,,,,,,,,,,,,,,,,,,,,,,05,007,2022-09-23_14h40.16.066,test2,2022.2.4,59.89105362140533,
0,0,0,0,15,0,15,0,183.30792664399996,183.30792664399996,183.30792664399996,183.30792664399996,183.30792664399996,183.30792664399996,183.30792664399996,-1,1,azul,1,['N_A'],185.02614799100047,185.02614799100047,185.02614799100047,185.02614799100047,187.0452034509999,187.0452034509999,187.0452034509999,187.0452034509999,187.0452034509999,187.0452034509999,187.0452034509999,187.0452034509999,189.08072085700041,189.08072085700041,189.08072085700041,189.08072085700041,,,,,,,,,,,,,,,,,,,,,,,,,,,,,,,,,,,,,,,05,007,2022-09-23_14h40.16.066,test2,2022.2.4,59.89105362140533,
0,0,0,0,16,0,16,0,189.08072085700041,189.08072085700041,189.08072085700041,189.08072085700041,189.08072085700041,189.08072085700041,189.08072085700041,1,1,rojo,0,['N_B'],191.33335143600016,191.33335143600016,191.33335143600016,191.33335143600016,193.36951832399973,193.36951832399973,193.36951832399973,193.36951832399973,193.36951832399973,193.36951832399973,193.36951832399973,193.36951832399973,195.40507862199956,195.40507862199956,195.40507862199956,195.40507862199956,,,,,,,,,,,,,,,,,,,,,,,,,,,,,,,,,,,,,,,05,007,2022-09-23_14h40.16.066,test2,2022.2.4,59.89105362140533,
0,0,0,0,17,0,17,0,195.40507862199956,195.40507862199956,195.40507862199956,195.40507862199956,195.40507862199956,195.40507862199956,195.40507862199956,-1,-1,rojo,1,['N_B'],198.79159604199958,198.79159604199958,198.79159604199958,198.79159604199958,200.82770082800016,200.82770082800016,200.82770082800016,200.82770082800016,200.82770082800016,200.82770082800016,200.82770082800016,200.82770082800016,202.86302088199955,202.86302088199955,202.86302088199955,202.86302088199955,,,,,,,,,,,,,,,,,,,,,,,,,,,,,,,,,,,,,,,05,007,2022-09-23_14h40.16.066,test2,2022.2.4,59.89105362140533,
0,0,0,0,18,0,18,0,202.86302088199955,202.86302088199955,202.86302088199955,202.86302088199955,202.86302088199955,202.86302088199955,202.86302088199955,-1,-1,rojo,0,['N_A'],205.4660527420001,205.4660527420001,205.4660527420001,205.4660527420001,207.50175633099934,207.50175633099934,207.50175633099934,207.50175633099934,207.50175633099934,207.50175633099934,207.50175633099934,207.50175633099934,209.5371387719988,209.5371387719988,209.5371387719988,209.5371387719988,,,,,,,,,,,,,,,,,,,,,,,,,,,,,,,,,,,,,,,05,007,2022-09-23_14h40.16.066,test2,2022.2.4,59.89105362140533,
0,0,0,0,19,0,19,0,209.5371387719988,209.5371387719988,209.5371387719988,209.5371387719988,209.5371387719988,209.5371387719988,209.5371387719988,1,-1,rojo,0,['N_B'],212.02326300099958,212.02326300099958,212.02326300099958,212.02326300099958,214.0583591909999,214.0583591909999,214.0583591909999,214.0583591909999,214.0583591909999,214.0583591909999,214.0583591909999,214.0583591909999,216.09463633499945,216.09463633499945,216.09463633499945,216.09463633499945,,,,,,,,,,,,,,,,,,,,,,,,,,,,,,,,,,,,,,,05,007,2022-09-23_14h40.16.066,test2,2022.2.4,59.89105362140533,
0,0,0,0,20,0,20,0,216.09463633499945,216.09463633499945,216.09463633499945,216.09463633499945,216.09463633499945,216.09463633499945,216.09463633499945,1,1,azul,1,['N_B'],217.61233873699894,217.61233873699894,217.61233873699894,217.61233873699894,219.64809858300032,219.64809858300032,219.64809858300032,219.64809858300032,219.64809858300032,219.64809858300032,219.64809858300032,219.64809858300032,221.68321144000038,221.68321144000038,221.68321144000038,221.68321144000038,,,,,,,,,,,,,,,,,,,,,,,,,,,,,,,,,,,,,,,05,007,2022-09-23_14h40.16.066,test2,2022.2.4,59.89105362140533,
0,0,0,0,21,0,21,0,221.68321144000038,221.68321144000038,221.68321144000038,221.68321144000038,221.68321144000038,221.68321144000038,221.68321144000038,1,-1,azul,0,['N_A'],228.94208447299934,228.94208447299934,228.94208447299934,228.94208447299934,230.97695193099935,230.97695193099935,230.97695193099935,230.97695193099935,230.97695193099935,230.97695193099935,230.97695193099935,230.97695193099935,233.01335318900055,233.01335318900055,233.01335318900055,233.01335318900055,,,,,,,,,,,,,,,,,,,,,,,,,,,,,,,,,,,,,,,05,007,2022-09-23_14h40.16.066,test2,2022.2.4,59.89105362140533,
0,0,0,0,22,0,22,0,233.01335318900055,233.01335318900055,233.01335318900055,233.01335318900055,233.01335318900055,233.01335318900055,233.01335318900055,1,-1,rojo,1,['N_A'],234.66501305199927,234.66501305199927,234.66501305199927,234.66501305199927,236.70009847099936,236.70009847099936,236.70009847099936,236.70009847099936,236.70009847099936,236.70009847099936,236.70009847099936,236.70009847099936,238.73540126099942,238.73540126099942,238.73540126099942,238.73540126099942,,,,,,,,,,,,,,,,,,,,,,,,,,,,,,,,,,,,,,,05,007,2022-09-23_14h40.16.066,test2,2022.2.4,59.89105362140533,
0,0,0,0,23,0,23,0,238.73540126099942,238.73540126099942,238.73540126099942,238.73540126099942,238.73540126099942,238.73540126099942,238.73540126099942,-1,-1,azul,0,['N_B'],240.68834391499877,240.68834391499877,240.68834391499877,240.68834391499877,242.72433412300052,242.72433412300052,242.72433412300052,242.72433412300052,242.72433412300052,242.72433412300052,242.72433412300052,242.72433412300052,244.7589298719995,244.7589298719995,244.7589298719995,244.7589298719995,,,,,,,,,,,,,,,,,,,,,,,,,,,,,,,,,,,,,,,05,007,2022-09-23_14h40.16.066,test2,2022.2.4,59.89105362140533,
0,0,0,0,24,0,24,0,244.7589298719995,244.7589298719995,244.7589298719995,244.7589298719995,244.7589298719995,244.7589298719995,244.7589298719995,1,-1,azul,0,['N_A'],246.47798505199898,246.47798505199898,246.47798505199898,246.47798505199898,248.5143100610003,248.5143100610003,248.5143100610003,248.5143100610003,248.5143100610003,248.5143100610003,248.5143100610003,248.5143100610003,250.54862162099926,250.54862162099926,250.54862162099926,250.54862162099926,,,,,,,,,,,,,,,,,,,,,,,,,,,,,,,,,,,,,,,05,007,2022-09-23_14h40.16.066,test2,2022.2.4,59.89105362140533,
0,0,0,0,25,0,25,0,250.54862162099926,250.54862162099926,250.54862162099926,250.54862162099926,250.54862162099926,250.54862162099926,250.54862162099926,1,-1,rojo,0,['N_B'],252.78426233999926,252.78426233999926,252.78426233999926,252.78426233999926,254.82004094100012,254.82004094100012,254.82004094100012,254.82004094100012,254.82004094100012,254.82004094100012,254.82004094100012,254.82004094100012,256.856227242999,256.856227242999,256.856227242999,256.856227242999,,,,,,,,,,,,,,,,,,,,,,,,,,,,,,,,,,,,,,,05,007,2022-09-23_14h40.16.066,test2,2022.2.4,59.89105362140533,
0,0,0,0,26,0,26,0,256.856227242999,256.856227242999,256.856227242999,256.856227242999,256.856227242999,256.856227242999,256.856227242999,-1,-1,rojo,0,['N_A'],258.94171689999894,258.94171689999894,258.94171689999894,258.94171689999894,260.9771059149989,260.9771059149989,260.9771059149989,260.9771059149989,260.9771059149989,260.9771059149989,260.9771059149989,260.9771059149989,263.01294815799884,263.01294815799884,263.01294815799884,263.01294815799884,,,,,,,,,,,,,,,,,,,,,,,,,,,,,,,,,,,,,,,05,007,2022-09-23_14h40.16.066,test2,2022.2.4,59.89105362140533,
0,0,0,0,27,0,27,0,263.01294815799884,263.01294815799884,263.01294815799884,263.01294815799884,263.01294815799884,263.01294815799884,263.01294815799884,-1,-1,azul,1,['N_A'],269.10232464900037,269.10232464900037,269.10232464900037,269.10232464900037,271.13837793399944,271.13837793399944,271.13837793399944,271.13837793399944,271.13837793399944,271.13837793399944,271.13837793399944,271.13837793399944,273.17447560300025,273.17447560300025,273.17447560300025,273.17447560300025,,,,,,,,,,,,,,,,,,,,,,,,,,,,,,,,,,,,,,,05,007,2022-09-23_14h40.16.066,test2,2022.2.4,59.89105362140533,
0,0,0,0,28,0,28,0,273.17447560300025,273.17447560300025,273.17447560300025,273.17447560300025,273.17447560300025,273.17447560300025,273.17447560300025,1,-1,rojo,0,['N_B'],275.4263008329999,275.4263008329999,275.4263008329999,275.4263008329999,277.46188777600037,277.46188777600037,277.46188777600037,277.46188777600037,277.46188777600037,277.46188777600037,277.46188777600037,277.46188777600037,279.49703367499933,279.49703367499933,279.49703367499933,279.49703367499933,,,,,,,,,,,,,,,,,,,,,,,,,,,,,,,,,,,,,,,05,007,2022-09-23_14h40.16.066,test2,2022.2.4,59.89105362140533,
0,0,0,0,29,0,29,0,279.49703367499933,279.49703367499933,279.49703367499933,279.49703367499933,279.49703367499933,279.49703367499933,279.49703367499933,1,1,azul,0,['N_A'],282.6848499209991,282.6848499209991,282.6848499209991,282.6848499209991,284.7027742449991,284.7027742449991,284.7027742449991,284.7027742449991,284.7027742449991,284.7027742449991,284.7027742449991,284.7027742449991,286.7385238730003,286.7385238730003,286.7385238730003,286.7385238730003,,,,,,,,,,,,,,,,,,,,,,,,,,,,,,,,,,,,,,,05,007,2022-09-23_14h40.16.066,test2,2022.2.4,59.89105362140533,
0,0,0,0,30,0,30,0,286.7385238730003,286.7385238730003,286.7385238730003,286.7385238730003,286.7385238730003,286.7385238730003,286.7385238730003,-1,1,azul,1,['N_A'],288.4912789259997,288.4912789259997,288.4912789259997,288.4912789259997,290.5265185829994,290.5265185829994,290.5265185829994,290.5265185829994,290.5265185829994,290.5265185829994,290.5265185829994,290.5265185829994,292.56198520699945,292.56198520699945,292.56198520699945,292.56198520699945,,,,,,,,,,,,,,,,,,,,,,,,,,,,,,,,,,,,,,,05,007,2022-09-23_14h40.16.066,test2,2022.2.4,59.89105362140533,
0,0,0,0,31,0,31,0,292.56198520699945,292.56198520699945,292.56198520699945,292.56198520699945,292.56198520699945,292.56198520699945,292.56198520699945,1,-1,rojo,0,['N_B'],294.59722408199923,294.59722408199923,294.59722408199923,294.59722408199923,296.6333343389997,296.6333343389997,296.6333343389997,296.6333343389997,296.6333343389997,296.6333343389997,296.6333343389997,296.6333343389997,298.6686191560002,298.6686191560002,298.6686191560002,298.6686191560002,,,,,,,,,,,,,,,,,,,,,,,,,,,,,,,,,,,,,,,05,007,2022-09-23_14h40.16.066,test2,2022.2.4,59.89105362140533,
0,0,0,0,32,0,32,0,298.6686191560002,298.6686191560002,298.6686191560002,298.6686191560002,298.6686191560002,298.6686191560002,298.6686191560002,1,-1,azul,0,['N_A'],300.72093397499884,300.72093397499884,300.72093397499884,300.72093397499884,302.757303589,302.757303589,302.757303589,302.757303589,302.757303589,302.757303589,302.757303589,302.757303589,304.79214544800016,304.79214544800016,304.79214544800016,304.79214544800016,,,,,,,,,,,,,,,,,,,,,,,,,,,,,,,,,,,,,,,05,007,2022-09-23_14h40.16.066,test2,2022.2.4,59.89105362140533,
0,0,0,0,33,0,33,0,304.79214544800016,304.79214544800016,304.79214544800016,304.79214544800016,304.79214544800016,304.79214544800016,304.79214544800016,-1,1,azul,1,['N_A'],306.72833454600004,306.72833454600004,306.72833454600004,306.72833454600004,308.7466946209988,308.7466946209988,308.7466946209988,308.7466946209988,308.7466946209988,308.7466946209988,308.7466946209988,308.7466946209988,310.782436558,310.782436558,310.782436558,310.782436558,,,,,,,,,,,,,,,,,,,,,,,,,,,,,,,,,,,,,,,05,007,2022-09-23_14h40.16.066,test2,2022.2.4,59.89105362140533,
0,0,0,0,34,0,34,0,310.782436558,310.782436558,310.782436558,310.782436558,310.782436558,310.782436558,310.782436558,1,1,rojo,1,['N_A'],313.3345711410002,313.3345711410002,313.3345711410002,313.3345711410002,315.3535034809993,315.3535034809993,315.3535034809993,315.3535034809993,315.3535034809993,315.3535034809993,315.3535034809993,315.3535034809993,317.3892056519999,317.3892056519999,317.3892056519999,317.3892056519999,,,,,,,,,,,,,,,,,,,,,,,,,,,,,,,,,,,,,,,05,007,2022-09-23_14h40.16.066,test2,2022.2.4,59.89105362140533,
0,0,0,0,35,0,35,0,317.3892056519999,317.3892056519999,317.3892056519999,317.3892056519999,317.3892056519999,317.3892056519999,317.3892056519999,-1,1,azul,1,['N_A'],319.50782369099943,319.50782369099943,319.50782369099943,319.50782369099943,321.54396991499925,321.54396991499925,321.54396991499925,321.54396991499925,321.54396991499925,321.54396991499925,321.54396991499925,321.54396991499925,323.5792458060005,323.5792458060005,323.5792458060005,323.5792458060005,,,,,,,,,,,,,,,,,,,,,,,,,,,,,,,,,,,,,,,05,007,2022-09-23_14h40.16.066,test2,2022.2.4,59.89105362140533,
0,0,0,0,36,0,36,0,323.5792458060005,323.5792458060005,323.5792458060005,323.5792458060005,323.5792458060005,323.5792458060005,323.5792458060005,1,-1,rojo,0,['N_B'],325.61519367799883,325.61519367799883,325.61519367799883,325.61519367799883,327.6507010059995,327.6507010059995,327.6507010059995,327.6507010059995,327.6507010059995,327.6507010059995,327.6507010059995,327.6507010059995,329.6865361170003,329.6865361170003,329.6865361170003,329.6865361170003,,,,,,,,,,,,,,,,,,,,,,,,,,,,,,,,,,,,,,,05,007,2022-09-23_14h40.16.066,test2,2022.2.4,59.89105362140533,
0,0,0,0,37,0,37,0,329.6865361170003,329.6865361170003,329.6865361170003,329.6865361170003,329.6865361170003,329.6865361170003,329.6865361170003,-1,-1,rojo,0,['N_A'],332.0717993870003,332.0717993870003,332.0717993870003,332.0717993870003,334.1075453149988,334.1075453149988,334.1075453149988,334.1075453149988,334.1075453149988,334.1075453149988,334.1075453149988,334.1075453149988,336.1428488239999,336.1428488239999,336.1428488239999,336.1428488239999,,,,,,,,,,,,,,,,,,,,,,,,,,,,,,,,,,,,,,,05,007,2022-09-23_14h40.16.066,test2,2022.2.4,59.89105362140533,
0,0,0,0,38,0,38,0,336.1428488239999,336.1428488239999,336.1428488239999,336.1428488239999,336.1428488239999,336.1428488239999,336.1428488239999,1,1,rojo,1,['N_A'],338.3792480709999,338.3792480709999,338.3792480709999,338.3792480709999,340.4154049179997,340.4154049179997,340.4154049179997,340.4154049179997,340.4154049179997,340.4154049179997,340.4154049179997,340.4154049179997,342.4500148349998,342.4500148349998,342.4500148349998,342.4500148349998,,,,,,,,,,,,,,,,,,,,,,,,,,,,,,,,,,,,,,,05,007,2022-09-23_14h40.16.066,test2,2022.2.4,59.89105362140533,
0,0,0,0,39,0,39,0,342.4500148349998,342.4500148349998,342.4500148349998,342.4500148349998,342.4500148349998,342.4500148349998,342.4500148349998,1,-1,rojo,0,['N_B'],344.20266690099925,344.20266690099925,344.20266690099925,344.20266690099925,346.23800925199976,346.23800925199976,346.23800925199976,346.23800925199976,346.23800925199976,346.23800925199976,346.23800925199976,346.23800925199976,348.27351514899965,348.27351514899965,348.27351514899965,348.27351514899965,,,,,,,,,,,,,,,,,,,,,,,,,,,,,,,,,,,,,,,05,007,2022-09-23_14h40.16.066,test2,2022.2.4,59.89105362140533,
0,0,0,0,40,0,40,0,348.27351514899965,348.27351514899965,348.27351514899965,348.27351514899965,348.27351514899965,348.27351514899965,348.27351514899965,1,1,azul,1,['N_B'],349.87571815999945,349.87571815999945,349.87571815999945,349.87571815999945,351.9110134099992,351.9110134099992,351.9110134099992,351.9110134099992,351.9110134099992,351.9110134099992,351.9110134099992,351.9110134099992,353.94690301399896,353.94690301399896,353.94690301399896,353.94690301399896,,,,,,,,,,,,,,,,,,,,,,,,,,,,,,,,,,,,,,,05,007,2022-09-23_14h40.16.066,test2,2022.2.4,59.89105362140533,
0,0,0,0,41,0,41,0,353.94690301399896,353.94690301399896,353.94690301399896,353.94690301399896,353.94690301399896,353.94690301399896,353.94690301399896,-1,-1,rojo,0,['N_A'],356.26535389699893,356.26535389699893,356.26535389699893,356.26535389699893,358.3009565659995,358.3009565659995,358.3009565659995,358.3009565659995,358.3009565659995,358.3009565659995,358.3009565659995,358.3009565659995,360.3369051699992,360.3369051699992,360.3369051699992,360.3369051699992,,,,,,,,,,,,,,,,,,,,,,,,,,,,,,,,,,,,,,,05,007,2022-09-23_14h40.16.066,test2,2022.2.4,59.89105362140533,
0,0,0,0,42,0,42,0,360.3369051699992,360.3369051699992,360.3369051699992,360.3369051699992,360.3369051699992,360.3369051699992,360.3369051699992,1,-1,rojo,0,['N_B'],362.1553698529988,362.1553698529988,362.1553698529988,362.1553698529988,364.1913973899991,364.1913973899991,364.1913973899991,364.1913973899991,364.1913973899991,364.1913973899991,364.1913973899991,364.1913973899991,366.22601315799875,366.22601315799875,366.22601315799875,366.22601315799875,,,,,,,,,,,,,,,,,,,,,,,,,,,,,,,,,,,,,,,05,007,2022-09-23_14h40.16.066,test2,2022.2.4,59.89105362140533,
0,0,0,0,43,0,43,0,366.22601315799875,366.22601315799875,366.22601315799875,366.22601315799875,366.22601315799875,366.22601315799875,366.22601315799875,1,1,azul,1,['N_B'],367.76177697599996,367.76177697599996,367.76177697599996,367.76177697599996,369.7795012679999,369.7795012679999,369.7795012679999,369.7795012679999,369.7795012679999,369.7795012679999,369.7795012679999,369.7795012679999,371.8158038239999,371.8158038239999,371.8158038239999,371.8158038239999,,,,,,,,,,,,,,,,,,,,,,,,,,,,,,,,,,,,,,,05,007,2022-09-23_14h40.16.066,test2,2022.2.4,59.89105362140533,
0,0,0,0,44,0,44,0,371.8158038239999,371.8158038239999,371.8158038239999,371.8158038239999,371.8158038239999,371.8158038239999,371.8158038239999,1,1,azul,1,['N_B'],373.3346520209998,373.3346520209998,373.3346520209998,373.3346520209998,375.37062076300026,375.37062076300026,375.37062076300026,375.37062076300026,375.37062076300026,375.37062076300026,375.37062076300026,375.37062076300026,377.4061021519992,377.4061021519992,377.4061021519992,377.4061021519992,,,,,,,,,,,,,,,,,,,,,,,,,,,,,,,,,,,,,,,05,007,2022-09-23_14h40.16.066,test2,2022.2.4,59.89105362140533,
0,0,0,0,45,0,45,0,377.4061021519992,377.4061021519992,377.4061021519992,377.4061021519992,377.4061021519992,377.4061021519992,377.4061021519992,-1,-1,rojo,0,['N_A'],379.35741521099953,379.35741521099953,379.35741521099953,379.35741521099953,381.3937024169991,381.3937024169991,381.3937024169991,381.3937024169991,381.3937024169991,381.3937024169991,381.3937024169991,381.3937024169991,383.42923279299976,383.42923279299976,383.42923279299976,383.42923279299976,,,,,,,,,,,,,,,,,,,,,,,,,,,,,,,,,,,,,,,05,007,2022-09-23_14h40.16.066,test2,2022.2.4,59.89105362140533,
0,0,0,0,46,0,46,0,383.42923279299976,383.42923279299976,383.42923279299976,383.42923279299976,383.42923279299976,383.42923279299976,383.42923279299976,1,1,rojo,1,['N_A'],385.3481198829995,385.3481198829995,385.3481198829995,385.3481198829995,387.3832650229997,387.3832650229997,387.3832650229997,387.3832650229997,387.3832650229997,387.3832650229997,387.3832650229997,387.3832650229997,389.4181931419989,389.4181931419989,389.4181931419989,389.4181931419989,,,,,,,,,,,,,,,,,,,,,,,,,,,,,,,,,,,,,,,05,007,2022-09-23_14h40.16.066,test2,2022.2.4,59.89105362140533,
0,0,0,0,47,0,47,0,389.4181931419989,389.4181931419989,389.4181931419989,389.4181931419989,389.4181931419989,389.4181931419989,389.4181931419989,1,-1,rojo,0,['N_B'],390.9039945200002,390.9039945200002,390.9039945200002,390.9039945200002,392.9390673130001,392.9390673130001,392.9390673130001,392.9390673130001,392.9390673130001,392.9390673130001,392.9390673130001,392.9390673130001,394.97502038699895,394.97502038699895,394.97502038699895,394.97502038699895,,,,,,,,,,,,,,,,,,,,,,,,,,,,,,,,,,,,,,,05,007,2022-09-23_14h40.16.066,test2,2022.2.4,59.89105362140533,
0,0,0,0,48,0,48,0,394.97502038699895,394.97502038699895,394.97502038699895,394.97502038699895,394.97502038699895,394.97502038699895,394.97502038699895,1,1,azul,1,['N_B'],396.4931597729992,396.4931597729992,396.4931597729992,396.4931597729992,398.5111962259998,398.5111962259998,398.5111962259998,398.5111962259998,398.5111962259998,398.5111962259998,398.5111962259998,398.5111962259998,400.54745141199965,400.54745141199965,400.54745141199965,400.54745141199965,,,,,,,,,,,,,,,,,,,,,,,,,,,,,,,,,,,,,,,05,007,2022-09-23_14h40.16.066,test2,2022.2.4,59.89105362140533,
0,0,0,0,49,0,49,0,400.54745141199965,400.54745141199965,400.54745141199965,400.54745141199965,400.54745141199965,400.54745141199965,400.54745141199965,1,1,azul,0,['N_A'],403.734661176999,403.734661176999,403.734661176999,403.734661176999,405.7532621440005,405.7532621440005,405.7532621440005,405.7532621440005,405.7532621440005,405.7532621440005,405.7532621440005,405.7532621440005,407.7889451930005,407.7889451930005,407.7889451930005,407.7889451930005,,,,,,,,,,,,,,,,,,,,,,,,,,,,,,,,,,,,,,,05,007,2022-09-23_14h40.16.066,test2,2022.2.4,59.89105362140533,
0,0,0,0,50,0,50,0,407.7889451930005,407.7889451930005,407.7889451930005,407.7889451930005,407.7889451930005,407.7889451930005,407.7889451930005,-1,1,azul,1,['N_A'],414.11213180899904,414.11213180899904,414.11213180899904,414.11213180899904,416.1307944429991,416.1307944429991,416.1307944429991,416.1307944429991,416.1307944429991,416.1307944429991,416.1307944429991,416.1307944429991,418.16725649399996,418.16725649399996,418.16725649399996,418.16725649399996,,,,,,,,,,,,,,,,,,,,,,,,,,,,,,,,,,,,,,,05,007,2022-09-23_14h40.16.066,test2,2022.2.4,59.89105362140533,
0,0,0,0,51,0,51,0,418.16725649399996,418.16725649399996,418.16725649399996,418.16725649399996,418.16725649399996,418.16725649399996,418.16725649399996,-1,1,azul,0,['N_B'],421.1540459129992,421.1540459129992,421.1540459129992,421.1540459129992,423.17150747099913,423.17150747099913,423.17150747099913,423.17150747099913,423.17150747099913,423.17150747099913,423.17150747099913,423.17150747099913,425.2086024370001,425.2086024370001,425.2086024370001,425.2086024370001,,,,,,,,,,,,,,,,,,,,,,,,,,,,,,,,,,,,,,,05,007,2022-09-23_14h40.16.066,test2,2022.2.4,59.89105362140533,
0,0,0,0,52,0,52,0,425.2086024370001,425.2086024370001,425.2086024370001,425.2086024370001,425.2086024370001,425.2086024370001,425.2086024370001,1,1,azul,1,['N_B'],427.1605238939992,427.1605238939992,427.1605238939992,427.1605238939992,429.17912524999883,429.17912524999883,429.17912524999883,429.17912524999883,429.17912524999883,429.17912524999883,429.17912524999883,429.17912524999883,431.2150082549997,431.2150082549997,431.2150082549997,431.2150082549997,,,,,,,,,,,,,,,,,,,,,,,,,,,,,,,,,,,,,,,05,007,2022-09-23_14h40.16.066,test2,2022.2.4,59.89105362140533,
0,0,0,0,53,0,53,0,431.2150082549997,431.2150082549997,431.2150082549997,431.2150082549997,431.2150082549997,431.2150082549997,431.2150082549997,-1,1,rojo,0,['N_A'],433.1331513169989,433.1331513169989,433.1331513169989,433.1331513169989,435.1692693469995,435.1692693469995,435.1692693469995,435.1692693469995,435.1692693469995,435.1692693469995,435.1692693469995,435.1692693469995,437.20548762199905,437.20548762199905,437.20548762199905,437.20548762199905,,,,,,,,,,,,,,,,,,,,,,,,,,,,,,,,,,,,,,,05,007,2022-09-23_14h40.16.066,test2,2022.2.4,59.89105362140533,
0,0,0,0,54,0,54,0,437.20548762199905,437.20548762199905,437.20548762199905,437.20548762199905,437.20548762199905,437.20548762199905,437.20548762199905,1,-1,rojo,0,['N_B'],439.52434662799897,439.52434662799897,439.52434662799897,439.52434662799897,441.5590909499988,441.5590909499988,441.5590909499988,441.5590909499988,441.5590909499988,441.5590909499988,441.5590909499988,441.5590909499988,443.5956289429996,443.5956289429996,443.5956289429996,443.5956289429996,,,,,,,,,,,,,,,,,,,,,,,,,,,,,,,,,,,,,,,05,007,2022-09-23_14h40.16.066,test2,2022.2.4,59.89105362140533,
0,0,0,0,55,0,55,0,443.5956289429996,443.5956289429996,443.5956289429996,443.5956289429996,443.5956289429996,443.5956289429996,443.5956289429996,1,1,azul,1,['N_B'],445.230840283999,445.230840283999,445.230840283999,445.230840283999,447.24860660500053,447.24860660500053,447.24860660500053,447.24860660500053,447.24860660500053,447.24860660500053,447.24860660500053,447.24860660500053,449.28497422299915,449.28497422299915,449.28497422299915,449.28497422299915,,,,,,,,,,,,,,,,,,,,,,,,,,,,,,,,,,,,,,,05,007,2022-09-23_14h40.16.066,test2,2022.2.4,59.89105362140533,
0,0,0,0,56,0,56,0,449.28497422299915,449.28497422299915,449.28497422299915,449.28497422299915,449.28497422299915,449.28497422299915,449.28497422299915,1,1,azul,1,['N_B'],450.83664904599937,450.83664904599937,450.83664904599937,450.83664904599937,452.85444850099884,452.85444850099884,452.85444850099884,452.85444850099884,452.85444850099884,452.85444850099884,452.85444850099884,452.85444850099884,454.89057709999906,454.89057709999906,454.89057709999906,454.89057709999906,,,,,,,,,,,,,,,,,,,,,,,,,,,,,,,,,,,,,,,05,007,2022-09-23_14h40.16.066,test2,2022.2.4,59.89105362140533,
0,0,0,0,57,0,57,0,454.89057709999906,454.89057709999906,454.89057709999906,454.89057709999906,454.89057709999906,454.89057709999906,454.89057709999906,1,1,azul,1,['N_B'],456.8761379919997,456.8761379919997,456.8761379919997,456.8761379919997,458.9120851869993,458.9120851869993,458.9120851869993,458.9120851869993,458.9120851869993,458.9120851869993,458.9120851869993,458.9120851869993,460.94755750900003,460.94755750900003,460.94755750900003,460.94755750900003,,,,,,,,,,,,,,,,,,,,,,,,,,,,,,,,,,,,,,,05,007,2022-09-23_14h40.16.066,test2,2022.2.4,59.89105362140533,
0,0,0,0,58,0,58,0,460.94755750900003,460.94755750900003,460.94755750900003,460.94755750900003,460.94755750900003,460.94755750900003,460.94755750900003,1,-1,azul,0,['N_A'],463.26707456700024,463.26707456700024,463.26707456700024,463.26707456700024,465.30265131099986,465.30265131099986,465.30265131099986,465.30265131099986,465.30265131099986,465.30265131099986,465.30265131099986,465.30265131099986,467.33772472499913,467.33772472499913,467.33772472499913,467.33772472499913,,,,,,,,,,,,,,,,,,,,,,,,,,,,,,,,,,,,,,,05,007,2022-09-23_14h40.16.066,test2,2022.2.4,59.89105362140533,
0,0,0,0,59,0,59,0,467.33772472499913,467.33772472499913,467.33772472499913,467.33772472499913,467.33772472499913,467.33772472499913,467.33772472499913,1,-1,rojo,0,['N_B'],469.657013127,469.657013127,469.657013127,469.657013127,471.6932495429992,471.6932495429992,471.6932495429992,471.6932495429992,471.6932495429992,471.6932495429992,471.6932495429992,471.6932495429992,473.728452121999,473.728452121999,473.728452121999,473.728452121999,,,,,,,,,,,,,,,,,,,,,,,,,,,,,,,,,,,,,,,05,007,2022-09-23_14h40.16.066,test2,2022.2.4,59.89105362140533,
0,0,0,0,60,0,60,0,473.728452121999,473.728452121999,473.728452121999,473.728452121999,473.728452121999,473.728452121999,473.728452121999,-1,-1,rojo,0,['N_A'],475.9306147309999,475.9306147309999,475.9306147309999,475.9306147309999,477.9665667400004,477.9665667400004,477.9665667400004,477.9665667400004,477.9665667400004,477.9665667400004,477.9665667400004,477.9665667400004,480.00232189099916,480.00232189099916,480.00232189099916,480.00232189099916,,,,,,,,,,,,,,,,,,,,,,,,,,,,,,,,,,,,,,,05,007,2022-09-23_14h40.16.066,test2,2022.2.4,59.89105362140533,
0,0,0,0,61,0,61,0,480.00232189099916,480.00232189099916,480.00232189099916,480.00232189099916,480.00232189099916,480.00232189099916,480.00232189099916,-1,1,azul,1,['N_A'],481.7536945819993,481.7536945819993,481.7536945819993,481.7536945819993,483.78957347899996,483.78957347899996,483.78957347899996,483.78957347899996,483.78957347899996,483.78957347899996,483.78957347899996,483.78957347899996,485.8255806349989,485.8255806349989,485.8255806349989,485.8255806349989,,,,,,,,,,,,,,,,,,,,,,,,,,,,,,,,,,,,,,,05,007,2022-09-23_14h40.16.066,test2,2022.2.4,59.89105362140533,
0,0,0,0,62,0,62,0,485.8255806349989,485.8255806349989,485.8255806349989,485.8255806349989,485.8255806349989,485.8255806349989,485.8255806349989,1,-1,rojo,0,['N_B'],487.4103425029989,487.4103425029989,487.4103425029989,487.4103425029989,489.44630722299917,489.44630722299917,489.44630722299917,489.44630722299917,489.44630722299917,489.44630722299917,489.44630722299917,489.44630722299917,491.4816033039988,491.4816033039988,491.4816033039988,491.4816033039988,,,,,,,,,,,,,,,,,,,,,,,,,,,,,,,,,,,,,,,05,007,2022-09-23_14h40.16.066,test2,2022.2.4,59.89105362140533,
0,0,0,0,63,0,63,0,491.4816033039988,491.4816033039988,491.4816033039988,491.4816033039988,491.4816033039988,491.4816033039988,491.4816033039988,-1,1,rojo,0,['N_A'],495.36882181500005,495.36882181500005,495.36882181500005,495.36882181500005,497.4052355169988,497.4052355169988,497.4052355169988,497.4052355169988,497.4052355169988,497.4052355169988,497.4052355169988,497.4052355169988,499.4402839639988,499.4402839639988,499.4402839639988,499.4402839639988,,,,,,,,,,,,,,,,,,,,,,,,,,,,,,,,,,,,,,,05,007,2022-09-23_14h40.16.066,test2,2022.2.4,59.89105362140533,
0,0,0,0,64,0,64,0,499.4402839639988,499.4402839639988,499.4402839639988,499.4402839639988,499.4402839639988,499.4402839639988,499.4402839639988,1,-1,rojo,0,['N_B'],501.2255527239995,501.2255527239995,501.2255527239995,501.2255527239995,503.261255817999,503.261255817999,503.261255817999,503.261255817999,503.261255817999,503.261255817999,503.261255817999,503.261255817999,505.2970934490004,505.2970934490004,505.2970934490004,505.2970934490004,,,,,,,,,,,,,,,,,,,,,,,,,,,,,,,,,,,,,,,05,007,2022-09-23_14h40.16.066,test2,2022.2.4,59.89105362140533,
0,0,0,0,65,0,65,0,505.2970934490004,505.2970934490004,505.2970934490004,505.2970934490004,505.2970934490004,505.2970934490004,505.2970934490004,1,1,azul,1,['N_B'],511.4868349650005,511.4868349650005,511.4868349650005,511.4868349650005,513.522721542,513.522721542,513.522721542,513.522721542,513.522721542,513.522721542,513.522721542,513.522721542,515.557717063999,515.557717063999,515.557717063999,515.557717063999,,,,,,,,,,,,,,,,,,,,,,,,,,,,,,,,,,,,,,,05,007,2022-09-23_14h40.16.066,test2,2022.2.4,59.89105362140533,
0,0,0,0,66,0,66,0,515.557717063999,515.557717063999,515.557717063999,515.557717063999,515.557717063999,515.557717063999,515.557717063999,-1,-1,rojo,0,['N_A'],517.3429693719991,517.3429693719991,517.3429693719991,517.3429693719991,519.378729393,519.378729393,519.378729393,519.378729393,519.378729393,519.378729393,519.378729393,519.378729393,521.4139837139992,521.4139837139992,521.4139837139992,521.4139837139992,,,,,,,,,,,,,,,,,,,,,,,,,,,,,,,,,,,,,,,05,007,2022-09-23_14h40.16.066,test2,2022.2.4,59.89105362140533,
0,0,0,0,67,0,67,0,521.4139837139992,521.4139837139992,521.4139837139992,521.4139837139992,521.4139837139992,521.4139837139992,521.4139837139992,1,1,rojo,0,['N_B'],525.1018048959995,525.1018048959995,525.1018048959995,525.1018048959995,527.1194313209999,527.1194313209999,527.1194313209999,527.1194313209999,527.1194313209999,527.1194313209999,527.1194313209999,527.1194313209999,529.1565212109999,529.1565212109999,529.1565212109999,529.1565212109999,,,,,,,,,,,,,,,,,,,,,,,,,,,,,,,,,,,,,,,05,007,2022-09-23_14h40.16.066,test2,2022.2.4,59.89105362140533,
0,0,0,0,68,0,68,0,529.1565212109999,529.1565212109999,529.1565212109999,529.1565212109999,529.1565212109999,529.1565212109999,529.1565212109999,1,1,azul,0,['N_A'],531.5423071339992,531.5423071339992,531.5423071339992,531.5423071339992,533.5607667659988,533.5607667659988,533.5607667659988,533.5607667659988,533.5607667659988,533.5607667659988,533.5607667659988,533.5607667659988,535.5972666010002,535.5972666010002,535.5972666010002,535.5972666010002,,,,,,,,,,,,,,,,,,,,,,,,,,,,,,,,,,,,,,,05,007,2022-09-23_14h40.16.066,test2,2022.2.4,59.89105362140533,
0,0,0,0,69,0,69,0,535.5972666010002,535.5972666010002,535.5972666010002,535.5972666010002,535.5972666010002,535.5972666010002,535.5972666010002,-1,1,azul,0,['N_B'],537.848501466,537.848501466,537.848501466,537.848501466,539.8682040759995,539.8682040759995,539.8682040759995,539.8682040759995,539.8682040759995,539.8682040759995,539.8682040759995,539.8682040759995,541.9035798320001,541.9035798320001,541.9035798320001,541.9035798320001,,,,,,,,,,,,,,,,,,,,,,,,,,,,,,,,,,,,,,,05,007,2022-09-23_14h40.16.066,test2,2022.2.4,59.89105362140533,
0,0,0,0,70,0,70,0,541.9035798320001,541.9035798320001,541.9035798320001,541.9035798320001,541.9035798320001,541.9035798320001,541.9035798320001,1,1,azul,1,['N_B'],544.3228995529989,544.3228995529989,544.3228995529989,544.3228995529989,546.3585771569997,546.3585771569997,546.3585771569997,546.3585771569997,546.3585771569997,546.3585771569997,546.3585771569997,546.3585771569997,548.3941984630001,548.3941984630001,548.3941984630001,548.3941984630001,,,,,,,,,,,,,,,,,,,,,,,,,,,,,,,,,,,,,,,05,007,2022-09-23_14h40.16.066,test2,2022.2.4,59.89105362140533,
0,0,0,0,71,0,71,0,548.3941984630001,548.3941984630001,548.3941984630001,548.3941984630001,548.3941984630001,548.3941984630001,548.3941984630001,1,-1,azul,0,['N_A'],550.0793414669988,550.0793414669988,550.0793414669988,550.0793414669988,552.1156464409996,552.1156464409996,552.1156464409996,552.1156464409996,552.1156464409996,552.1156464409996,552.1156464409996,552.1156464409996,554.1506242489995,554.1506242489995,554.1506242489995,554.1506242489995,,,,,,,,,,,,,,,,,,,,,,,,,,,,,,,,,,,,,,,05,007,2022-09-23_14h40.16.066,test2,2022.2.4,59.89105362140533,
0,0,0,0,72,0,72,0,554.1506242489995,554.1506242489995,554.1506242489995,554.1506242489995,554.1506242489995,554.1506242489995,554.1506242489995,-1,1,azul,1,['N_A'],555.9189647959993,555.9189647959993,555.9189647959993,555.9189647959993,557.9553735749996,557.9553735749996,557.9553735749996,557.9553735749996,557.9553735749996,557.9553735749996,557.9553735749996,557.9553735749996,559.9900257070003,559.9900257070003,559.9900257070003,559.9900257070003,,,,,,,,,,,,,,,,,,,,,,,,,,,,,,,,,,,,,,,05,007,2022-09-23_14h40.16.066,test2,2022.2.4,59.89105362140533,
0,0,0,0,73,0,73,0,559.9900257070003,559.9900257070003,559.9900257070003,559.9900257070003,559.9900257070003,559.9900257070003,559.9900257070003,1,-1,rojo,0,['N_B'],561.5754775659989,561.5754775659989,561.5754775659989,561.5754775659989,563.6106451630003,563.6106451630003,563.6106451630003,563.6106451630003,563.6106451630003,563.6106451630003,563.6106451630003,563.6106451630003,565.6468325009992,565.6468325009992,565.6468325009992,565.6468325009992,,,,,,,,,,,,,,,,,,,,,,,,,,,,,,,,,,,,,,,05,007,2022-09-23_14h40.16.066,test2,2022.2.4,59.89105362140533,
0,0,0,0,74,0,74,0,565.6468325009992,565.6468325009992,565.6468325009992,565.6468325009992,565.6468325009992,565.6468325009992,565.6468325009992,-1,1,rojo,1,['N_B'],567.3651874169991,567.3651874169991,567.3651874169991,567.3651874169991,569.3840486429999,569.3840486429999,569.3840486429999,569.3840486429999,569.3840486429999,569.3840486429999,569.3840486429999,569.3840486429999,571.4199843389997,571.4199843389997,571.4199843389997,571.4199843389997,,,,,,,,,,,,,,,,,,,,,,,,,,,,,,,,,,,,,,,05,007,2022-09-23_14h40.16.066,test2,2022.2.4,59.89105362140533,
0,0,0,0,75,0,75,0,571.4199843389997,571.4199843389997,571.4199843389997,571.4199843389997,571.4199843389997,571.4199843389997,571.4199843389997,-1,1,rojo,0,['N_A'],574.2393747709993,574.2393747709993,574.2393747709993,574.2393747709993,576.2751900229996,576.2751900229996,576.2751900229996,576.2751900229996,576.2751900229996,576.2751900229996,576.2751900229996,576.2751900229996,578.3108360779988,578.3108360779988,578.3108360779988,578.3108360779988,,,,,,,,,,,,,,,,,,,,,,,,,,,,,,,,,,,,,,,05,007,2022-09-23_14h40.16.066,test2,2022.2.4,59.89105362140533,
0,0,0,0,76,0,76,0,578.3108360779988,578.3108360779988,578.3108360779988,578.3108360779988,578.3108360779988,578.3108360779988,578.3108360779988,1,-1,rojo,0,['N_B'],579.9629379910002,579.9629379910002,579.9629379910002,579.9629379910002,581.9977833089997,581.9977833089997,581.9977833089997,581.9977833089997,581.9977833089997,581.9977833089997,581.9977833089997,581.9977833089997,584.0337233699993,584.0337233699993,584.0337233699993,584.0337233699993,,,,,,,,,,,,,,,,,,,,,,,,,,,,,,,,,,,,,,,05,007,2022-09-23_14h40.16.066,test2,2022.2.4,59.89105362140533,
0,0,0,0,77,0,77,0,584.0337233699993,584.0337233699993,584.0337233699993,584.0337233699993,584.0337233699993,584.0337233699993,584.0337233699993,1,1,azul,0,['N_A'],587.5875309709991,587.5875309709991,587.5875309709991,587.5875309709991,589.606848940999,589.606848940999,589.606848940999,589.606848940999,589.606848940999,589.606848940999,589.606848940999,589.606848940999,591.6415144029997,591.6415144029997,591.6415144029997,591.6415144029997,,,,,,,,,,,,,,,,,,,,,,,,,,,,,,,,,,,,,,,05,007,2022-09-23_14h40.16.066,test2,2022.2.4,59.89105362140533,
0,0,0,0,78,0,78,0,591.6415144029997,591.6415144029997,591.6415144029997,591.6415144029997,591.6415144029997,591.6415144029997,591.6415144029997,-1,1,azul,0,['N_B'],595.062214911999,595.062214911999,595.062214911999,595.062214911999,597.0804557640004,597.0804557640004,597.0804557640004,597.0804557640004,597.0804557640004,597.0804557640004,597.0804557640004,597.0804557640004,599.1172389009989,599.1172389009989,599.1172389009989,599.1172389009989,,,,,,,,,,,,,,,,,,,,,,,,,,,,,,,,,,,,,,,05,007,2022-09-23_14h40.16.066,test2,2022.2.4,59.89105362140533,
0,0,0,0,79,0,79,0,599.1172389009989,599.1172389009989,599.1172389009989,599.1172389009989,599.1172389009989,599.1172389009989,599.1172389009989,1,1,azul,0,['N_A'],605.7574192880002,605.7574192880002,605.7574192880002,605.7574192880002,607.7935897379994,607.7935897379994,607.7935897379994,607.7935897379994,607.7935897379994,607.7935897379994,607.7935897379994,607.7935897379994,609.8288209589991,609.8288209589991,609.8288209589991,609.8288209589991,,,,,,,,,,,,,,,,,,,,,,,,,,,,,,,,,,,,,,,05,007,2022-09-23_14h40.16.066,test2,2022.2.4,59.89105362140533,
0,0,0,0,80,0,80,0,609.8288209589991,609.8288209589991,609.8288209589991,609.8288209589991,609.8288209589991,609.8288209589991,609.8288209589991,1,-1,rojo,0,['N_B'],612.4820238789998,612.4820238789998,612.4820238789998,612.4820238789998,614.5175469490005,614.5175469490005,614.5175469490005,614.5175469490005,614.5175469490005,614.5175469490005,614.5175469490005,614.5175469490005,616.5528744099993,616.5528744099993,616.5528744099993,616.5528744099993,,,,,,,,,,,,,,,,,,,,,,,,,,,,,,,,,,,,,,,05,007,2022-09-23_14h40.16.066,test2,2022.2.4,59.89105362140533,
0,0,0,0,81,0,81,0,616.5528744099993,616.5528744099993,616.5528744099993,616.5528744099993,616.5528744099993,616.5528744099993,616.5528744099993,1,1,azul,1,['N_B'],619.0388896299992,619.0388896299992,619.0388896299992,619.0388896299992,621.0744731239993,621.0744731239993,621.0744731239993,621.0744731239993,621.0744731239993,621.0744731239993,621.0744731239993,621.0744731239993,623.1102627870005,623.1102627870005,623.1102627870005,623.1102627870005,,,,,,,,,,,,,,,,,,,,,,,,,,,,,,,,,,,,,,,05,007,2022-09-23_14h40.16.066,test2,2022.2.4,59.89105362140533,
0,0,0,0,82,0,82,0,623.1102627870005,623.1102627870005,623.1102627870005,623.1102627870005,623.1102627870005,623.1102627870005,623.1102627870005,1,-1,azul,0,['N_A'],626.1304264270002,626.1304264270002,626.1304264270002,626.1304264270002,628.1653421339997,628.1653421339997,628.1653421339997,628.1653421339997,628.1653421339997,628.1653421339997,628.1653421339997,628.1653421339997,630.2014457469995,630.2014457469995,630.2014457469995,630.2014457469995,,,,,,,,,,,,,,,,,,,,,,,,,,,,,,,,,,,,,,,05,007,2022-09-23_14h40.16.066,test2,2022.2.4,59.89105362140533,
0,0,0,0,83,0,83,0,630.2014457469995,630.2014457469995,630.2014457469995,630.2014457469995,630.2014457469995,630.2014457469995,630.2014457469995,1,1,rojo,1,['N_A'],632.7538322420005,632.7538322420005,632.7538322420005,632.7538322420005,634.7723944609988,634.7723944609988,634.7723944609988,634.7723944609988,634.7723944609988,634.7723944609988,634.7723944609988,634.7723944609988,636.8079745630002,636.8079745630002,636.8079745630002,636.8079745630002,,,,,,,,,,,,,,,,,,,,,,,,,,,,,,,,,,,,,,,05,007,2022-09-23_14h40.16.066,test2,2022.2.4,59.89105362140533,
0,0,0,0,84,0,84,0,636.8079745630002,636.8079745630002,636.8079745630002,636.8079745630002,636.8079745630002,636.8079745630002,636.8079745630002,1,1,rojo,0,['N_B'],640.2290797610003,640.2290797610003,640.2290797610003,640.2290797610003,642.2466796480003,642.2466796480003,642.2466796480003,642.2466796480003,642.2466796480003,642.2466796480003,642.2466796480003,642.2466796480003,644.2836802519996,644.2836802519996,644.2836802519996,644.2836802519996,,,,,,,,,,,,,,,,,,,,,,,,,,,,,,,,,,,,,,,05,007,2022-09-23_14h40.16.066,test2,2022.2.4,59.89105362140533,
0,0,0,0,85,0,85,0,644.2836802519996,644.2836802519996,644.2836802519996,644.2836802519996,644.2836802519996,644.2836802519996,644.2836802519996,1,1,azul,1,['N_B'],645.7011317809993,645.7011317809993,645.7011317809993,645.7011317809993,647.7198552190002,647.7198552190002,647.7198552190002,647.7198552190002,647.7198552190002,647.7198552190002,647.7198552190002,647.7198552190002,649.7556657860005,649.7556657860005,649.7556657860005,649.7556657860005,,,,,,,,,,,,,,,,,,,,,,,,,,,,,,,,,,,,,,,05,007,2022-09-23_14h40.16.066,test2,2022.2.4,59.89105362140533,
0,0,0,0,86,0,86,0,649.7556657860005,649.7556657860005,649.7556657860005,649.7556657860005,649.7556657860005,649.7556657860005,649.7556657860005,1,1,azul,0,['N_A'],652.4093237910001,652.4093237910001,652.4093237910001,652.4093237910001,654.4441676179995,654.4441676179995,654.4441676179995,654.4441676179995,654.4441676179995,654.4441676179995,654.4441676179995,654.4441676179995,656.480185036,656.480185036,656.480185036,656.480185036,,,,,,,,,,,,,,,,,,,,,,,,,,,,,,,,,,,,,,,05,007,2022-09-23_14h40.16.066,test2,2022.2.4,59.89105362140533,
0,0,0,0,87,0,87,0,656.480185036,656.480185036,656.480185036,656.480185036,656.480185036,656.480185036,656.480185036,1,-1,rojo,0,['N_B'],657.8981896879995,657.8981896879995,657.8981896879995,657.8981896879995,659.9342700759989,659.9342700759989,659.9342700759989,659.9342700759989,659.9342700759989,659.9342700759989,659.9342700759989,659.9342700759989,661.969015360999,661.969015360999,661.969015360999,661.969015360999,,,,,,,,,,,,,,,,,,,,,,,,,,,,,,,,,,,,,,,05,007,2022-09-23_14h40.16.066,test2,2022.2.4,59.89105362140533,
0,0,0,0,88,0,88,0,661.969015360999,661.969015360999,661.969015360999,661.969015360999,661.969015360999,661.969015360999,661.969015360999,1,1,azul,1,['N_B'],663.5375062109997,663.5375062109997,663.5375062109997,663.5375062109997,665.5733974249997,665.5733974249997,665.5733974249997,665.5733974249997,665.5733974249997,665.5733974249997,665.5733974249997,665.5733974249997,667.6085674839996,667.6085674839996,667.6085674839996,667.6085674839996,,,,,,,,,,,,,,,,,,,,,,,,,,,,,,,,,,,,,,,05,007,2022-09-23_14h40.16.066,test2,2022.2.4,59.89105362140533,
0,0,0,0,89,0,89,0,667.6085674839996,667.6085674839996,667.6085674839996,667.6085674839996,667.6085674839996,667.6085674839996,667.6085674839996,1,-1,azul,0,['N_A'],670.0290613919988,670.0290613919988,670.0290613919988,670.0290613919988,672.0641704649988,672.0641704649988,672.0641704649988,672.0641704649988,672.0641704649988,672.0641704649988,672.0641704649988,672.0641704649988,674.099851727,674.099851727,674.099851727,674.099851727,,,,,,,,,,,,,,,,,,,,,,,,,,,,,,,,,,,,,,,05,007,2022-09-23_14h40.16.066,test2,2022.2.4,59.89105362140533,
0,0,0,0,90,0,90,0,674.099851727,674.099851727,674.099851727,674.099851727,674.099851727,674.099851727,674.099851727,-1,1,azul,1,['N_A'],676.2522458099993,676.2522458099993,676.2522458099993,676.2522458099993,678.2879798470003,678.2879798470003,678.2879798470003,678.2879798470003,678.2879798470003,678.2879798470003,678.2879798470003,678.2879798470003,680.3233097359989,680.3233097359989,680.3233097359989,680.3233097359989,,,,,,,,,,,,,,,,,,,,,,,,,,,,,,,,,,,,,,,05,007,2022-09-23_14h40.16.066,test2,2022.2.4,59.89105362140533,
0,0,0,0,91,0,91,0,680.3233097359989,680.3233097359989,680.3233097359989,680.3233097359989,680.3233097359989,680.3233097359989,680.3233097359989,1,-1,rojo,0,['N_B'],682.4418983430005,682.4418983430005,682.4418983430005,682.4418983430005,684.478397633,684.478397633,684.478397633,684.478397633,684.478397633,684.478397633,684.478397633,684.478397633,686.5135994829998,686.5135994829998,686.5135994829998,686.5135994829998,,,,,,,,,,,,,,,,,,,,,,,,,,,,,,,,,,,,,,,05,007,2022-09-23_14h40.16.066,test2,2022.2.4,59.89105362140533,
0,0,0,0,92,0,92,0,686.5135994829998,686.5135994829998,686.5135994829998,686.5135994829998,686.5135994829998,686.5135994829998,686.5135994829998,1,-1,azul,0,['N_A'],688.5659271200002,688.5659271200002,688.5659271200002,688.5659271200002,690.601176922999,690.601176922999,690.601176922999,690.601176922999,690.601176922999,690.601176922999,690.601176922999,690.601176922999,692.636300962,692.636300962,692.636300962,692.636300962,,,,,,,,,,,,,,,,,,,,,,,,,,,,,,,,,,,,,,,05,007,2022-09-23_14h40.16.066,test2,2022.2.4,59.89105362140533,
0,0,0,0,93,0,93,0,692.636300962,692.636300962,692.636300962,692.636300962,692.636300962,692.636300962,692.636300962,1,-1,rojo,0,['N_B'],694.155412832999,694.155412832999,694.155412832999,694.155412832999,696.1909172659998,696.1909172659998,696.1909172659998,696.1909172659998,696.1909172659998,696.1909172659998,696.1909172659998,696.1909172659998,698.2256862779996,698.2256862779996,698.2256862779996,698.2256862779996,,,,,,,,,,,,,,,,,,,,,,,,,,,,,,,,,,,,,,,05,007,2022-09-23_14h40.16.066,test2,2022.2.4,59.89105362140533,
0,0,0,0,94,0,94,0,698.2256862779996,698.2256862779996,698.2256862779996,698.2256862779996,698.2256862779996,698.2256862779996,698.2256862779996,1,1,azul,1,['N_B'],699.6446777419987,699.6446777419987,699.6446777419987,699.6446777419987,701.6630771130003,701.6630771130003,701.6630771130003,701.6630771130003,701.6630771130003,701.6630771130003,701.6630771130003,701.6630771130003,703.6988719259989,703.6988719259989,703.6988719259989,703.6988719259989,,,,,,,,,,,,,,,,,,,,,,,,,,,,,,,,,,,,,,,05,007,2022-09-23_14h40.16.066,test2,2022.2.4,59.89105362140533,
0,0,0,0,95,0,95,0,703.6988719259989,703.6988719259989,703.6988719259989,703.6988719259989,703.6988719259989,703.6988719259989,703.6988719259989,1,1,azul,1,['N_B'],705.2837048789988,705.2837048789988,705.2837048789988,705.2837048789988,707.302840372,707.302840372,707.302840372,707.302840372,707.302840372,707.302840372,707.302840372,707.302840372,709.338174425,709.338174425,709.338174425,709.338174425,,,,,,,,,,,,,,,,,,,,,,,,,,,,,,,,,,,,,,,05,007,2022-09-23_14h40.16.066,test2,2022.2.4,59.89105362140533,
0,0,0,0,96,0,96,0,709.338174425,709.338174425,709.338174425,709.338174425,709.338174425,709.338174425,709.338174425,1,1,azul,0,['N_A'],710.9901007939989,710.9901007939989,710.9901007939989,710.9901007939989,713.0263282340002,713.0263282340002,713.0263282340002,713.0263282340002,713.0263282340002,713.0263282340002,713.0263282340002,713.0263282340002,715.0615971440002,715.0615971440002,715.0615971440002,715.0615971440002,,,,,,,,,,,,,,,,,,,,,,,,,,,,,,,,,,,,,,,05,007,2022-09-23_14h40.16.066,test2,2022.2.4,59.89105362140533,
0,0,0,0,97,0,97,0,715.0615971440002,715.0615971440002,715.0615971440002,715.0615971440002,715.0615971440002,715.0615971440002,715.0615971440002,1,-1,rojo,0,['N_B'],716.6126771340005,716.6126771340005,716.6126771340005,716.6126771340005,718.648454148999,718.648454148999,718.648454148999,718.648454148999,718.648454148999,718.648454148999,718.648454148999,718.648454148999,720.6846558929992,720.6846558929992,720.6846558929992,720.6846558929992,,,,,,,,,,,,,,,,,,,,,,,,,,,,,,,,,,,,,,,05,007,2022-09-23_14h40.16.066,test2,2022.2.4,59.89105362140533,
0,0,0,0,98,0,98,0,720.6846558929992,720.6846558929992,720.6846558929992,720.6846558929992,720.6846558929992,720.6846558929992,720.6846558929992,1,1,azul,1,['N_B'],722.1358527359989,722.1358527359989,722.1358527359989,722.1358527359989,724.1545218339998,724.1545218339998,724.1545218339998,724.1545218339998,724.1545218339998,724.1545218339998,724.1545218339998,724.1545218339998,726.1900326979994,726.1900326979994,726.1900326979994,726.1900326979994,,,,,,,,,,,,,,,,,,,,,,,,,,,,,,,,,,,,,,,05,007,2022-09-23_14h40.16.066,test2,2022.2.4,59.89105362140533,
0,0,0,0,99,0,99,0,726.1900326979994,726.1900326979994,726.1900326979994,726.1900326979994,726.1900326979994,726.1900326979994,726.1900326979994,1,1,azul,1,['N_B'],727.8252505919991,727.8252505919991,727.8252505919991,727.8252505919991,729.8610098129993,729.8610098129993,729.8610098129993,729.8610098129993,729.8610098129993,729.8610098129993,729.8610098129993,729.8610098129993,731.8962503969997,731.8962503969997,731.8962503969997,731.8962503969997,,,,,,,,,,,,,,,,,,,,,,,,,,,,,,,,,,,,,,,05,007,2022-09-23_14h40.16.066,test2,2022.2.4,59.89105362140533,
0,0,0,0,100,0,100,0,731.8962503969997,731.8962503969997,731.8962503969997,731.8962503969997,731.8962503969997,731.8962503969997,731.8962503969997,1,-1,azul,0,['N_A'],733.881729880999,733.881729880999,733.881729880999,733.881729880999,735.917864473,735.917864473,735.917864473,735.917864473,735.917864473,735.917864473,735.917864473,735.917864473,737.9535782509993,737.9535782509993,737.9535782509993,737.9535782509993,,,,,,,,,,,,,,,,,,,,,,,,,,,,,,,,,,,,,,,05,007,2022-09-23_14h40.16.066,test2,2022.2.4,59.89105362140533,
0,0,0,0,101,0,101,0,737.9535782509993,737.9535782509993,737.9535782509993,737.9535782509993,737.9535782509993,737.9535782509993,737.9535782509993,-1,1,azul,1,['N_A'],739.4385046110001,739.4385046110001,739.4385046110001,739.4385046110001,741.4561762939993,741.4561762939993,741.4561762939993,741.4561762939993,741.4561762939993,741.4561762939993,741.4561762939993,741.4561762939993,743.4930744760004,743.4930744760004,743.4930744760004,743.4930744760004,,,,,,,,,,,,,,,,,,,,,,,,,,,,,,,,,,,,,,,05,007,2022-09-23_14h40.16.066,test2,2022.2.4,59.89105362140533,
0,0,0,0,102,0,102,0,743.4930744760004,743.4930744760004,743.4930744760004,743.4930744760004,743.4930744760004,743.4930744760004,743.4930744760004,1,1,rojo,1,['N_A'],745.1444787370001,745.1444787370001,745.1444787370001,745.1444787370001,747.1799929169993,747.1799929169993,747.1799929169993,747.1799929169993,747.1799929169993,747.1799929169993,747.1799929169993,747.1799929169993,749.215154780999,749.215154780999,749.215154780999,749.215154780999,,,,,,,,,,,,,,,,,,,,,,,,,,,,,,,,,,,,,,,05,007,2022-09-23_14h40.16.066,test2,2022.2.4,59.89105362140533,
0,0,0,0,103,0,103,0,749.215154780999,749.215154780999,749.215154780999,749.215154780999,749.215154780999,749.215154780999,749.215154780999,-1,-1,azul,0,['N_B'],750.7003568149994,750.7003568149994,750.7003568149994,750.7003568149994,752.7367812329994,752.7367812329994,752.7367812329994,752.7367812329994,752.7367812329994,752.7367812329994,752.7367812329994,752.7367812329994,754.7716684459992,754.7716684459992,754.7716684459992,754.7716684459992,,,,,,,,,,,,,,,,,,,,,,,,,,,,,,,,,,,,,,,05,007,2022-09-23_14h40.16.066,test2,2022.2.4,59.89105362140533,
0,0,0,0,104,0,104,0,754.7716684459992,754.7716684459992,754.7716684459992,754.7716684459992,754.7716684459992,754.7716684459992,754.7716684459992,-1,-1,rojo,0,['N_A'],757.5252097789999,757.5252097789999,757.5252097789999,757.5252097789999,759.560706626,759.560706626,759.560706626,759.560706626,759.560706626,759.560706626,759.560706626,759.560706626,761.5965664769992,761.5965664769992,761.5965664769992,761.5965664769992,,,,,,,,,,,,,,,,,,,,,,,,,,,,,,,,,,,,,,,05,007,2022-09-23_14h40.16.066,test2,2022.2.4,59.89105362140533,
0,0,0,0,105,0,105,0,761.5965664769992,761.5965664769992,761.5965664769992,761.5965664769992,761.5965664769992,761.5965664769992,761.5965664769992,1,-1,rojo,0,['N_B'],764.0817740439998,764.0817740439998,764.0817740439998,764.0817740439998,766.1181653660005,766.1181653660005,766.1181653660005,766.1181653660005,766.1181653660005,766.1181653660005,766.1181653660005,766.1181653660005,768.1533712629989,768.1533712629989,768.1533712629989,768.1533712629989,,,,,,,,,,,,,,,,,,,,,,,,,,,,,,,,,,,,,,,05,007,2022-09-23_14h40.16.066,test2,2022.2.4,59.89105362140533,
0,0,0,0,106,0,106,0,768.1533712629989,768.1533712629989,768.1533712629989,768.1533712629989,768.1533712629989,768.1533712629989,768.1533712629989,1,1,azul,1,['N_B'],769.670995045999,769.670995045999,769.670995045999,769.670995045999,771.7073107119995,771.7073107119995,771.7073107119995,771.7073107119995,771.7073107119995,771.7073107119995,771.7073107119995,771.7073107119995,773.7430317509989,773.7430317509989,773.7430317509989,773.7430317509989,,,,,,,,,,,,,,,,,,,,,,,,,,,,,,,,,,,,,,,05,007,2022-09-23_14h40.16.066,test2,2022.2.4,59.89105362140533,
0,0,0,0,107,0,107,0,773.7430317509989,773.7430317509989,773.7430317509989,773.7430317509989,773.7430317509989,773.7430317509989,773.7430317509989,-1,-1,rojo,0,['N_A'],776.1459924279989,776.1459924279989,776.1459924279989,776.1459924279989,778.181082183999,778.181082183999,778.181082183999,778.181082183999,778.181082183999,778.181082183999,778.181082183999,778.181082183999,780.2162034169996,780.2162034169996,780.2162034169996,780.2162034169996,,,,,,,,,,,,,,,,,,,,,,,,,,,,,,,,,,,,,,,05,007,2022-09-23_14h40.16.066,test2,2022.2.4,59.89105362140533,
0,0,0,0,108,0,108,0,780.2162034169996,780.2162034169996,780.2162034169996,780.2162034169996,780.2162034169996,780.2162034169996,780.2162034169996,1,-1,rojo,0,['N_B'],782.4695316839989,782.4695316839989,782.4695316839989,782.4695316839989,784.5049949929999,784.5049949929999,784.5049949929999,784.5049949929999,784.5049949929999,784.5049949929999,784.5049949929999,784.5049949929999,786.5407153659999,786.5407153659999,786.5407153659999,786.5407153659999,,,,,,,,,,,,,,,,,,,,,,,,,,,,,,,,,,,,,,,05,007,2022-09-23_14h40.16.066,test2,2022.2.4,59.89105362140533,
0,0,0,0,109,0,109,0,786.5407153659999,786.5407153659999,786.5407153659999,786.5407153659999,786.5407153659999,786.5407153659999,786.5407153659999,-1,-1,rojo,0,['N_A'],788.8264605549994,788.8264605549994,788.8264605549994,788.8264605549994,790.8620561579992,790.8620561579992,790.8620561579992,790.8620561579992,790.8620561579992,790.8620561579992,790.8620561579992,790.8620561579992,792.897263896999,792.897263896999,792.897263896999,792.897263896999,,,,,,,,,,,,,,,,,,,,,,,,,,,,,,,,,,,,,,,05,007,2022-09-23_14h40.16.066,test2,2022.2.4,59.89105362140533,
0,0,0,0,110,0,110,0,792.897263896999,792.897263896999,792.897263896999,792.897263896999,792.897263896999,792.897263896999,792.897263896999,-1,1,azul,1,['N_A'],794.348950268999,794.348950268999,794.348950268999,794.348950268999,796.3838458499995,796.3838458499995,796.3838458499995,796.3838458499995,796.3838458499995,796.3838458499995,796.3838458499995,796.3838458499995,798.4201544120006,798.4201544120006,798.4201544120006,798.4201544120006,,,,,,,,,,,,,,,,,,,,,,,,,,,,,,,,,,,,,,,05,007,2022-09-23_14h40.16.066,test2,2022.2.4,59.89105362140533,
0,0,0,0,111,0,111,0,798.4201544120006,798.4201544120006,798.4201544120006,798.4201544120006,798.4201544120006,798.4201544120006,798.4201544120006,1,-1,rojo,0,['N_B'],799.9716222379993,799.9716222379993,799.9716222379993,799.9716222379993,802.0072195209996,802.0072195209996,802.0072195209996,802.0072195209996,802.0072195209996,802.0072195209996,802.0072195209996,802.0072195209996,804.0428860979991,804.0428860979991,804.0428860979991,804.0428860979991,,,,,,,,,,,,,,,,,,,,,,,,,,,,,,,,,,,,,,,05,007,2022-09-23_14h40.16.066,test2,2022.2.4,59.89105362140533,
0,0,0,0,112,0,112,0,804.0428860979991,804.0428860979991,804.0428860979991,804.0428860979991,804.0428860979991,804.0428860979991,804.0428860979991,1,1,azul,1,['N_B'],805.4612892650002,805.4612892650002,805.4612892650002,805.4612892650002,807.4791387839996,807.4791387839996,807.4791387839996,807.4791387839996,807.4791387839996,807.4791387839996,807.4791387839996,807.4791387839996,809.515766683,809.515766683,809.515766683,809.515766683,,,,,,,,,,,,,,,,,,,,,,,,,,,,,,,,,,,,,,,05,007,2022-09-23_14h40.16.066,test2,2022.2.4,59.89105362140533,
0,0,0,0,113,0,113,0,809.515766683,809.515766683,809.515766683,809.515766683,809.515766683,809.515766683,809.515766683,1,1,azul,0,['N_A'],811.6678448399998,811.6678448399998,811.6678448399998,811.6678448399998,813.6866308169992,813.6866308169992,813.6866308169992,813.6866308169992,813.6866308169992,813.6866308169992,813.6866308169992,813.6866308169992,815.7218726689989,815.7218726689989,815.7218726689989,815.7218726689989,,,,,,,,,,,,,,,,,,,,,,,,,,,,,,,,,,,,,,,05,007,2022-09-23_14h40.16.066,test2,2022.2.4,59.89105362140533,
0,0,0,0,114,0,114,0,815.7218726689989,815.7218726689989,815.7218726689989,815.7218726689989,815.7218726689989,815.7218726689989,815.7218726689989,-1,1,azul,1,['N_A'],817.2071120729997,817.2071120729997,817.2071120729997,817.2071120729997,819.2434975369997,819.2434975369997,819.2434975369997,819.2434975369997,819.2434975369997,819.2434975369997,819.2434975369997,819.2434975369997,821.278862232999,821.278862232999,821.278862232999,821.278862232999,,,,,,,,,,,,,,,,,,,,,,,,,,,,,,,,,,,,,,,05,007,2022-09-23_14h40.16.066,test2,2022.2.4,59.89105362140533,
0,0,0,0,115,0,115,0,821.278862232999,821.278862232999,821.278862232999,821.278862232999,821.278862232999,821.278862232999,821.278862232999,1,-1,rojo,0,['N_B'],822.8299113180001,822.8299113180001,822.8299113180001,822.8299113180001,824.8662546539999,824.8662546539999,824.8662546539999,824.8662546539999,824.8662546539999,824.8662546539999,824.8662546539999,824.8662546539999,826.9015350219997,826.9015350219997,826.9015350219997,826.9015350219997,,,,,,,,,,,,,,,,,,,,,,,,,,,,,,,,,,,,,,,05,007,2022-09-23_14h40.16.066,test2,2022.2.4,59.89105362140533,
0,0,0,0,116,0,116,0,826.9015350219997,826.9015350219997,826.9015350219997,826.9015350219997,826.9015350219997,826.9015350219997,826.9015350219997,1,1,azul,1,['N_B'],828.9540951460003,828.9540951460003,828.9540951460003,828.9540951460003,830.9725793939997,830.9725793939997,830.9725793939997,830.9725793939997,830.9725793939997,830.9725793939997,830.9725793939997,830.9725793939997,833.0076450010001,833.0076450010001,833.0076450010001,833.0076450010001,,,,,,,,,,,,,,,,,,,,,,,,,,,,,,,,,,,,,,,05,007,2022-09-23_14h40.16.066,test2,2022.2.4,59.89105362140533,
0,0,0,0,117,0,117,0,833.0076450010001,833.0076450010001,833.0076450010001,833.0076450010001,833.0076450010001,833.0076450010001,833.0076450010001,1,1,azul,1,['N_B'],834.4930231569997,834.4930231569997,834.4930231569997,834.4930231569997,836.5110462339999,836.5110462339999,836.5110462339999,836.5110462339999,836.5110462339999,836.5110462339999,836.5110462339999,836.5110462339999,838.547612033999,838.547612033999,838.547612033999,838.547612033999,,,,,,,,,,,,,,,,,,,,,,,,,,,,,,,,,,,,,,,05,007,2022-09-23_14h40.16.066,test2,2022.2.4,59.89105362140533,
0,0,0,0,118,0,118,0,838.547612033999,838.547612033999,838.547612033999,838.547612033999,838.547612033999,838.547612033999,838.547612033999,1,1,azul,0,['N_A'],840.7332489609998,840.7332489609998,840.7332489609998,840.7332489609998,842.7509580629994,842.7509580629994,842.7509580629994,842.7509580629994,842.7509580629994,842.7509580629994,842.7509580629994,842.7509580629994,844.787963404,844.787963404,844.787963404,844.787963404,,,,,,,,,,,,,,,,,,,,,,,,,,,,,,,,,,,,,,,05,007,2022-09-23_14h40.16.066,test2,2022.2.4,59.89105362140533,
0,0,0,0,119,0,119,0,844.787963404,844.787963404,844.787963404,844.787963404,844.787963404,844.787963404,844.787963404,1,1,rojo,1,['N_A'],846.5228140130002,846.5228140130002,846.5228140130002,846.5228140130002,848.5592042709995,848.5592042709995,848.5592042709995,848.5592042709995,848.5592042709995,848.5592042709995,848.5592042709995,848.5592042709995,850.5944147099999,850.5944147099999,850.5944147099999,850.5944147099999,,,,,,,,,,,,,,,,,,,,,,,,,,,,,,,,,,,,,,,05,007,2022-09-23_14h40.16.066,test2,2022.2.4,59.89105362140533,
0,0,0,0,120,0,120,0,850.5944147099999,850.5944147099999,850.5944147099999,850.5944147099999,850.5944147099999,850.5944147099999,850.5944147099999,1,-1,rojo,0,['N_B'],852.863791799,852.863791799,852.863791799,852.863791799,854.8999352419996,854.8999352419996,854.8999352419996,854.8999352419996,854.8999352419996,854.8999352419996,854.8999352419996,854.8999352419996,856.9349079200001,856.9349079200001,856.9349079200001,856.9349079200001,,,,,,,,,,,,,,,,,,,,,,,,,,,,,,,,,,,,,,,05,007,2022-09-23_14h40.16.066,test2,2022.2.4,59.89105362140533,
0,0,0,0,121,0,121,0,856.9349079200001,856.9349079200001,856.9349079200001,856.9349079200001,856.9349079200001,856.9349079200001,856.9349079200001,1,1,azul,1,['N_B'],858.4693543459998,858.4693543459998,858.4693543459998,858.4693543459998,860.5051996339989,860.5051996339989,860.5051996339989,860.5051996339989,860.5051996339989,860.5051996339989,860.5051996339989,860.5051996339989,862.5407970260003,862.5407970260003,862.5407970260003,862.5407970260003,,,,,,,,,,,,,,,,,,,,,,,,,,,,,,,,,,,,,,,05,007,2022-09-23_14h40.16.066,test2,2022.2.4,59.89105362140533,
0,0,0,0,122,0,122,0,862.5407970260003,862.5407970260003,862.5407970260003,862.5407970260003,862.5407970260003,862.5407970260003,862.5407970260003,-1,-1,rojo,0,['N_A'],864.0085895350003,864.0085895350003,864.0085895350003,864.0085895350003,866.0452368089991,866.0452368089991,866.0452368089991,866.0452368089991,866.0452368089991,866.0452368089991,866.0452368089991,866.0452368089991,868.0795755050003,868.0795755050003,868.0795755050003,868.0795755050003,,,,,,,,,,,,,,,,,,,,,,,,,,,,,,,,,,,,,,,05,007,2022-09-23_14h40.16.066,test2,2022.2.4,59.89105362140533,
0,0,0,0,123,0,123,0,868.0795755050003,868.0795755050003,868.0795755050003,868.0795755050003,868.0795755050003,868.0795755050003,868.0795755050003,-1,1,azul,1,['N_A'],869.4820593829991,869.4820593829991,869.4820593829991,869.4820593829991,871.5008115740002,871.5008115740002,871.5008115740002,871.5008115740002,871.5008115740002,871.5008115740002,871.5008115740002,871.5008115740002,873.5360755599995,873.5360755599995,873.5360755599995,873.5360755599995,,,,,,,,,,,,,,,,,,,,,,,,,,,,,,,,,,,,,,,05,007,2022-09-23_14h40.16.066,test2,2022.2.4,59.89105362140533,
0,0,0,0,124,0,124,0,873.5360755599995,873.5360755599995,873.5360755599995,873.5360755599995,873.5360755599995,873.5360755599995,873.5360755599995,-1,1,azul,1,['N_A'],876.9898868689997,876.9898868689997,876.9898868689997,876.9898868689997,879.0087623790005,879.0087623790005,879.0087623790005,879.0087623790005,879.0087623790005,879.0087623790005,879.0087623790005,879.0087623790005,881.0450665669996,881.0450665669996,881.0450665669996,881.0450665669996,,,,,,,,,,,,,,,,,,,,,,,,,,,,,,,,,,,,,,,05,007,2022-09-23_14h40.16.066,test2,2022.2.4,59.89105362140533,
0,0,0,0,125,0,125,0,881.0450665669996,881.0450665669996,881.0450665669996,881.0450665669996,881.0450665669996,881.0450665669996,881.0450665669996,-1,1,azul,1,['N_A'],885.8667833740001,885.8667833740001,885.8667833740001,885.8667833740001,887.8861373380005,887.8861373380005,887.8861373380005,887.8861373380005,887.8861373380005,887.8861373380005,887.8861373380005,887.8861373380005,889.9210679219996,889.9210679219996,889.9210679219996,889.9210679219996,,,,,,,,,,,,,,,,,,,,,,,,,,,,,,,,,,,,,,,05,007,2022-09-23_14h40.16.066,test2,2022.2.4,59.89105362140533,
0,0,0,0,126,0,126,0,889.9210679219996,889.9210679219996,889.9210679219996,889.9210679219996,889.9210679219996,889.9210679219996,889.9210679219996,-1,1,azul,0,['N_B'],891.3889163200001,891.3889163200001,891.3889163200001,891.3889163200001,893.4077912350003,893.4077912350003,893.4077912350003,893.4077912350003,893.4077912350003,893.4077912350003,893.4077912350003,893.4077912350003,895.4434617169991,895.4434617169991,895.4434617169991,895.4434617169991,,,,,,,,,,,,,,,,,,,,,,,,,,,,,,,,,,,,,,,05,007,2022-09-23_14h40.16.066,test2,2022.2.4,59.89105362140533,
0,0,0,0,127,0,127,0,895.4434617169991,895.4434617169991,895.4434617169991,895.4434617169991,895.4434617169991,895.4434617169991,895.4434617169991,1,1,azul,1,['N_B'],896.862010674,896.862010674,896.862010674,896.862010674,898.8808129930003,898.8808129930003,898.8808129930003,898.8808129930003,898.8808129930003,898.8808129930003,898.8808129930003,898.8808129930003,900.9168194329995,900.9168194329995,900.9168194329995,900.9168194329995,,,,,,,,,,,,,,,,,,,,,,,,,,,,,,,,,,,,,,,05,007,2022-09-23_14h40.16.066,test2,2022.2.4,59.89105362140533,
0,0,0,0,128,0,128,0,900.9168194329995,900.9168194329995,900.9168194329995,900.9168194329995,900.9168194329995,900.9168194329995,900.9168194329995,1,1,azul,0,['N_A'],903.1356739589992,903.1356739589992,903.1356739589992,903.1356739589992,905.1533868629995,905.1533868629995,905.1533868629995,905.1533868629995,905.1533868629995,905.1533868629995,905.1533868629995,905.1533868629995,907.1897192979995,907.1897192979995,907.1897192979995,907.1897192979995,,,,,,,,,,,,,,,,,,,,,,,,,,,,,,,,,,,,,,,05,007,2022-09-23_14h40.16.066,test2,2022.2.4,59.89105362140533,
0,0,0,0,129,0,129,0,907.1897192979995,907.1897192979995,907.1897192979995,907.1897192979995,907.1897192979995,907.1897192979995,907.1897192979995,-1,1,azul,1,['N_A'],908.6584591529991,908.6584591529991,908.6584591529991,908.6584591529991,910.693504384999,910.693504384999,910.693504384999,910.693504384999,910.693504384999,910.693504384999,910.693504384999,910.693504384999,912.7292593120001,912.7292593120001,912.7292593120001,912.7292593120001,,,,,,,,,,,,,,,,,,,,,,,,,,,,,,,,,,,,,,,05,007,2022-09-23_14h40.16.066,test2,2022.2.4,59.89105362140533,
0,0,0,0,130,0,130,0,912.7292593120001,912.7292593120001,912.7292593120001,912.7292593120001,912.7292593120001,912.7292593120001,912.7292593120001,1,-1,rojo,0,['N_B'],914.4315429580001,914.4315429580001,914.4315429580001,914.4315429580001,916.4664009979988,916.4664009979988,916.4664009979988,916.4664009979988,916.4664009979988,916.4664009979988,916.4664009979988,916.4664009979988,918.5029769489993,918.5029769489993,918.5029769489993,918.5029769489993,,,,,,,,,,,,,,,,,,,,,,,,,,,,,,,,,,,,,,,05,007,2022-09-23_14h40.16.066,test2,2022.2.4,59.89105362140533,
0,0,0,0,131,0,131,0,918.5029769489993,918.5029769489993,918.5029769489993,918.5029769489993,918.5029769489993,918.5029769489993,918.5029769489993,1,1,azul,1,['N_B'],919.920649149999,919.920649149999,919.920649149999,919.920649149999,921.956140671,921.956140671,921.956140671,921.956140671,921.956140671,921.956140671,921.956140671,921.956140671,923.9918839239999,923.9918839239999,923.9918839239999,923.9918839239999,,,,,,,,,,,,,,,,,,,,,,,,,,,,,,,,,,,,,,,05,007,2022-09-23_14h40.16.066,test2,2022.2.4,59.89105362140533,
0,0,0,0,132,0,132,0,923.9918839239999,923.9918839239999,923.9918839239999,923.9918839239999,923.9918839239999,923.9918839239999,923.9918839239999,1,-1,azul,1,['N_B'],925.9607225219988,925.9607225219988,925.9607225219988,925.9607225219988,927.9971101680003,927.9971101680003,927.9971101680003,927.9971101680003,927.9971101680003,927.9971101680003,927.9971101680003,927.9971101680003,930.0318931759994,930.0318931759994,930.0318931759994,930.0318931759994,,,,,,,,,,,,,,,,,,,,,,,,,,,,,,,,,,,,,,,05,007,2022-09-23_14h40.16.066,test2,2022.2.4,59.89105362140533,
0,0,0,0,133,0,133,0,930.0318931759994,930.0318931759994,930.0318931759994,930.0318931759994,930.0318931759994,930.0318931759994,930.0318931759994,1,1,azul,0,['N_A'],931.6500046580004,931.6500046580004,931.6500046580004,931.6500046580004,933.6687830279989,933.6687830279989,933.6687830279989,933.6687830279989,933.6687830279989,933.6687830279989,933.6687830279989,933.6687830279989,935.7042913349997,935.7042913349997,935.7042913349997,935.7042913349997,,,,,,,,,,,,,,,,,,,,,,,,,,,,,,,,,,,,,,,05,007,2022-09-23_14h40.16.066,test2,2022.2.4,59.89105362140533,
0,0,0,0,134,0,134,0,935.7042913349997,935.7042913349997,935.7042913349997,935.7042913349997,935.7042913349997,935.7042913349997,935.7042913349997,-1,1,azul,1,['N_A'],944.197768647,944.197768647,944.197768647,944.197768647,946.216353980999,946.216353980999,946.216353980999,946.216353980999,946.216353980999,946.216353980999,946.216353980999,946.216353980999,948.2523388150003,948.2523388150003,948.2523388150003,948.2523388150003,,,,,,,,,,,,,,,,,,,,,,,,,,,,,,,,,,,,,,,05,007,2022-09-23_14h40.16.066,test2,2022.2.4,59.89105362140533,
0,0,0,0,135,0,135,0,948.2523388150003,948.2523388150003,948.2523388150003,948.2523388150003,948.2523388150003,948.2523388150003,948.2523388150003,1,1,rojo,0,['N_B'],953.2744926729993,953.2744926729993,953.2744926729993,953.2744926729993,955.308962138999,955.308962138999,955.308962138999,955.308962138999,955.308962138999,955.308962138999,955.308962138999,955.308962138999,957.3449438400003,957.3449438400003,957.3449438400003,957.3449438400003,,,,,,,,,,,,,,,,,,,,,,,,,,,,,,,,,,,,,,,05,007,2022-09-23_14h40.16.066,test2,2022.2.4,59.89105362140533,
0,0,0,0,136,0,136,0,957.3449438400003,957.3449438400003,957.3449438400003,957.3449438400003,957.3449438400003,957.3449438400003,957.3449438400003,1,-1,azul,1,['N_B'],958.7965610470001,958.7965610470001,958.7965610470001,958.7965610470001,960.8325186660004,960.8325186660004,960.8325186660004,960.8325186660004,960.8325186660004,960.8325186660004,960.8325186660004,960.8325186660004,962.8689058109994,962.8689058109994,962.8689058109994,962.8689058109994,,,,,,,,,,,,,,,,,,,,,,,,,,,,,,,,,,,,,,,05,007,2022-09-23_14h40.16.066,test2,2022.2.4,59.89105362140533,
0,0,0,0,137,0,137,0,962.8689058109994,962.8689058109994,962.8689058109994,962.8689058109994,962.8689058109994,962.8689058109994,962.8689058109994,-1,-1,rojo,1,['N_B'],964.4195066579996,964.4195066579996,964.4195066579996,964.4195066579996,966.4560322050002,966.4560322050002,966.4560322050002,966.4560322050002,966.4560322050002,966.4560322050002,966.4560322050002,966.4560322050002,968.4909978960004,968.4909978960004,968.4909978960004,968.4909978960004,,,,,,,,,,,,,,,,,,,,,,,,,,,,,,,,,,,,,,,05,007,2022-09-23_14h40.16.066,test2,2022.2.4,59.89105362140533,
0,0,0,0,138,0,138,0,968.4909978960004,968.4909978960004,968.4909978960004,968.4909978960004,968.4909978960004,968.4909978960004,968.4909978960004,1,1,azul,1,['N_B'],970.0423533649991,970.0423533649991,970.0423533649991,970.0423533649991,972.0617906829993,972.0617906829993,972.0617906829993,972.0617906829993,972.0617906829993,972.0617906829993,972.0617906829993,972.0617906829993,974.0965421370001,974.0965421370001,974.0965421370001,974.0965421370001,,,,,,,,,,,,,,,,,,,,,,,,,,,,,,,,,,,,,,,05,007,2022-09-23_14h40.16.066,test2,2022.2.4,59.89105362140533,
0,0,0,0,139,0,139,0,974.0965421370001,974.0965421370001,974.0965421370001,974.0965421370001,974.0965421370001,974.0965421370001,974.0965421370001,1,1,azul,1,['N_B'],975.5484907059999,975.5484907059999,975.5484907059999,975.5484907059999,977.5842163479992,977.5842163479992,977.5842163479992,977.5842163479992,977.5842163479992,977.5842163479992,977.5842163479992,977.5842163479992,979.6197865260001,979.6197865260001,979.6197865260001,979.6197865260001,,,,,,,,,,,,,,,,,,,,,,,,,,,,,,,,,,,,,,,05,007,2022-09-23_14h40.16.066,test2,2022.2.4,59.89105362140533,
0,0,0,0,140,0,140,0,979.6197865260001,979.6197865260001,979.6197865260001,979.6197865260001,979.6197865260001,979.6197865260001,979.6197865260001,-1,-1,rojo,0,['N_A'],981.688892103999,981.688892103999,981.688892103999,981.688892103999,983.7241673810004,983.7241673810004,983.7241673810004,983.7241673810004,983.7241673810004,983.7241673810004,983.7241673810004,983.7241673810004,985.7599812009994,985.7599812009994,985.7599812009994,985.7599812009994,,,,,,,,,,,,,,,,,,,,,,,,,,,,,,,,,,,,,,,05,007,2022-09-23_14h40.16.066,test2,2022.2.4,59.89105362140533,
0,0,0,0,141,0,141,0,985.7599812009994,985.7599812009994,985.7599812009994,985.7599812009994,985.7599812009994,985.7599812009994,985.7599812009994,1,1,rojo,1,['N_A'],987.1781919259993,987.1781919259993,987.1781919259993,987.1781919259993,989.1975010160004,989.1975010160004,989.1975010160004,989.1975010160004,989.1975010160004,989.1975010160004,989.1975010160004,989.1975010160004,991.2321957969998,991.2321957969998,991.2321957969998,991.2321957969998,,,,,,,,,,,,,,,,,,,,,,,,,,,,,,,,,,,,,,,05,007,2022-09-23_14h40.16.066,test2,2022.2.4,59.89105362140533,
0,0,0,0,142,0,142,0,991.2321957969998,991.2321957969998,991.2321957969998,991.2321957969998,991.2321957969998,991.2321957969998,991.2321957969998,1,1,rojo,0,['N_B'],992.7515630319995,992.7515630319995,992.7515630319995,992.7515630319995,994.7871160699997,994.7871160699997,994.7871160699997,994.7871160699997,994.7871160699997,994.7871160699997,994.7871160699997,994.7871160699997,996.8227787799988,996.8227787799988,996.8227787799988,996.8227787799988,,,,,,,,,,,,,,,,,,,,,,,,,,,,,,,,,,,,,,,05,007,2022-09-23_14h40.16.066,test2,2022.2.4,59.89105362140533,
0,0,0,0,143,0,143,0,996.8227787799988,996.8227787799988,996.8227787799988,996.8227787799988,996.8227787799988,996.8227787799988,996.8227787799988,1,-1,azul,1,['N_B'],998.6741663920002,998.6741663920002,998.6741663920002,998.6741663920002,1000.7102804509996,1000.7102804509996,1000.7102804509996,1000.7102804509996,1000.7102804509996,1000.7102804509996,1000.7102804509996,1000.7102804509996,1002.7451238089998,1002.7451238089998,1002.7451238089998,1002.7451238089998,,,,,,,,,,,,,,,,,,,,,,,,,,,,,,,,,,,,,,,05,007,2022-09-23_14h40.16.066,test2,2022.2.4,59.89105362140533,
0,0,0,0,144,0,144,0,1002.7451238089998,1002.7451238089998,1002.7451238089998,1002.7451238089998,1002.7451238089998,1002.7451238089998,1002.7451238089998,1,1,azul,1,['N_B'],1007.5670617899996,1007.5670617899996,1007.5670617899996,1007.5670617899996,1009.5868974869991,1009.5868974869991,1009.5868974869991,1009.5868974869991,1009.5868974869991,1009.5868974869991,1009.5868974869991,1009.5868974869991,1011.6216428499993,1011.6216428499993,1011.6216428499993,1011.6216428499993,,,,,,,,,,,,,,,,,,,,,,,,,,,,,,,,,,,,,,,05,007,2022-09-23_14h40.16.066,test2,2022.2.4,59.89105362140533,
0,0,0,0,145,0,145,0,1011.6216428499993,1011.6216428499993,1011.6216428499993,1011.6216428499993,1011.6216428499993,1011.6216428499993,1011.6216428499993,1,1,azul,1,['N_B'],1013.240709275,1013.240709275,1013.240709275,1013.240709275,1015.275769758,1015.275769758,1015.275769758,1015.275769758,1015.275769758,1015.275769758,1015.275769758,1015.275769758,1017.3111024629998,1017.3111024629998,1017.3111024629998,1017.3111024629998,,,,,,,,,,,,,,,,,,,,,,,,,,,,,,,,,,,,,,,05,007,2022-09-23_14h40.16.066,test2,2022.2.4,59.89105362140533,
0,0,0,0,146,0,146,0,1017.3111024629998,1017.3111024629998,1017.3111024629998,1017.3111024629998,1017.3111024629998,1017.3111024629998,1017.3111024629998,1,-1,azul,0,['N_A'],1019.6139906810004,1019.6139906810004,1019.6139906810004,1019.6139906810004,1021.6499110749992,1021.6499110749992,1021.6499110749992,1021.6499110749992,1021.6499110749992,1021.6499110749992,1021.6499110749992,1021.6499110749992,1023.6852761819991,1023.6852761819991,1023.6852761819991,1023.6852761819991,,,,,,,,,,,,,,,,,,,,,,,,,,,,,,,,,,,,,,,05,007,2022-09-23_14h40.16.066,test2,2022.2.4,59.89105362140533,
0,0,0,0,147,0,147,0,1023.6852761819991,1023.6852761819991,1023.6852761819991,1023.6852761819991,1023.6852761819991,1023.6852761819991,1023.6852761819991,1,-1,rojo,0,['N_B'],1025.8209641189987,1025.8209641189987,1025.8209641189987,1025.8209641189987,1027.8563626659998,1027.8563626659998,1027.8563626659998,1027.8563626659998,1027.8563626659998,1027.8563626659998,1027.8563626659998,1027.8563626659998,1029.8921385969988,1029.8921385969988,1029.8921385969988,1029.8921385969988,,,,,,,,,,,,,,,,,,,,,,,,,,,,,,,,,,,,,,,05,007,2022-09-23_14h40.16.066,test2,2022.2.4,59.89105362140533,
0,0,0,0,148,0,148,0,1029.8921385969988,1029.8921385969988,1029.8921385969988,1029.8921385969988,1029.8921385969988,1029.8921385969988,1029.8921385969988,-1,-1,rojo,0,['N_A'],1035.4982821989997,1035.4982821989997,1035.4982821989997,1035.4982821989997,1037.5340061530005,1037.5340061530005,1037.5340061530005,1037.5340061530005,1037.5340061530005,1037.5340061530005,1037.5340061530005,1037.5340061530005,1039.5697803349995,1039.5697803349995,1039.5697803349995,1039.5697803349995,,,,,,,,,,,,,,,,,,,,,,,,,,,,,,,,,,,,,,,05,007,2022-09-23_14h40.16.066,test2,2022.2.4,59.89105362140533,
0,0,0,0,149,0,149,0,1039.5697803349995,1039.5697803349995,1039.5697803349995,1039.5697803349995,1039.5697803349995,1039.5697803349995,1039.5697803349995,1,1,rojo,1,['N_A'],1041.0880257869994,1041.0880257869994,1041.0880257869994,1041.0880257869994,1043.1233944679989,1043.1233944679989,1043.1233944679989,1043.1233944679989,1043.1233944679989,1043.1233944679989,1043.1233944679989,1043.1233944679989,1045.159123334999,1045.159123334999,1045.159123334999,1045.159123334999,,,,,,,,,,,,,,,,,,,,,,,,,,,,,,,,,,,,,,,05,007,2022-09-23_14h40.16.066,test2,2022.2.4,59.89105362140533,
0,0,0,0,150,0,150,0,1045.159123334999,1045.159123334999,1045.159123334999,1045.159123334999,1045.159123334999,1045.159123334999,1045.159123334999,1,-1,rojo,0,['N_B'],1047.0445569059993,1047.0445569059993,1047.0445569059993,1047.0445569059993,1049.0797083729994,1049.0797083729994,1049.0797083729994,1049.0797083729994,1049.0797083729994,1049.0797083729994,1049.0797083729994,1049.0797083729994,1051.115625544,1051.115625544,1051.115625544,1051.115625544,,,,,,,,,,,,,,,,,,,,,,,,,,,,,,,,,,,,,,,05,007,2022-09-23_14h40.16.066,test2,2022.2.4,59.89105362140533,
0,0,0,0,151,0,151,0,1051.115625544,1051.115625544,1051.115625544,1051.115625544,1051.115625544,1051.115625544,1051.115625544,1,1,azul,1,['N_B'],1052.7345532620002,1052.7345532620002,1052.7345532620002,1052.7345532620002,1054.7519790400002,1054.7519790400002,1054.7519790400002,1054.7519790400002,1054.7519790400002,1054.7519790400002,1054.7519790400002,1054.7519790400002,1056.7888568999988,1056.7888568999988,1056.7888568999988,1056.7888568999988,,,,,,,,,,,,,,,,,,,,,,,,,,,,,,,,,,,,,,,05,007,2022-09-23_14h40.16.066,test2,2022.2.4,59.89105362140533,
0,0,0,0,152,0,152,0,1056.7888568999988,1056.7888568999988,1056.7888568999988,1056.7888568999988,1056.7888568999988,1056.7888568999988,1056.7888568999988,1,1,azul,0,['N_A'],1058.9580466059997,1058.9580466059997,1058.9580466059997,1058.9580466059997,1060.9770805909993,1060.9770805909993,1060.9770805909993,1060.9770805909993,1060.9770805909993,1060.9770805909993,1060.9770805909993,1060.9770805909993,1063.012458617999,1063.012458617999,1063.012458617999,1063.012458617999,,,,,,,,,,,,,,,,,,,,,,,,,,,,,,,,,,,,,,,05,007,2022-09-23_14h40.16.066,test2,2022.2.4,59.89105362140533,
0,0,0,0,153,0,153,0,1063.012458617999,1063.012458617999,1063.012458617999,1063.012458617999,1063.012458617999,1063.012458617999,1063.012458617999,-1,1,azul,1,['N_A'],1064.5137956769995,1064.5137956769995,1064.5137956769995,1064.5137956769995,1066.5323046069989,1066.5323046069989,1066.5323046069989,1066.5323046069989,1066.5323046069989,1066.5323046069989,1066.5323046069989,1066.5323046069989,1068.568001178999,1068.568001178999,1068.568001178999,1068.568001178999,,,,,,,,,,,,,,,,,,,,,,,,,,,,,,,,,,,,,,,05,007,2022-09-23_14h40.16.066,test2,2022.2.4,59.89105362140533,
0,0,0,0,154,0,154,0,1068.568001178999,1068.568001178999,1068.568001178999,1068.568001178999,1068.568001178999,1068.568001178999,1068.568001178999,-1,1,azul,0,['N_B'],1072.5554213739997,1072.5554213739997,1072.5554213739997,1072.5554213739997,1074.5744754129992,1074.5744754129992,1074.5744754129992,1074.5744754129992,1074.5744754129992,1074.5744754129992,1074.5744754129992,1074.5744754129992,1076.6103292549997,1076.6103292549997,1076.6103292549997,1076.6103292549997,,,,,,,,,,,,,,,,,,,,,,,,,,,,,,,,,,,,,,,05,007,2022-09-23_14h40.16.066,test2,2022.2.4,59.89105362140533,
0,0,0,0,155,0,155,0,1076.6103292549997,1076.6103292549997,1076.6103292549997,1076.6103292549997,1076.6103292549997,1076.6103292549997,1076.6103292549997,1,1,azul,1,['N_B'],1078.1955622759997,1078.1955622759997,1078.1955622759997,1078.1955622759997,1080.214672344,1080.214672344,1080.214672344,1080.214672344,1080.214672344,1080.214672344,1080.214672344,1080.214672344,1082.2492920370005,1082.2492920370005,1082.2492920370005,1082.2492920370005,,,,,,,,,,,,,,,,,,,,,,,,,,,,,,,,,,,,,,,05,007,2022-09-23_14h40.16.066,test2,2022.2.4,59.89105362140533,
0,0,0,0,156,0,156,0,1082.2492920370005,1082.2492920370005,1082.2492920370005,1082.2492920370005,1082.2492920370005,1082.2492920370005,1082.2492920370005,1,1,azul,1,['N_B'],1083.701617494,1083.701617494,1083.701617494,1083.701617494,1085.720820524999,1085.720820524999,1085.720820524999,1085.720820524999,1085.720820524999,1085.720820524999,1085.720820524999,1085.720820524999,1087.7555329400002,1087.7555329400002,1087.7555329400002,1087.7555329400002,,,,,,,,,,,,,,,,,,,,,,,,,,,,,,,,,,,,,,,05,007,2022-09-23_14h40.16.066,test2,2022.2.4,59.89105362140533,
0,0,0,0,157,0,157,0,1087.7555329400002,1087.7555329400002,1087.7555329400002,1087.7555329400002,1087.7555329400002,1087.7555329400002,1087.7555329400002,1,1,azul,0,['N_A'],1089.2740709749996,1089.2740709749996,1089.2740709749996,1089.2740709749996,1091.2935229609993,1091.2935229609993,1091.2935229609993,1091.2935229609993,1091.2935229609993,1091.2935229609993,1091.2935229609993,1091.2935229609993,1093.3282600879993,1093.3282600879993,1093.3282600879993,1093.3282600879993,,,,,,,,,,,,,,,,,,,,,,,,,,,,,,,,,,,,,,,05,007,2022-09-23_14h40.16.066,test2,2022.2.4,59.89105362140533,
0,0,0,0,158,0,158,0,1093.3282600879993,1093.3282600879993,1093.3282600879993,1093.3282600879993,1093.3282600879993,1093.3282600879993,1093.3282600879993,-1,1,azul,1,['N_A'],1094.813794136,1094.813794136,1094.813794136,1094.813794136,1096.8492082889989,1096.8492082889989,1096.8492082889989,1096.8492082889989,1096.8492082889989,1096.8492082889989,1096.8492082889989,1096.8492082889989,1098.8844981519997,1098.8844981519997,1098.8844981519997,1098.8844981519997,,,,,,,,,,,,,,,,,,,,,,,,,,,,,,,,,,,,,,,05,007,2022-09-23_14h40.16.066,test2,2022.2.4,59.89105362140533,
0,0,0,0,159,0,159,0,1098.8844981519997,1098.8844981519997,1098.8844981519997,1098.8844981519997,1098.8844981519997,1098.8844981519997,1098.8844981519997,1,-1,rojo,0,['N_B'],1101.8546348239997,1101.8546348239997,1101.8546348239997,1101.8546348239997,1103.8906894840002,1103.8906894840002,1103.8906894840002,1103.8906894840002,1103.8906894840002,1103.8906894840002,1103.8906894840002,1103.8906894840002,1105.9255467639996,1105.9255467639996,1105.9255467639996,1105.9255467639996,,,,,,,,,,,,,,,,,,,,,,,,,,,,,,,,,,,,,,,05,007,2022-09-23_14h40.16.066,test2,2022.2.4,59.89105362140533,
0,0,0,0,160,0,160,0,1105.9255467639996,1105.9255467639996,1105.9255467639996,1105.9255467639996,1105.9255467639996,1105.9255467639996,1105.9255467639996,1,1,azul,1,['N_B'],1107.3775454770002,1107.3775454770002,1107.3775454770002,1107.3775454770002,1109.3962700699994,1109.3962700699994,1109.3962700699994,1109.3962700699994,1109.3962700699994,1109.3962700699994,1109.3962700699994,1109.3962700699994,1111.4320113409995,1111.4320113409995,1111.4320113409995,1111.4320113409995,,,,,,,,,,,,,,,,,,,,,,,,,,,,,,,,,,,,,,,05,007,2022-09-23_14h40.16.066,test2,2022.2.4,59.89105362140533,
0,0,0,0,161,0,161,0,1111.4320113409995,1111.4320113409995,1111.4320113409995,1111.4320113409995,1111.4320113409995,1111.4320113409995,1111.4320113409995,1,1,azul,1,['N_B'],1112.8672141499992,1112.8672141499992,1112.8672141499992,1112.8672141499992,1114.902682480999,1114.902682480999,1114.902682480999,1114.902682480999,1114.902682480999,1114.902682480999,1114.902682480999,1114.902682480999,1116.938083146999,1116.938083146999,1116.938083146999,1116.938083146999,,,,,,,,,,,,,,,,,,,,,,,,,,,,,,,,,,,,,,,05,007,2022-09-23_14h40.16.066,test2,2022.2.4,59.89105362140533,
0,0,0,0,162,0,162,0,1116.938083146999,1116.938083146999,1116.938083146999,1116.938083146999,1116.938083146999,1116.938083146999,1116.938083146999,-1,-1,rojo,0,['N_A'],1119.0734623219996,1119.0734623219996,1119.0734623219996,1119.0734623219996,1121.1097390639989,1121.1097390639989,1121.1097390639989,1121.1097390639989,1121.1097390639989,1121.1097390639989,1121.1097390639989,1121.1097390639989,1123.1450188609997,1123.1450188609997,1123.1450188609997,1123.1450188609997,,,,,,,,,,,,,,,,,,,,,,,,,,,,,,,,,,,,,,,05,007,2022-09-23_14h40.16.066,test2,2022.2.4,59.89105362140533,
0,0,0,0,163,0,163,0,1123.1450188609997,1123.1450188609997,1123.1450188609997,1123.1450188609997,1123.1450188609997,1123.1450188609997,1123.1450188609997,1,-1,rojo,0,['N_B'],1124.630053248,1124.630053248,1124.630053248,1124.630053248,1126.6655665500002,1126.6655665500002,1126.6655665500002,1126.6655665500002,1126.6655665500002,1126.6655665500002,1126.6655665500002,1126.6655665500002,1128.7014834330002,1128.7014834330002,1128.7014834330002,1128.7014834330002,,,,,,,,,,,,,,,,,,,,,,,,,,,,,,,,,,,,,,,05,007,2022-09-23_14h40.16.066,test2,2022.2.4,59.89105362140533,
0,0,0,0,164,0,164,0,1128.7014834330002,1128.7014834330002,1128.7014834330002,1128.7014834330002,1128.7014834330002,1128.7014834330002,1128.7014834330002,1,1,azul,1,['N_B'],1130.2189565110002,1130.2189565110002,1130.2189565110002,1130.2189565110002,1132.2546073199992,1132.2546073199992,1132.2546073199992,1132.2546073199992,1132.2546073199992,1132.2546073199992,1132.2546073199992,1132.2546073199992,1134.2900849729995,1134.2900849729995,1134.2900849729995,1134.2900849729995,,,,,,,,,,,,,,,,,,,,,,,,,,,,,,,,,,,,,,,05,007,2022-09-23_14h40.16.066,test2,2022.2.4,59.89105362140533,
0,0,0,0,165,0,165,0,1134.2900849729995,1134.2900849729995,1134.2900849729995,1134.2900849729995,1134.2900849729995,1134.2900849729995,1134.2900849729995,1,-1,azul,0,['N_A'],1136.3097931539996,1136.3097931539996,1136.3097931539996,1136.3097931539996,1138.345293081,1138.345293081,1138.345293081,1138.345293081,1138.345293081,1138.345293081,1138.345293081,1138.345293081,1140.381177018,1140.381177018,1140.381177018,1140.381177018,,,,,,,,,,,,,,,,,,,,,,,,,,,,,,,,,,,,,,,05,007,2022-09-23_14h40.16.066,test2,2022.2.4,59.89105362140533,
0,0,0,0,166,0,166,0,1140.381177018,1140.381177018,1140.381177018,1140.381177018,1140.381177018,1140.381177018,1140.381177018,1,1,rojo,1,['N_A'],1144.234568378999,1144.234568378999,1144.234568378999,1144.234568378999,1146.270701907999,1146.270701907999,1146.270701907999,1146.270701907999,1146.270701907999,1146.270701907999,1146.270701907999,1146.270701907999,1148.3060726589993,1148.3060726589993,1148.3060726589993,1148.3060726589993,,,,,,,,,,,,,,,,,,,,,,,,,,,,,,,,,,,,,,,05,007,2022-09-23_14h40.16.066,test2,2022.2.4,59.89105362140533,
0,0,0,0,167,0,167,0,1148.3060726589993,1148.3060726589993,1148.3060726589993,1148.3060726589993,1148.3060726589993,1148.3060726589993,1148.3060726589993,1,-1,rojo,0,['N_B'],1151.7602715190005,1151.7602715190005,1151.7602715190005,1151.7602715190005,1153.7950082240004,1153.7950082240004,1153.7950082240004,1153.7950082240004,1153.7950082240004,1153.7950082240004,1153.7950082240004,1153.7950082240004,1155.8305627709997,1155.8305627709997,1155.8305627709997,1155.8305627709997,,,,,,,,,,,,,,,,,,,,,,,,,,,,,,,,,,,,,,,05,007,2022-09-23_14h40.16.066,test2,2022.2.4,59.89105362140533,
0,0,0,0,168,0,168,0,1155.8305627709997,1155.8305627709997,1155.8305627709997,1155.8305627709997,1155.8305627709997,1155.8305627709997,1155.8305627709997,1,1,azul,1,['N_B'],1157.3825657469988,1157.3825657469988,1157.3825657469988,1157.3825657469988,1159.4014655949995,1159.4014655949995,1159.4014655949995,1159.4014655949995,1159.4014655949995,1159.4014655949995,1159.4014655949995,1159.4014655949995,1161.4375330349994,1161.4375330349994,1161.4375330349994,1161.4375330349994,,,,,,,,,,,,,,,,,,,,,,,,,,,,,,,,,,,,,,,05,007,2022-09-23_14h40.16.066,test2,2022.2.4,59.89105362140533,
0,0,0,0,169,0,169,0,1161.4375330349994,1161.4375330349994,1161.4375330349994,1161.4375330349994,1161.4375330349994,1161.4375330349994,1161.4375330349994,1,1,azul,0,['N_A'],1163.4390938239994,1163.4390938239994,1163.4390938239994,1163.4390938239994,1165.4584763359999,1165.4584763359999,1165.4584763359999,1165.4584763359999,1165.4584763359999,1165.4584763359999,1165.4584763359999,1165.4584763359999,1167.4941022980001,1167.4941022980001,1167.4941022980001,1167.4941022980001,,,,,,,,,,,,,,,,,,,,,,,,,,,,,,,,,,,,,,,05,007,2022-09-23_14h40.16.066,test2,2022.2.4,59.89105362140533,
0,0,0,0,170,0,170,0,1167.4941022980001,1167.4941022980001,1167.4941022980001,1167.4941022980001,1167.4941022980001,1167.4941022980001,1167.4941022980001,-1,1,azul,1,['N_A'],1168.9784216899989,1168.9784216899989,1168.9784216899989,1168.9784216899989,1170.998018725999,1170.998018725999,1170.998018725999,1170.998018725999,1170.998018725999,1170.998018725999,1170.998018725999,1170.998018725999,1173.033220027999,1173.033220027999,1173.033220027999,1173.033220027999,,,,,,,,,,,,,,,,,,,,,,,,,,,,,,,,,,,,,,,05,007,2022-09-23_14h40.16.066,test2,2022.2.4,59.89105362140533,
0,0,0,0,171,0,171,0,1173.033220027999,1173.033220027999,1173.033220027999,1173.033220027999,1173.033220027999,1173.033220027999,1173.033220027999,1,1,rojo,1,['N_A'],1174.6189436659988,1174.6189436659988,1174.6189436659988,1174.6189436659988,1176.6360658739995,1176.6360658739995,1176.6360658739995,1176.6360658739995,1176.6360658739995,1176.6360658739995,1176.6360658739995,1176.6360658739995,1178.6732552060002,1178.6732552060002,1178.6732552060002,1178.6732552060002,,,,,,,,,,,,,,,,,,,,,,,,,,,,,,,,,,,,,,,05,007,2022-09-23_14h40.16.066,test2,2022.2.4,59.89105362140533,
0,0,0,0,172,0,172,0,1178.6732552060002,1178.6732552060002,1178.6732552060002,1178.6732552060002,1178.6732552060002,1178.6732552060002,1178.6732552060002,-1,1,azul,1,['N_A'],1180.0914489709994,1180.0914489709994,1180.0914489709994,1180.0914489709994,1182.1090007129987,1182.1090007129987,1182.1090007129987,1182.1090007129987,1182.1090007129987,1182.1090007129987,1182.1090007129987,1182.1090007129987,1184.145619863999,1184.145619863999,1184.145619863999,1184.145619863999,,,,,,,,,,,,,,,,,,,,,,,,,,,,,,,,,,,,,,,05,007,2022-09-23_14h40.16.066,test2,2022.2.4,59.89105362140533,
0,0,0,0,173,0,173,0,1184.145619863999,1184.145619863999,1184.145619863999,1184.145619863999,1184.145619863999,1184.145619863999,1184.145619863999,-1,1,azul,0,['N_B'],1185.6801194079999,1185.6801194079999,1185.6801194079999,1185.6801194079999,1187.700507378,1187.700507378,1187.700507378,1187.700507378,1187.700507378,1187.700507378,1187.700507378,1187.700507378,1189.7349549850005,1189.7349549850005,1189.7349549850005,1189.7349549850005,,,,,,,,,,,,,,,,,,,,,,,,,,,,,,,,,,,,,,,05,007,2022-09-23_14h40.16.066,test2,2022.2.4,59.89105362140533,
0,0,0,0,174,0,174,0,1189.7349549850005,1189.7349549850005,1189.7349549850005,1189.7349549850005,1189.7349549850005,1189.7349549850005,1189.7349549850005,1,1,azul,1,['N_B'],1191.2536833089998,1191.2536833089998,1191.2536833089998,1191.2536833089998,1193.271404305,1193.271404305,1193.271404305,1193.271404305,1193.271404305,1193.271404305,1193.271404305,1193.271404305,1195.3081568369998,1195.3081568369998,1195.3081568369998,1195.3081568369998,,,,,,,,,,,,,,,,,,,,,,,,,,,,,,,,,,,,,,,05,007,2022-09-23_14h40.16.066,test2,2022.2.4,59.89105362140533,
0,0,0,0,175,0,175,0,1195.3081568369998,1195.3081568369998,1195.3081568369998,1195.3081568369998,1195.3081568369998,1195.3081568369998,1195.3081568369998,1,1,azul,0,['N_A'],1197.2606406609993,1197.2606406609993,1197.2606406609993,1197.2606406609993,1199.279005417,1199.279005417,1199.279005417,1199.279005417,1199.279005417,1199.279005417,1199.279005417,1199.279005417,1201.3145301900004,1201.3145301900004,1201.3145301900004,1201.3145301900004,,,,,,,,,,,,,,,,,,,,,,,,,,,,,,,,,,,,,,,05,007,2022-09-23_14h40.16.066,test2,2022.2.4,59.89105362140533,
0,0,0,0,176,0,176,0,1201.3145301900004,1201.3145301900004,1201.3145301900004,1201.3145301900004,1201.3145301900004,1201.3145301900004,1201.3145301900004,1,1,rojo,1,['N_A'],1202.8324161689998,1202.8324161689998,1202.8324161689998,1202.8324161689998,1204.8518130419998,1204.8518130419998,1204.8518130419998,1204.8518130419998,1204.8518130419998,1204.8518130419998,1204.8518130419998,1204.8518130419998,1206.8869537989995,1206.8869537989995,1206.8869537989995,1206.8869537989995,,,,,,,,,,,,,,,,,,,,,,,,,,,,,,,,,,,,,,,05,007,2022-09-23_14h40.16.066,test2,2022.2.4,59.89105362140533,
