trials_2.thisRepN,trials_2.thisTrialN,trials_2.thisN,trials_2.thisIndex,trials.thisRepN,trials.thisTrialN,trials.thisN,trials.thisIndex,Instrucción2.started,N_A_4.started,N_B_4.started,Exitos_3.started,Dias_3.started,Stimuli_1.started,Stimuli_2.started,Transitions,Rewards,Mode,Stay,Neighbour,Stimuli_3.started,Modo.started,Dias2.started,Exitos2.started,Stimuli_3.stopped,Modo.stopped,Dias2.stopped,Exitos2.stopped,Reward.started,Stimuli_reward.started,Exitos3.started,Dias3.started,Reward.stopped,Stimuli_reward.stopped,Exitos3.stopped,Dias3.stopped,Cue_text.started,Stimuli_4.started,Exitos4.started,Dias4.started,Stimuli_3_3.started,Stimuli_2_3.started,Instrucción.started,N_A.started,N_B.started,N_C.started,Exitos_2.started,Dias_2.started,Stimuli_1_3.started,Stimuli_3_2.started,Stimuli_2_2.started,Pregunta.started,N_A_2.started,N_B_2.started,N_C_2.started,Exitos5.started,Dias5.started,Stimuli_1_2.started,Resp_final_1,Modo2.started,Modo1.started,Pregunta_4.started,Modo3.started,Exitos7.started,Dias6.started,Resp_final_2,Modo1_2.started,Pregunta_3.started,Modo2_2.started,Exitos8.started,Dias7.started,Resp_final_3,Mensaje_Final2.started,Exitos6.started,participant,session,date,expName,psychopyVersion,frameRate,
0,0,0,0,0,0,0,0,20.669097535999754,20.669097535999754,20.669097535999754,20.669097535999754,20.669097535999754,20.669097535999754,20.669097535999754,0,0,0,0,['N_A'],31.663079025000116,31.663079025000116,31.663079025000116,31.663079025000116,33.70026804000008,33.70026804000008,33.70026804000008,33.70026804000008,33.70026804000008,33.70026804000008,33.70026804000008,33.70026804000008,35.735959649000506,35.735959649000506,35.735959649000506,35.735959649000506,,,,,,,,,,,,,,,,,,,,,,,,,,,,,,,,,,,,,,,06,007,2022-09-23_14h40.40.327,test2,2022.2.4,59.96929859725528,
0,0,0,0,1,0,1,0,35.735959649000506,35.735959649000506,35.735959649000506,35.735959649000506,35.735959649000506,35.735959649000506,35.735959649000506,-1,-1,azul,0,['N_B'],38.855329066000195,38.855329066000195,38.855329066000195,38.855329066000195,40.891660264000166,40.891660264000166,40.891660264000166,40.891660264000166,40.891660264000166,40.891660264000166,40.891660264000166,40.891660264000166,42.927333241999804,42.927333241999804,42.927333241999804,42.927333241999804,,,,,,,,,,,,,,,,,,,,,,,,,,,,,,,,,,,,,,,06,007,2022-09-23_14h40.40.327,test2,2022.2.4,59.96929859725528,
0,0,0,0,2,0,2,0,42.927333241999804,42.927333241999804,42.927333241999804,42.927333241999804,42.927333241999804,42.927333241999804,42.927333241999804,1,-1,azul,1,['N_B'],45.34649873299895,45.34649873299895,45.34649873299895,45.34649873299895,47.38172037299955,47.38172037299955,47.38172037299955,47.38172037299955,47.38172037299955,47.38172037299955,47.38172037299955,47.38172037299955,49.41780707500038,49.41780707500038,49.41780707500038,49.41780707500038,,,,,,,,,,,,,,,,,,,,,,,,,,,,,,,,,,,,,,,06,007,2022-09-23_14h40.40.327,test2,2022.2.4,59.96929859725528,
0,0,0,0,3,0,3,0,49.41780707500038,49.41780707500038,49.41780707500038,49.41780707500038,49.41780707500038,49.41780707500038,49.41780707500038,1,1,azul,0,['N_A'],52.80402817600043,52.80402817600043,52.80402817600043,52.80402817600043,54.83946910399936,54.83946910399936,54.83946910399936,54.83946910399936,54.83946910399936,54.83946910399936,54.83946910399936,54.83946910399936,56.87554454099882,56.87554454099882,56.87554454099882,56.87554454099882,,,,,,,,,,,,,,,,,,,,,,,,,,,,,,,,,,,,,,,06,007,2022-09-23_14h40.40.327,test2,2022.2.4,59.96929859725528,
0,0,0,0,4,0,4,0,56.87554454099882,56.87554454099882,56.87554454099882,56.87554454099882,56.87554454099882,56.87554454099882,56.87554454099882,1,-1,rojo,1,['N_A'],58.52782057500008,58.52782057500008,58.52782057500008,58.52782057500008,60.56302545299877,60.56302545299877,60.56302545299877,60.56302545299877,60.56302545299877,60.56302545299877,60.56302545299877,60.56302545299877,62.59718446700026,62.59718446700026,62.59718446700026,62.59718446700026,,,,,,,,,,,,,,,,,,,,,,,,,,,,,,,,,,,,,,,06,007,2022-09-23_14h40.40.327,test2,2022.2.4,59.96929859725528,
0,0,0,0,5,0,5,0,62.59718446700026,62.59718446700026,62.59718446700026,62.59718446700026,62.59718446700026,62.59718446700026,62.59718446700026,1,-1,rojo,0,['N_B'],65.18452900500051,65.18452900500051,65.18452900500051,65.18452900500051,67.22113744099988,67.22113744099988,67.22113744099988,67.22113744099988,67.22113744099988,67.22113744099988,67.22113744099988,67.22113744099988,69.25545407899881,69.25545407899881,69.25545407899881,69.25545407899881,,,,,,,,,,,,,,,,,,,,,,,,,,,,,,,,,,,,,,,06,007,2022-09-23_14h40.40.327,test2,2022.2.4,59.96929859725528,
0,0,0,0,6,0,6,0,69.25545407899881,69.25545407899881,69.25545407899881,69.25545407899881,69.25545407899881,69.25545407899881,69.25545407899881,1,-1,azul,0,['N_A'],71.12495992699951,71.12495992699951,71.12495992699951,71.12495992699951,73.16090401099973,73.16090401099973,73.16090401099973,73.16090401099973,73.16090401099973,73.16090401099973,73.16090401099973,73.16090401099973,75.19592962999923,75.19592962999923,75.19592962999923,75.19592962999923,,,,,,,,,,,,,,,,,,,,,,,,,,,,,,,,,,,,,,,06,007,2022-09-23_14h40.40.327,test2,2022.2.4,59.96929859725528,
0,0,0,0,7,0,7,0,75.19592962999923,75.19592962999923,75.19592962999923,75.19592962999923,75.19592962999923,75.19592962999923,75.19592962999923,1,-1,rojo,0,['N_B'],76.61385006799901,76.61385006799901,76.61385006799901,76.61385006799901,78.64947483700053,78.64947483700053,78.64947483700053,78.64947483700053,78.64947483700053,78.64947483700053,78.64947483700053,78.64947483700053,80.68559254699903,80.68559254699903,80.68559254699903,80.68559254699903,,,,,,,,,,,,,,,,,,,,,,,,,,,,,,,,,,,,,,,06,007,2022-09-23_14h40.40.327,test2,2022.2.4,59.96929859725528,
0,0,0,0,8,0,8,0,80.68559254699903,80.68559254699903,80.68559254699903,80.68559254699903,80.68559254699903,80.68559254699903,80.68559254699903,1,-1,azul,0,['N_A'],83.02131331800047,83.02131331800047,83.02131331800047,83.02131331800047,85.05616697900041,85.05616697900041,85.05616697900041,85.05616697900041,85.05616697900041,85.05616697900041,85.05616697900041,85.05616697900041,87.0927099469991,87.0927099469991,87.0927099469991,87.0927099469991,,,,,,,,,,,,,,,,,,,,,,,,,,,,,,,,,,,,,,,06,007,2022-09-23_14h40.40.327,test2,2022.2.4,59.96929859725528,
0,0,0,0,9,0,9,0,87.0927099469991,87.0927099469991,87.0927099469991,87.0927099469991,87.0927099469991,87.0927099469991,87.0927099469991,1,-1,rojo,0,['N_B'],92.04792730400004,92.04792730400004,92.04792730400004,92.04792730400004,94.08347157599928,94.08347157599928,94.08347157599928,94.08347157599928,94.08347157599928,94.08347157599928,94.08347157599928,94.08347157599928,96.1184899939999,96.1184899939999,96.1184899939999,96.1184899939999,,,,,,,,,,,,,,,,,,,,,,,,,,,,,,,,,,,,,,,06,007,2022-09-23_14h40.40.327,test2,2022.2.4,59.96929859725528,
0,0,0,0,10,0,10,0,96.1184899939999,96.1184899939999,96.1184899939999,96.1184899939999,96.1184899939999,96.1184899939999,96.1184899939999,-1,-1,rojo,1,['N_B'],97.85397933499917,97.85397933499917,97.85397933499917,97.85397933499917,99.88988864699968,99.88988864699968,99.88988864699968,99.88988864699968,99.88988864699968,99.88988864699968,99.88988864699968,99.88988864699968,101.92549600500024,101.92549600500024,101.92549600500024,101.92549600500024,,,,,,,,,,,,,,,,,,,,,,,,,,,,,,,,,,,,,,,06,007,2022-09-23_14h40.40.327,test2,2022.2.4,59.96929859725528,
0,0,0,0,11,0,11,0,101.92549600500024,101.92549600500024,101.92549600500024,101.92549600500024,101.92549600500024,101.92549600500024,101.92549600500024,1,-1,azul,0,['N_A'],103.5776167820004,103.5776167820004,103.5776167820004,103.5776167820004,105.61291828100002,105.61291828100002,105.61291828100002,105.61291828100002,105.61291828100002,105.61291828100002,105.61291828100002,105.61291828100002,107.64818921400001,107.64818921400001,107.64818921400001,107.64818921400001,,,,,,,,,,,,,,,,,,,,,,,,,,,,,,,,,,,,,,,06,007,2022-09-23_14h40.40.327,test2,2022.2.4,59.96929859725528,
0,0,0,0,12,0,12,0,107.64818921400001,107.64818921400001,107.64818921400001,107.64818921400001,107.64818921400001,107.64818921400001,107.64818921400001,-1,-1,azul,0,['N_B'],109.11655633999908,109.11655633999908,109.11655633999908,109.11655633999908,111.1518851059991,111.1518851059991,111.1518851059991,111.1518851059991,111.1518851059991,111.1518851059991,111.1518851059991,111.1518851059991,113.18760546199883,113.18760546199883,113.18760546199883,113.18760546199883,,,,,,,,,,,,,,,,,,,,,,,,,,,,,,,,,,,,,,,06,007,2022-09-23_14h40.40.327,test2,2022.2.4,59.96929859725528,
0,0,0,0,13,0,13,0,113.18760546199883,113.18760546199883,113.18760546199883,113.18760546199883,113.18760546199883,113.18760546199883,113.18760546199883,1,-1,azul,0,['N_A'],115.07332663099987,115.07332663099987,115.07332663099987,115.07332663099987,117.10873473999891,117.10873473999891,117.10873473999891,117.10873473999891,117.10873473999891,117.10873473999891,117.10873473999891,117.10873473999891,119.14437525599897,119.14437525599897,119.14437525599897,119.14437525599897,,,,,,,,,,,,,,,,,,,,,,,,,,,,,,,,,,,,,,,06,007,2022-09-23_14h40.40.327,test2,2022.2.4,59.96929859725528,
0,0,0,0,14,0,14,0,119.14437525599897,119.14437525599897,119.14437525599897,119.14437525599897,119.14437525599897,119.14437525599897,119.14437525599897,1,-1,rojo,0,['N_B'],120.69607485800043,120.69607485800043,120.69607485800043,120.69607485800043,122.73147809699913,122.73147809699913,122.73147809699913,122.73147809699913,122.73147809699913,122.73147809699913,122.73147809699913,122.73147809699913,124.76710462200026,124.76710462200026,124.76710462200026,124.76710462200026,,,,,,,,,,,,,,,,,,,,,,,,,,,,,,,,,,,,,,,06,007,2022-09-23_14h40.40.327,test2,2022.2.4,59.96929859725528,
0,0,0,0,15,0,15,0,124.76710462200026,124.76710462200026,124.76710462200026,124.76710462200026,124.76710462200026,124.76710462200026,124.76710462200026,-1,-1,rojo,0,['N_A'],126.16920791899975,126.16920791899975,126.16920791899975,126.16920791899975,128.20393989500008,128.20393989500008,128.20393989500008,128.20393989500008,128.20393989500008,128.20393989500008,128.20393989500008,128.20393989500008,130.2398194239995,130.2398194239995,130.2398194239995,130.2398194239995,,,,,,,,,,,,,,,,,,,,,,,,,,,,,,,,,,,,,,,06,007,2022-09-23_14h40.40.327,test2,2022.2.4,59.96929859725528,
0,0,0,0,16,0,16,0,130.2398194239995,130.2398194239995,130.2398194239995,130.2398194239995,130.2398194239995,130.2398194239995,130.2398194239995,1,1,rojo,1,['N_A'],131.59160735799924,131.59160735799924,131.59160735799924,131.59160735799924,133.62772910400054,133.62772910400054,133.62772910400054,133.62772910400054,133.62772910400054,133.62772910400054,133.62772910400054,133.62772910400054,135.66215185799956,135.66215185799956,135.66215185799956,135.66215185799956,,,,,,,,,,,,,,,,,,,,,,,,,,,,,,,,,,,,,,,06,007,2022-09-23_14h40.40.327,test2,2022.2.4,59.96929859725528,
0,0,0,0,17,0,17,0,135.66215185799956,135.66215185799956,135.66215185799956,135.66215185799956,135.66215185799956,135.66215185799956,135.66215185799956,-1,-1,azul,0,['N_B'],137.3810904889997,137.3810904889997,137.3810904889997,137.3810904889997,139.41718220999974,139.41718220999974,139.41718220999974,139.41718220999974,139.41718220999974,139.41718220999974,139.41718220999974,139.41718220999974,141.45180361799976,141.45180361799976,141.45180361799976,141.45180361799976,,,,,,,,,,,,,,,,,,,,,,,,,,,,,,,,,,,,,,,06,007,2022-09-23_14h40.40.327,test2,2022.2.4,59.96929859725528,
0,0,0,0,18,0,18,0,141.45180361799976,141.45180361799976,141.45180361799976,141.45180361799976,141.45180361799976,141.45180361799976,141.45180361799976,1,-1,azul,0,['N_A'],143.40442535900002,143.40442535900002,143.40442535900002,143.40442535900002,145.4394152549994,145.4394152549994,145.4394152549994,145.4394152549994,145.4394152549994,145.4394152549994,145.4394152549994,145.4394152549994,147.47599469299894,147.47599469299894,147.47599469299894,147.47599469299894,,,,,,,,,,,,,,,,,,,,,,,,,,,,,,,,,,,,,,,06,007,2022-09-23_14h40.40.327,test2,2022.2.4,59.96929859725528,
0,0,0,0,19,0,19,0,147.47599469299894,147.47599469299894,147.47599469299894,147.47599469299894,147.47599469299894,147.47599469299894,147.47599469299894,1,-1,rojo,0,['N_B'],149.29450115799955,149.29450115799955,149.29450115799955,149.29450115799955,151.32973618799952,151.32973618799952,151.32973618799952,151.32973618799952,151.32973618799952,151.32973618799952,151.32973618799952,151.32973618799952,153.3654453929994,153.3654453929994,153.3654453929994,153.3654453929994,,,,,,,,,,,,,,,,,,,,,,,,,,,,,,,,,,,,,,,06,007,2022-09-23_14h40.40.327,test2,2022.2.4,59.96929859725528,
0,0,0,0,20,0,20,0,153.3654453929994,153.3654453929994,153.3654453929994,153.3654453929994,153.3654453929994,153.3654453929994,153.3654453929994,-1,-1,rojo,0,['N_A'],154.95014716399965,154.95014716399965,154.95014716399965,154.95014716399965,156.9862107730005,156.9862107730005,156.9862107730005,156.9862107730005,156.9862107730005,156.9862107730005,156.9862107730005,156.9862107730005,159.0212273069992,159.0212273069992,159.0212273069992,159.0212273069992,,,,,,,,,,,,,,,,,,,,,,,,,,,,,,,,,,,,,,,06,007,2022-09-23_14h40.40.327,test2,2022.2.4,59.96929859725528,
0,0,0,0,21,0,21,0,159.0212273069992,159.0212273069992,159.0212273069992,159.0212273069992,159.0212273069992,159.0212273069992,159.0212273069992,1,-1,rojo,0,['N_B'],160.45679941799972,160.45679941799972,160.45679941799972,160.45679941799972,162.49175949599885,162.49175949599885,162.49175949599885,162.49175949599885,162.49175949599885,162.49175949599885,162.49175949599885,162.49175949599885,164.52740534999975,164.52740534999975,164.52740534999975,164.52740534999975,,,,,,,,,,,,,,,,,,,,,,,,,,,,,,,,,,,,,,,06,007,2022-09-23_14h40.40.327,test2,2022.2.4,59.96929859725528,
0,0,0,0,22,0,22,0,164.52740534999975,164.52740534999975,164.52740534999975,164.52740534999975,164.52740534999975,164.52740534999975,164.52740534999975,-1,-1,rojo,0,['N_A'],165.97930495699984,165.97930495699984,165.97930495699984,165.97930495699984,168.01550819600016,168.01550819600016,168.01550819600016,168.01550819600016,168.01550819600016,168.01550819600016,168.01550819600016,168.01550819600016,170.04996084999948,170.04996084999948,170.04996084999948,170.04996084999948,,,,,,,,,,,,,,,,,,,,,,,,,,,,,,,,,,,,,,,06,007,2022-09-23_14h40.40.327,test2,2022.2.4,59.96929859725528,
0,0,0,0,23,0,23,0,170.04996084999948,170.04996084999948,170.04996084999948,170.04996084999948,170.04996084999948,170.04996084999948,170.04996084999948,1,-1,rojo,0,['N_B'],171.56876954200015,171.56876954200015,171.56876954200015,171.56876954200015,173.60354077900047,173.60354077900047,173.60354077900047,173.60354077900047,173.60354077900047,173.60354077900047,173.60354077900047,173.60354077900047,175.64049926400003,175.64049926400003,175.64049926400003,175.64049926400003,,,,,,,,,,,,,,,,,,,,,,,,,,,,,,,,,,,,,,,06,007,2022-09-23_14h40.40.327,test2,2022.2.4,59.96929859725528,
0,0,0,0,24,0,24,0,175.64049926400003,175.64049926400003,175.64049926400003,175.64049926400003,175.64049926400003,175.64049926400003,175.64049926400003,-1,-1,rojo,0,['N_A'],177.30851724700005,177.30851724700005,177.30851724700005,177.30851724700005,179.34444503699888,179.34444503699888,179.34444503699888,179.34444503699888,179.34444503699888,179.34444503699888,179.34444503699888,179.34444503699888,181.38013927099928,181.38013927099928,181.38013927099928,181.38013927099928,,,,,,,,,,,,,,,,,,,,,,,,,,,,,,,,,,,,,,,06,007,2022-09-23_14h40.40.327,test2,2022.2.4,59.96929859725528,
0,0,0,0,25,0,25,0,181.38013927099928,181.38013927099928,181.38013927099928,181.38013927099928,181.38013927099928,181.38013927099928,181.38013927099928,1,-1,rojo,0,['N_B'],182.781500264,182.781500264,182.781500264,182.781500264,184.81712165799945,184.81712165799945,184.81712165799945,184.81712165799945,184.81712165799945,184.81712165799945,184.81712165799945,184.81712165799945,186.8522629449999,186.8522629449999,186.8522629449999,186.8522629449999,,,,,,,,,,,,,,,,,,,,,,,,,,,,,,,,,,,,,,,06,007,2022-09-23_14h40.40.327,test2,2022.2.4,59.96929859725528,
0,0,0,0,26,0,26,0,186.8522629449999,186.8522629449999,186.8522629449999,186.8522629449999,186.8522629449999,186.8522629449999,186.8522629449999,1,-1,azul,0,['N_A'],188.57107490999988,188.57107490999988,188.57107490999988,188.57107490999988,190.60701973200048,190.60701973200048,190.60701973200048,190.60701973200048,190.60701973200048,190.60701973200048,190.60701973200048,190.60701973200048,192.64208323799903,192.64208323799903,192.64208323799903,192.64208323799903,,,,,,,,,,,,,,,,,,,,,,,,,,,,,,,,,,,,,,,06,007,2022-09-23_14h40.40.327,test2,2022.2.4,59.96929859725528,
0,0,0,0,27,0,27,0,192.64208323799903,192.64208323799903,192.64208323799903,192.64208323799903,192.64208323799903,192.64208323799903,192.64208323799903,1,-1,rojo,0,['N_B'],194.52745450700058,194.52745450700058,194.52745450700058,194.52745450700058,196.56367298799887,196.56367298799887,196.56367298799887,196.56367298799887,196.56367298799887,196.56367298799887,196.56367298799887,196.56367298799887,198.598429873,198.598429873,198.598429873,198.598429873,,,,,,,,,,,,,,,,,,,,,,,,,,,,,,,,,,,,,,,06,007,2022-09-23_14h40.40.327,test2,2022.2.4,59.96929859725528,
0,0,0,0,28,0,28,0,198.598429873,198.598429873,198.598429873,198.598429873,198.598429873,198.598429873,198.598429873,-1,-1,rojo,0,['N_A'],200.1173431669995,200.1173431669995,200.1173431669995,200.1173431669995,202.15220950799994,202.15220950799994,202.15220950799994,202.15220950799994,202.15220950799994,202.15220950799994,202.15220950799994,202.15220950799994,204.1878502139989,204.1878502139989,204.1878502139989,204.1878502139989,,,,,,,,,,,,,,,,,,,,,,,,,,,,,,,,,,,,,,,06,007,2022-09-23_14h40.40.327,test2,2022.2.4,59.96929859725528,
0,0,0,0,29,0,29,0,204.1878502139989,204.1878502139989,204.1878502139989,204.1878502139989,204.1878502139989,204.1878502139989,204.1878502139989,-1,-1,azul,0,['N_B'],205.93995953800004,205.93995953800004,205.93995953800004,205.93995953800004,207.9758044499995,207.9758044499995,207.9758044499995,207.9758044499995,207.9758044499995,207.9758044499995,207.9758044499995,207.9758044499995,210.01069896700028,210.01069896700028,210.01069896700028,210.01069896700028,,,,,,,,,,,,,,,,,,,,,,,,,,,,,,,,,,,,,,,06,007,2022-09-23_14h40.40.327,test2,2022.2.4,59.96929859725528,
0,0,0,0,30,0,30,0,210.01069896700028,210.01069896700028,210.01069896700028,210.01069896700028,210.01069896700028,210.01069896700028,210.01069896700028,1,-1,azul,0,['N_A'],211.3627926249992,211.3627926249992,211.3627926249992,211.3627926249992,213.39822965599888,213.39822965599888,213.39822965599888,213.39822965599888,213.39822965599888,213.39822965599888,213.39822965599888,213.39822965599888,215.43349403499997,215.43349403499997,215.43349403499997,215.43349403499997,,,,,,,,,,,,,,,,,,,,,,,,,,,,,,,,,,,,,,,06,007,2022-09-23_14h40.40.327,test2,2022.2.4,59.96929859725528,
0,0,0,0,31,0,31,0,215.43349403499997,215.43349403499997,215.43349403499997,215.43349403499997,215.43349403499997,215.43349403499997,215.43349403499997,1,-1,rojo,0,['N_B'],217.6530365409999,217.6530365409999,217.6530365409999,217.6530365409999,219.68846896399918,219.68846896399918,219.68846896399918,219.68846896399918,219.68846896399918,219.68846896399918,219.68846896399918,219.68846896399918,221.7244730530001,221.7244730530001,221.7244730530001,221.7244730530001,,,,,,,,,,,,,,,,,,,,,,,,,,,,,,,,,,,,,,,06,007,2022-09-23_14h40.40.327,test2,2022.2.4,59.96929859725528,
0,0,0,0,32,0,32,0,221.7244730530001,221.7244730530001,221.7244730530001,221.7244730530001,221.7244730530001,221.7244730530001,221.7244730530001,1,-1,azul,0,['N_A'],223.10900991000017,223.10900991000017,223.10900991000017,223.10900991000017,225.14422727599958,225.14422727599958,225.14422727599958,225.14422727599958,225.14422727599958,225.14422727599958,225.14422727599958,225.14422727599958,227.1800452110001,227.1800452110001,227.1800452110001,227.1800452110001,,,,,,,,,,,,,,,,,,,,,,,,,,,,,,,,,,,,,,,06,007,2022-09-23_14h40.40.327,test2,2022.2.4,59.96929859725528,
0,0,0,0,33,0,33,0,227.1800452110001,227.1800452110001,227.1800452110001,227.1800452110001,227.1800452110001,227.1800452110001,227.1800452110001,1,-1,rojo,0,['N_B'],228.56505707900033,228.56505707900033,228.56505707900033,228.56505707900033,230.6009294710002,230.6009294710002,230.6009294710002,230.6009294710002,230.6009294710002,230.6009294710002,230.6009294710002,230.6009294710002,232.63581123099902,232.63581123099902,232.63581123099902,232.63581123099902,,,,,,,,,,,,,,,,,,,,,,,,,,,,,,,,,,,,,,,06,007,2022-09-23_14h40.40.327,test2,2022.2.4,59.96929859725528,
0,0,0,0,34,0,34,0,232.63581123099902,232.63581123099902,232.63581123099902,232.63581123099902,232.63581123099902,232.63581123099902,232.63581123099902,1,-1,azul,0,['N_A'],234.03795813800025,234.03795813800025,234.03795813800025,234.03795813800025,236.07366014199943,236.07366014199943,236.07366014199943,236.07366014199943,236.07366014199943,236.07366014199943,236.07366014199943,236.07366014199943,238.1089145779988,238.1089145779988,238.1089145779988,238.1089145779988,,,,,,,,,,,,,,,,,,,,,,,,,,,,,,,,,,,,,,,06,007,2022-09-23_14h40.40.327,test2,2022.2.4,59.96929859725528,
0,0,0,0,35,0,35,0,238.1089145779988,238.1089145779988,238.1089145779988,238.1089145779988,238.1089145779988,238.1089145779988,238.1089145779988,1,-1,rojo,0,['N_B'],239.76093668499925,239.76093668499925,239.76093668499925,239.76093668499925,241.79586485300024,241.79586485300024,241.79586485300024,241.79586485300024,241.79586485300024,241.79586485300024,241.79586485300024,241.79586485300024,243.8318600019993,243.8318600019993,243.8318600019993,243.8318600019993,,,,,,,,,,,,,,,,,,,,,,,,,,,,,,,,,,,,,,,06,007,2022-09-23_14h40.40.327,test2,2022.2.4,59.96929859725528,
0,0,0,0,36,0,36,0,243.8318600019993,243.8318600019993,243.8318600019993,243.8318600019993,243.8318600019993,243.8318600019993,243.8318600019993,-1,-1,rojo,0,['N_A'],245.38341247400058,245.38341247400058,245.38341247400058,245.38341247400058,247.41974198099888,247.41974198099888,247.41974198099888,247.41974198099888,247.41974198099888,247.41974198099888,247.41974198099888,247.41974198099888,249.4550084120001,249.4550084120001,249.4550084120001,249.4550084120001,,,,,,,,,,,,,,,,,,,,,,,,,,,,,,,,,,,,,,,06,007,2022-09-23_14h40.40.327,test2,2022.2.4,59.96929859725528,
0,0,0,0,37,0,37,0,249.4550084120001,249.4550084120001,249.4550084120001,249.4550084120001,249.4550084120001,249.4550084120001,249.4550084120001,-1,-1,azul,1,['N_A'],251.43995244500002,251.43995244500002,251.43995244500002,251.43995244500002,253.4756355469999,253.4756355469999,253.4756355469999,253.4756355469999,253.4756355469999,253.4756355469999,253.4756355469999,253.4756355469999,255.5113843750005,255.5113843750005,255.5113843750005,255.5113843750005,,,,,,,,,,,,,,,,,,,,,,,,,,,,,,,,,,,,,,,06,007,2022-09-23_14h40.40.327,test2,2022.2.4,59.96929859725528,
0,0,0,0,38,0,38,0,255.5113843750005,255.5113843750005,255.5113843750005,255.5113843750005,255.5113843750005,255.5113843750005,255.5113843750005,1,-1,rojo,0,['N_B'],257.2628747210001,257.2628747210001,257.2628747210001,257.2628747210001,259.2990169450004,259.2990169450004,259.2990169450004,259.2990169450004,259.2990169450004,259.2990169450004,259.2990169450004,259.2990169450004,261.3346784280002,261.3346784280002,261.3346784280002,261.3346784280002,,,,,,,,,,,,,,,,,,,,,,,,,,,,,,,,,,,,,,,06,007,2022-09-23_14h40.40.327,test2,2022.2.4,59.96929859725528,
0,0,0,0,39,0,39,0,261.3346784280002,261.3346784280002,261.3346784280002,261.3346784280002,261.3346784280002,261.3346784280002,261.3346784280002,1,1,azul,1,['N_B'],262.76970542900017,262.76970542900017,262.76970542900017,262.76970542900017,264.80465036500027,264.80465036500027,264.80465036500027,264.80465036500027,264.80465036500027,264.80465036500027,264.80465036500027,264.80465036500027,266.840082581999,266.840082581999,266.840082581999,266.840082581999,,,,,,,,,,,,,,,,,,,,,,,,,,,,,,,,,,,,,,,06,007,2022-09-23_14h40.40.327,test2,2022.2.4,59.96929859725528,
0,0,0,0,40,0,40,0,266.840082581999,266.840082581999,266.840082581999,266.840082581999,266.840082581999,266.840082581999,266.840082581999,1,-1,azul,1,['N_B'],268.2920568979989,268.2920568979989,268.2920568979989,268.2920568979989,270.3282317529993,270.3282317529993,270.3282317529993,270.3282317529993,270.3282317529993,270.3282317529993,270.3282317529993,270.3282317529993,272.36384345999977,272.36384345999977,272.36384345999977,272.36384345999977,,,,,,,,,,,,,,,,,,,,,,,,,,,,,,,,,,,,,,,06,007,2022-09-23_14h40.40.327,test2,2022.2.4,59.96929859725528,
0,0,0,0,41,0,41,0,272.36384345999977,272.36384345999977,272.36384345999977,272.36384345999977,272.36384345999977,272.36384345999977,272.36384345999977,-1,-1,rojo,0,['N_A'],274.49956735199885,274.49956735199885,274.49956735199885,274.49956735199885,276.5350595439995,276.5350595439995,276.5350595439995,276.5350595439995,276.5350595439995,276.5350595439995,276.5350595439995,276.5350595439995,278.570558559999,278.570558559999,278.570558559999,278.570558559999,,,,,,,,,,,,,,,,,,,,,,,,,,,,,,,,,,,,,,,06,007,2022-09-23_14h40.40.327,test2,2022.2.4,59.96929859725528,
0,0,0,0,42,0,42,0,278.570558559999,278.570558559999,278.570558559999,278.570558559999,278.570558559999,278.570558559999,278.570558559999,1,1,rojo,1,['N_A'],280.28878545599946,280.28878545599946,280.28878545599946,280.28878545599946,282.3245852029995,282.3245852029995,282.3245852029995,282.3245852029995,282.3245852029995,282.3245852029995,282.3245852029995,282.3245852029995,284.36021256099957,284.36021256099957,284.36021256099957,284.36021256099957,,,,,,,,,,,,,,,,,,,,,,,,,,,,,,,,,,,,,,,06,007,2022-09-23_14h40.40.327,test2,2022.2.4,59.96929859725528,
0,0,0,0,43,0,43,0,284.36021256099957,284.36021256099957,284.36021256099957,284.36021256099957,284.36021256099957,284.36021256099957,284.36021256099957,1,-1,rojo,1,['N_A'],285.77853183499974,285.77853183499974,285.77853183499974,285.77853183499974,287.81351565799923,287.81351565799923,287.81351565799923,287.81351565799923,287.81351565799923,287.81351565799923,287.81351565799923,287.81351565799923,289.8487932570006,289.8487932570006,289.8487932570006,289.8487932570006,,,,,,,,,,,,,,,,,,,,,,,,,,,,,,,,,,,,,,,06,007,2022-09-23_14h40.40.327,test2,2022.2.4,59.96929859725528,
0,0,0,0,44,0,44,0,289.8487932570006,289.8487932570006,289.8487932570006,289.8487932570006,289.8487932570006,289.8487932570006,289.8487932570006,1,-1,rojo,0,['N_B'],291.234506462999,291.234506462999,291.234506462999,291.234506462999,293.2698229229991,293.2698229229991,293.2698229229991,293.2698229229991,293.2698229229991,293.2698229229991,293.2698229229991,293.2698229229991,295.30519758599985,295.30519758599985,295.30519758599985,295.30519758599985,,,,,,,,,,,,,,,,,,,,,,,,,,,,,,,,,,,,,,,06,007,2022-09-23_14h40.40.327,test2,2022.2.4,59.96929859725528,
0,0,0,0,45,0,45,0,295.30519758599985,295.30519758599985,295.30519758599985,295.30519758599985,295.30519758599985,295.30519758599985,295.30519758599985,1,-1,azul,1,['N_B'],296.94068085300023,296.94068085300023,296.94068085300023,296.94068085300023,298.9763827019997,298.9763827019997,298.9763827019997,298.9763827019997,298.9763827019997,298.9763827019997,298.9763827019997,298.9763827019997,301.0112951020001,301.0112951020001,301.0112951020001,301.0112951020001,,,,,,,,,,,,,,,,,,,,,,,,,,,,,,,,,,,,,,,06,007,2022-09-23_14h40.40.327,test2,2022.2.4,59.96929859725528,
0,0,0,0,46,0,46,0,301.0112951020001,301.0112951020001,301.0112951020001,301.0112951020001,301.0112951020001,301.0112951020001,301.0112951020001,1,-1,azul,0,['N_A'],302.46364912900026,302.46364912900026,302.46364912900026,302.46364912900026,304.4982970889996,304.4982970889996,304.4982970889996,304.4982970889996,304.4982970889996,304.4982970889996,304.4982970889996,304.4982970889996,306.53409829799966,306.53409829799966,306.53409829799966,306.53409829799966,,,,,,,,,,,,,,,,,,,,,,,,,,,,,,,,,,,,,,,06,007,2022-09-23_14h40.40.327,test2,2022.2.4,59.96929859725528,
0,0,0,0,47,0,47,0,306.53409829799966,306.53409829799966,306.53409829799966,306.53409829799966,306.53409829799966,306.53409829799966,306.53409829799966,-1,-1,azul,0,['N_B'],308.469343929999,308.469343929999,308.469343929999,308.469343929999,310.50545475499894,310.50545475499894,310.50545475499894,310.50545475499894,310.50545475499894,310.50545475499894,310.50545475499894,310.50545475499894,312.5407760269991,312.5407760269991,312.5407760269991,312.5407760269991,,,,,,,,,,,,,,,,,,,,,,,,,,,,,,,,,,,,,,,06,007,2022-09-23_14h40.40.327,test2,2022.2.4,59.96929859725528,
0,0,0,0,48,0,48,0,312.5407760269991,312.5407760269991,312.5407760269991,312.5407760269991,312.5407760269991,312.5407760269991,312.5407760269991,1,-1,azul,1,['N_B'],313.9428947839988,313.9428947839988,313.9428947839988,313.9428947839988,315.97799043899977,315.97799043899977,315.97799043899977,315.97799043899977,315.97799043899977,315.97799043899977,315.97799043899977,315.97799043899977,318.01348877499913,318.01348877499913,318.01348877499913,318.01348877499913,,,,,,,,,,,,,,,,,,,,,,,,,,,,,,,,,,,,,,,06,007,2022-09-23_14h40.40.327,test2,2022.2.4,59.96929859725528,
0,0,0,0,49,0,49,0,318.01348877499913,318.01348877499913,318.01348877499913,318.01348877499913,318.01348877499913,318.01348877499913,318.01348877499913,1,-1,azul,1,['N_B'],319.3480706549999,319.3480706549999,319.3480706549999,319.3480706549999,321.38369996799884,321.38369996799884,321.38369996799884,321.38369996799884,321.38369996799884,321.38369996799884,321.38369996799884,321.38369996799884,323.4203572669994,323.4203572669994,323.4203572669994,323.4203572669994,,,,,,,,,,,,,,,,,,,,,,,,,,,,,,,,,,,,,,,06,007,2022-09-23_14h40.40.327,test2,2022.2.4,59.96929859725528,
0,0,0,0,50,0,50,0,323.4203572669994,323.4203572669994,323.4203572669994,323.4203572669994,323.4203572669994,323.4203572669994,323.4203572669994,1,1,azul,0,['N_A'],326.08893504200023,326.08893504200023,326.08893504200023,326.08893504200023,328.12455760599914,328.12455760599914,328.12455760599914,328.12455760599914,328.12455760599914,328.12455760599914,328.12455760599914,328.12455760599914,330.1604889150003,330.1604889150003,330.1604889150003,330.1604889150003,,,,,,,,,,,,,,,,,,,,,,,,,,,,,,,,,,,,,,,06,007,2022-09-23_14h40.40.327,test2,2022.2.4,59.96929859725528,
0,0,0,0,51,0,51,0,330.1604889150003,330.1604889150003,330.1604889150003,330.1604889150003,330.1604889150003,330.1604889150003,330.1604889150003,1,-1,rojo,0,['N_B'],331.62821255400013,331.62821255400013,331.62821255400013,331.62821255400013,333.66425328399964,333.66425328399964,333.66425328399964,333.66425328399964,333.66425328399964,333.66425328399964,333.66425328399964,333.66425328399964,335.7000026610003,335.7000026610003,335.7000026610003,335.7000026610003,,,,,,,,,,,,,,,,,,,,,,,,,,,,,,,,,,,,,,,06,007,2022-09-23_14h40.40.327,test2,2022.2.4,59.96929859725528,
0,0,0,0,52,0,52,0,335.7000026610003,335.7000026610003,335.7000026610003,335.7000026610003,335.7000026610003,335.7000026610003,335.7000026610003,-1,-1,rojo,0,['N_A'],344.0252680350004,344.0252680350004,344.0252680350004,344.0252680350004,346.0621853569992,346.0621853569992,346.0621853569992,346.0621853569992,346.0621853569992,346.0621853569992,346.0621853569992,346.0621853569992,348.0977088309992,348.0977088309992,348.0977088309992,348.0977088309992,,,,,,,,,,,,,,,,,,,,,,,,,,,,,,,,,,,,,,,06,007,2022-09-23_14h40.40.327,test2,2022.2.4,59.96929859725528,
0,0,0,0,53,0,53,0,348.0977088309992,348.0977088309992,348.0977088309992,348.0977088309992,348.0977088309992,348.0977088309992,348.0977088309992,1,-1,rojo,0,['N_B'],349.64848138399975,349.64848138399975,349.64848138399975,349.64848138399975,351.6843646739999,351.6843646739999,351.6843646739999,351.6843646739999,351.6843646739999,351.6843646739999,351.6843646739999,351.6843646739999,353.7192876099998,353.7192876099998,353.7192876099998,353.7192876099998,,,,,,,,,,,,,,,,,,,,,,,,,,,,,,,,,,,,,,,06,007,2022-09-23_14h40.40.327,test2,2022.2.4,59.96929859725528,
0,0,0,0,54,0,54,0,353.7192876099998,353.7192876099998,353.7192876099998,353.7192876099998,353.7192876099998,353.7192876099998,353.7192876099998,-1,-1,rojo,1,['N_B'],355.60464941899954,355.60464941899954,355.60464941899954,355.60464941899954,357.6412204930002,357.6412204930002,357.6412204930002,357.6412204930002,357.6412204930002,357.6412204930002,357.6412204930002,357.6412204930002,359.6763541780001,359.6763541780001,359.6763541780001,359.6763541780001,,,,,,,,,,,,,,,,,,,,,,,,,,,,,,,,,,,,,,,06,007,2022-09-23_14h40.40.327,test2,2022.2.4,59.96929859725528,
0,0,0,0,55,0,55,0,359.6763541780001,359.6763541780001,359.6763541780001,359.6763541780001,359.6763541780001,359.6763541780001,359.6763541780001,-1,-1,rojo,0,['N_A'],361.1611867339998,361.1611867339998,361.1611867339998,361.1611867339998,363.197440771999,363.197440771999,363.197440771999,363.197440771999,363.197440771999,363.197440771999,363.197440771999,363.197440771999,365.2321879539995,365.2321879539995,365.2321879539995,365.2321879539995,,,,,,,,,,,,,,,,,,,,,,,,,,,,,,,,,,,,,,,06,007,2022-09-23_14h40.40.327,test2,2022.2.4,59.96929859725528,
0,0,0,0,56,0,56,0,365.2321879539995,365.2321879539995,365.2321879539995,365.2321879539995,365.2321879539995,365.2321879539995,365.2321879539995,1,-1,rojo,1,['N_A'],367.3678434689991,367.3678434689991,367.3678434689991,367.3678434689991,369.40374249399974,369.40374249399974,369.40374249399974,369.40374249399974,369.40374249399974,369.40374249399974,369.40374249399974,369.40374249399974,371.4388566939997,371.4388566939997,371.4388566939997,371.4388566939997,,,,,,,,,,,,,,,,,,,,,,,,,,,,,,,,,,,,,,,06,007,2022-09-23_14h40.40.327,test2,2022.2.4,59.96929859725528,
0,0,0,0,57,0,57,0,371.4388566939997,371.4388566939997,371.4388566939997,371.4388566939997,371.4388566939997,371.4388566939997,371.4388566939997,1,-1,rojo,0,['N_B'],373.00745938199907,373.00745938199907,373.00745938199907,373.00745938199907,375.0431982350001,375.0431982350001,375.0431982350001,375.0431982350001,375.0431982350001,375.0431982350001,375.0431982350001,375.0431982350001,377.0794610339999,377.0794610339999,377.0794610339999,377.0794610339999,,,,,,,,,,,,,,,,,,,,,,,,,,,,,,,,,,,,,,,06,007,2022-09-23_14h40.40.327,test2,2022.2.4,59.96929859725528,
0,0,0,0,58,0,58,0,377.0794610339999,377.0794610339999,377.0794610339999,377.0794610339999,377.0794610339999,377.0794610339999,377.0794610339999,-1,-1,rojo,1,['N_B'],379.41440689699994,379.41440689699994,379.41440689699994,379.41440689699994,381.45099059399945,381.45099059399945,381.45099059399945,381.45099059399945,381.45099059399945,381.45099059399945,381.45099059399945,381.45099059399945,383.48630256700017,383.48630256700017,383.48630256700017,383.48630256700017,,,,,,,,,,,,,,,,,,,,,,,,,,,,,,,,,,,,,,,06,007,2022-09-23_14h40.40.327,test2,2022.2.4,59.96929859725528,
0,0,0,0,59,0,59,0,383.48630256700017,383.48630256700017,383.48630256700017,383.48630256700017,383.48630256700017,383.48630256700017,383.48630256700017,-1,-1,rojo,1,['N_B'],385.4049663459991,385.4049663459991,385.4049663459991,385.4049663459991,387.4406978949992,387.4406978949992,387.4406978949992,387.4406978949992,387.4406978949992,387.4406978949992,387.4406978949992,387.4406978949992,389.4760791039989,389.4760791039989,389.4760791039989,389.4760791039989,,,,,,,,,,,,,,,,,,,,,,,,,,,,,,,,,,,,,,,06,007,2022-09-23_14h40.40.327,test2,2022.2.4,59.96929859725528,
0,0,0,0,60,0,60,0,389.4760791039989,389.4760791039989,389.4760791039989,389.4760791039989,389.4760791039989,389.4760791039989,389.4760791039989,-1,-1,rojo,1,['N_B'],391.2280817310002,391.2280817310002,391.2280817310002,391.2280817310002,393.26355871099986,393.26355871099986,393.26355871099986,393.26355871099986,393.26355871099986,393.26355871099986,393.26355871099986,393.26355871099986,395.29889981999986,395.29889981999986,395.29889981999986,395.29889981999986,,,,,,,,,,,,,,,,,,,,,,,,,,,,,,,,,,,,,,,06,007,2022-09-23_14h40.40.327,test2,2022.2.4,59.96929859725528,
0,0,0,0,61,0,61,0,395.29889981999986,395.29889981999986,395.29889981999986,395.29889981999986,395.29889981999986,395.29889981999986,395.29889981999986,1,1,azul,1,['N_B'],396.6835805589999,396.6835805589999,396.6835805589999,396.6835805589999,398.7199102350005,398.7199102350005,398.7199102350005,398.7199102350005,398.7199102350005,398.7199102350005,398.7199102350005,398.7199102350005,400.754729201999,400.754729201999,400.754729201999,400.754729201999,,,,,,,,,,,,,,,,,,,,,,,,,,,,,,,,,,,,,,,06,007,2022-09-23_14h40.40.327,test2,2022.2.4,59.96929859725528,
0,0,0,0,62,0,62,0,400.754729201999,400.754729201999,400.754729201999,400.754729201999,400.754729201999,400.754729201999,400.754729201999,1,-1,azul,1,['N_B'],402.6398333519992,402.6398333519992,402.6398333519992,402.6398333519992,404.67598407900005,404.67598407900005,404.67598407900005,404.67598407900005,404.67598407900005,404.67598407900005,404.67598407900005,404.67598407900005,406.71175067399963,406.71175067399963,406.71175067399963,406.71175067399963,,,,,,,,,,,,,,,,,,,,,,,,,,,,,,,,,,,,,,,06,007,2022-09-23_14h40.40.327,test2,2022.2.4,59.96929859725528,
0,0,0,0,63,0,63,0,406.71175067399963,406.71175067399963,406.71175067399963,406.71175067399963,406.71175067399963,406.71175067399963,406.71175067399963,1,1,azul,1,['N_B'],408.12945765899894,408.12945765899894,408.12945765899894,408.12945765899894,410.16530568899907,410.16530568899907,410.16530568899907,410.16530568899907,410.16530568899907,410.16530568899907,410.16530568899907,410.16530568899907,412.20050022800024,412.20050022800024,412.20050022800024,412.20050022800024,,,,,,,,,,,,,,,,,,,,,,,,,,,,,,,,,,,,,,,06,007,2022-09-23_14h40.40.327,test2,2022.2.4,59.96929859725528,
0,0,0,0,64,0,64,0,412.20050022800024,412.20050022800024,412.20050022800024,412.20050022800024,412.20050022800024,412.20050022800024,412.20050022800024,1,-1,azul,1,['N_B'],413.6521998249991,413.6521998249991,413.6521998249991,413.6521998249991,415.6876452870001,415.6876452870001,415.6876452870001,415.6876452870001,415.6876452870001,415.6876452870001,415.6876452870001,415.6876452870001,417.7241155819993,417.7241155819993,417.7241155819993,417.7241155819993,,,,,,,,,,,,,,,,,,,,,,,,,,,,,,,,,,,,,,,06,007,2022-09-23_14h40.40.327,test2,2022.2.4,59.96929859725528,
0,0,0,0,65,0,65,0,417.7241155819993,417.7241155819993,417.7241155819993,417.7241155819993,417.7241155819993,417.7241155819993,417.7241155819993,1,-1,azul,1,['N_B'],419.2593282830003,419.2593282830003,419.2593282830003,419.2593282830003,421.29395711100005,421.29395711100005,421.29395711100005,421.29395711100005,421.29395711100005,421.29395711100005,421.29395711100005,421.29395711100005,423.3296240799991,423.3296240799991,423.3296240799991,423.3296240799991,,,,,,,,,,,,,,,,,,,,,,,,,,,,,,,,,,,,,,,06,007,2022-09-23_14h40.40.327,test2,2022.2.4,59.96929859725528,
0,0,0,0,66,0,66,0,423.3296240799991,423.3296240799991,423.3296240799991,423.3296240799991,423.3296240799991,423.3296240799991,423.3296240799991,-1,-1,rojo,1,['N_B'],424.6811868149998,424.6811868149998,424.6811868149998,424.6811868149998,426.7169679660001,426.7169679660001,426.7169679660001,426.7169679660001,426.7169679660001,426.7169679660001,426.7169679660001,426.7169679660001,428.7529960159991,428.7529960159991,428.7529960159991,428.7529960159991,,,,,,,,,,,,,,,,,,,,,,,,,,,,,,,,,,,,,,,06,007,2022-09-23_14h40.40.327,test2,2022.2.4,59.96929859725528,
0,0,0,0,67,0,67,0,428.7529960159991,428.7529960159991,428.7529960159991,428.7529960159991,428.7529960159991,428.7529960159991,428.7529960159991,1,-1,azul,1,['N_B'],430.4544604700004,430.4544604700004,430.4544604700004,430.4544604700004,432.4900407900004,432.4900407900004,432.4900407900004,432.4900407900004,432.4900407900004,432.4900407900004,432.4900407900004,432.4900407900004,434.5252697169999,434.5252697169999,434.5252697169999,434.5252697169999,,,,,,,,,,,,,,,,,,,,,,,,,,,,,,,,,,,,,,,06,007,2022-09-23_14h40.40.327,test2,2022.2.4,59.96929859725528,
0,0,0,0,68,0,68,0,434.5252697169999,434.5252697169999,434.5252697169999,434.5252697169999,434.5252697169999,434.5252697169999,434.5252697169999,1,1,azul,1,['N_B'],436.3110598679996,436.3110598679996,436.3110598679996,436.3110598679996,438.34652198000003,438.34652198000003,438.34652198000003,438.34652198000003,438.34652198000003,438.34652198000003,438.34652198000003,438.34652198000003,440.38182725299885,440.38182725299885,440.38182725299885,440.38182725299885,,,,,,,,,,,,,,,,,,,,,,,,,,,,,,,,,,,,,,,06,007,2022-09-23_14h40.40.327,test2,2022.2.4,59.96929859725528,
0,0,0,0,69,0,69,0,440.38182725299885,440.38182725299885,440.38182725299885,440.38182725299885,440.38182725299885,440.38182725299885,440.38182725299885,1,-1,azul,1,['N_B'],442.3504523499996,442.3504523499996,442.3504523499996,442.3504523499996,444.38628436,444.38628436,444.38628436,444.38628436,444.38628436,444.38628436,444.38628436,444.38628436,446.4218922910004,446.4218922910004,446.4218922910004,446.4218922910004,,,,,,,,,,,,,,,,,,,,,,,,,,,,,,,,,,,,,,,06,007,2022-09-23_14h40.40.327,test2,2022.2.4,59.96929859725528,
0,0,0,0,70,0,70,0,446.4218922910004,446.4218922910004,446.4218922910004,446.4218922910004,446.4218922910004,446.4218922910004,446.4218922910004,1,-1,azul,1,['N_B'],448.2408930419988,448.2408930419988,448.2408930419988,448.2408930419988,450.2761733369989,450.2761733369989,450.2761733369989,450.2761733369989,450.2761733369989,450.2761733369989,450.2761733369989,450.2761733369989,452.3121823729998,452.3121823729998,452.3121823729998,452.3121823729998,,,,,,,,,,,,,,,,,,,,,,,,,,,,,,,,,,,,,,,06,007,2022-09-23_14h40.40.327,test2,2022.2.4,59.96929859725528,
0,0,0,0,71,0,71,0,452.3121823729998,452.3121823729998,452.3121823729998,452.3121823729998,452.3121823729998,452.3121823729998,452.3121823729998,1,-1,azul,1,['N_B'],453.8964903449996,453.8964903449996,453.8964903449996,453.8964903449996,455.9330180429988,455.9330180429988,455.9330180429988,455.9330180429988,455.9330180429988,455.9330180429988,455.9330180429988,455.9330180429988,457.9683403170002,457.9683403170002,457.9683403170002,457.9683403170002,,,,,,,,,,,,,,,,,,,,,,,,,,,,,,,,,,,,,,,06,007,2022-09-23_14h40.40.327,test2,2022.2.4,59.96929859725528,
0,0,0,0,72,0,72,0,457.9683403170002,457.9683403170002,457.9683403170002,457.9683403170002,457.9683403170002,457.9683403170002,457.9683403170002,1,-1,azul,1,['N_B'],459.7871176899989,459.7871176899989,459.7871176899989,459.7871176899989,461.8225194259994,461.8225194259994,461.8225194259994,461.8225194259994,461.8225194259994,461.8225194259994,461.8225194259994,461.8225194259994,463.8583811339995,463.8583811339995,463.8583811339995,463.8583811339995,,,,,,,,,,,,,,,,,,,,,,,,,,,,,,,,,,,,,,,06,007,2022-09-23_14h40.40.327,test2,2022.2.4,59.96929859725528,
0,0,0,0,73,0,73,0,463.8583811339995,463.8583811339995,463.8583811339995,463.8583811339995,463.8583811339995,463.8583811339995,463.8583811339995,1,-1,azul,1,['N_B'],465.37672488799944,465.37672488799944,465.37672488799944,465.37672488799944,467.4124440510004,467.4124440510004,467.4124440510004,467.4124440510004,467.4124440510004,467.4124440510004,467.4124440510004,467.4124440510004,469.44711981100045,469.44711981100045,469.44711981100045,469.44711981100045,,,,,,,,,,,,,,,,,,,,,,,,,,,,,,,,,,,,,,,06,007,2022-09-23_14h40.40.327,test2,2022.2.4,59.96929859725528,
0,0,0,0,74,0,74,0,469.44711981100045,469.44711981100045,469.44711981100045,469.44711981100045,469.44711981100045,469.44711981100045,469.44711981100045,1,-1,azul,1,['N_B'],470.96563251099906,470.96563251099906,470.96563251099906,470.96563251099906,473.00194843399913,473.00194843399913,473.00194843399913,473.00194843399913,473.00194843399913,473.00194843399913,473.00194843399913,473.00194843399913,475.0367899459998,475.0367899459998,475.0367899459998,475.0367899459998,,,,,,,,,,,,,,,,,,,,,,,,,,,,,,,,,,,,,,,06,007,2022-09-23_14h40.40.327,test2,2022.2.4,59.96929859725528,
0,0,0,0,75,0,75,0,475.0367899459998,475.0367899459998,475.0367899459998,475.0367899459998,475.0367899459998,475.0367899459998,475.0367899459998,1,-1,azul,1,['N_B'],476.62221956899884,476.62221956899884,476.62221956899884,476.62221956899884,478.6580086649992,478.6580086649992,478.6580086649992,478.6580086649992,478.6580086649992,478.6580086649992,478.6580086649992,478.6580086649992,480.6924867859998,480.6924867859998,480.6924867859998,480.6924867859998,,,,,,,,,,,,,,,,,,,,,,,,,,,,,,,,,,,,,,,06,007,2022-09-23_14h40.40.327,test2,2022.2.4,59.96929859725528,
0,0,0,0,76,0,76,0,480.6924867859998,480.6924867859998,480.6924867859998,480.6924867859998,480.6924867859998,480.6924867859998,480.6924867859998,1,-1,azul,0,['N_A'],482.3948002300003,482.3948002300003,482.3948002300003,482.3948002300003,484.4309025570001,484.4309025570001,484.4309025570001,484.4309025570001,484.4309025570001,484.4309025570001,484.4309025570001,484.4309025570001,486.4666172239995,486.4666172239995,486.4666172239995,486.4666172239995,,,,,,,,,,,,,,,,,,,,,,,,,,,,,,,,,,,,,,,06,007,2022-09-23_14h40.40.327,test2,2022.2.4,59.96929859725528,
0,0,0,0,77,0,77,0,486.4666172239995,486.4666172239995,486.4666172239995,486.4666172239995,486.4666172239995,486.4666172239995,486.4666172239995,1,-1,rojo,1,['N_A'],488.95214183700045,488.95214183700045,488.95214183700045,488.95214183700045,490.9882903509988,490.9882903509988,490.9882903509988,490.9882903509988,490.9882903509988,490.9882903509988,490.9882903509988,490.9882903509988,493.0234135619994,493.0234135619994,493.0234135619994,493.0234135619994,,,,,,,,,,,,,,,,,,,,,,,,,,,,,,,,,,,,,,,06,007,2022-09-23_14h40.40.327,test2,2022.2.4,59.96929859725528,
0,0,0,0,78,0,78,0,493.0234135619994,493.0234135619994,493.0234135619994,493.0234135619994,493.0234135619994,493.0234135619994,493.0234135619994,1,-1,rojo,1,['N_A'],494.8092601879998,494.8092601879998,494.8092601879998,494.8092601879998,496.8444753599997,496.8444753599997,496.8444753599997,496.8444753599997,496.8444753599997,496.8444753599997,496.8444753599997,496.8444753599997,498.8799659460001,498.8799659460001,498.8799659460001,498.8799659460001,,,,,,,,,,,,,,,,,,,,,,,,,,,,,,,,,,,,,,,06,007,2022-09-23_14h40.40.327,test2,2022.2.4,59.96929859725528,
0,0,0,0,79,0,79,0,498.8799659460001,498.8799659460001,498.8799659460001,498.8799659460001,498.8799659460001,498.8799659460001,498.8799659460001,1,-1,rojo,0,['N_B'],500.29774806299974,500.29774806299974,500.29774806299974,500.29774806299974,502.33335788600016,502.33335788600016,502.33335788600016,502.33335788600016,502.33335788600016,502.33335788600016,502.33335788600016,502.33335788600016,504.36961065799915,504.36961065799915,504.36961065799915,504.36961065799915,,,,,,,,,,,,,,,,,,,,,,,,,,,,,,,,,,,,,,,06,007,2022-09-23_14h40.40.327,test2,2022.2.4,59.96929859725528,
0,0,0,0,80,0,80,0,504.36961065799915,504.36961065799915,504.36961065799915,504.36961065799915,504.36961065799915,504.36961065799915,504.36961065799915,-1,-1,rojo,0,['N_A'],505.72085284199966,505.72085284199966,505.72085284199966,505.72085284199966,507.7561855740005,507.7561855740005,507.7561855740005,507.7561855740005,507.7561855740005,507.7561855740005,507.7561855740005,507.7561855740005,509.7921189089993,509.7921189089993,509.7921189089993,509.7921189089993,,,,,,,,,,,,,,,,,,,,,,,,,,,,,,,,,,,,,,,06,007,2022-09-23_14h40.40.327,test2,2022.2.4,59.96929859725528,
0,0,0,0,81,0,81,0,509.7921189089993,509.7921189089993,509.7921189089993,509.7921189089993,509.7921189089993,509.7921189089993,509.7921189089993,-1,-1,azul,0,['N_B'],511.2097928439998,511.2097928439998,511.2097928439998,511.2097928439998,513.2458382309997,513.2458382309997,513.2458382309997,513.2458382309997,513.2458382309997,513.2458382309997,513.2458382309997,513.2458382309997,515.2812877029992,515.2812877029992,515.2812877029992,515.2812877029992,,,,,,,,,,,,,,,,,,,,,,,,,,,,,,,,,,,,,,,06,007,2022-09-23_14h40.40.327,test2,2022.2.4,59.96929859725528,
0,0,0,0,82,0,82,0,515.2812877029992,515.2812877029992,515.2812877029992,515.2812877029992,515.2812877029992,515.2812877029992,515.2812877029992,1,-1,azul,0,['N_A'],517.9169458899996,517.9169458899996,517.9169458899996,517.9169458899996,519.9536049590006,519.9536049590006,519.9536049590006,519.9536049590006,519.9536049590006,519.9536049590006,519.9536049590006,519.9536049590006,521.9883178,521.9883178,521.9883178,521.9883178,,,,,,,,,,,,,,,,,,,,,,,,,,,,,,,,,,,,,,,06,007,2022-09-23_14h40.40.327,test2,2022.2.4,59.96929859725528,
0,0,0,0,83,0,83,0,521.9883178,521.9883178,521.9883178,521.9883178,521.9883178,521.9883178,521.9883178,1,-1,rojo,0,['N_B'],524.9416585119998,524.9416585119998,524.9416585119998,524.9416585119998,526.9773919599993,526.9773919599993,526.9773919599993,526.9773919599993,526.9773919599993,526.9773919599993,526.9773919599993,526.9773919599993,529.0132053289999,529.0132053289999,529.0132053289999,529.0132053289999,,,,,,,,,,,,,,,,,,,,,,,,,,,,,,,,,,,,,,,06,007,2022-09-23_14h40.40.327,test2,2022.2.4,59.96929859725528,
0,0,0,0,84,0,84,0,529.0132053289999,529.0132053289999,529.0132053289999,529.0132053289999,529.0132053289999,529.0132053289999,529.0132053289999,1,-1,azul,0,['N_A'],531.1654738919988,531.1654738919988,531.1654738919988,531.1654738919988,533.2001665339994,533.2001665339994,533.2001665339994,533.2001665339994,533.2001665339994,533.2001665339994,533.2001665339994,533.2001665339994,535.2368668349991,535.2368668349991,535.2368668349991,535.2368668349991,,,,,,,,,,,,,,,,,,,,,,,,,,,,,,,,,,,,,,,06,007,2022-09-23_14h40.40.327,test2,2022.2.4,59.96929859725528,
0,0,0,0,85,0,85,0,535.2368668349991,535.2368668349991,535.2368668349991,535.2368668349991,535.2368668349991,535.2368668349991,535.2368668349991,1,-1,rojo,0,['N_B'],536.5878780919993,536.5878780919993,536.5878780919993,536.5878780919993,538.6239253849999,538.6239253849999,538.6239253849999,538.6239253849999,538.6239253849999,538.6239253849999,538.6239253849999,538.6239253849999,540.659216914999,540.659216914999,540.659216914999,540.659216914999,,,,,,,,,,,,,,,,,,,,,,,,,,,,,,,,,,,,,,,06,007,2022-09-23_14h40.40.327,test2,2022.2.4,59.96929859725528,
0,0,0,0,86,0,86,0,540.659216914999,540.659216914999,540.659216914999,540.659216914999,540.659216914999,540.659216914999,540.659216914999,1,-1,azul,0,['N_A'],542.4941418439994,542.4941418439994,542.4941418439994,542.4941418439994,544.5303422439993,544.5303422439993,544.5303422439993,544.5303422439993,544.5303422439993,544.5303422439993,544.5303422439993,544.5303422439993,546.5664139580003,546.5664139580003,546.5664139580003,546.5664139580003,,,,,,,,,,,,,,,,,,,,,,,,,,,,,,,,,,,,,,,06,007,2022-09-23_14h40.40.327,test2,2022.2.4,59.96929859725528,
0,0,0,0,87,0,87,0,546.5664139580003,546.5664139580003,546.5664139580003,546.5664139580003,546.5664139580003,546.5664139580003,546.5664139580003,1,1,rojo,0,['N_B'],548.952092395999,548.952092395999,548.952092395999,548.952092395999,550.987509954999,550.987509954999,550.987509954999,550.987509954999,550.987509954999,550.987509954999,550.987509954999,550.987509954999,553.0231060149999,553.0231060149999,553.0231060149999,553.0231060149999,,,,,,,,,,,,,,,,,,,,,,,,,,,,,,,,,,,,,,,06,007,2022-09-23_14h40.40.327,test2,2022.2.4,59.96929859725528,
0,0,0,0,88,0,88,0,553.0231060149999,553.0231060149999,553.0231060149999,553.0231060149999,553.0231060149999,553.0231060149999,553.0231060149999,-1,-1,rojo,0,['N_A'],554.4575107250002,554.4575107250002,554.4575107250002,554.4575107250002,556.4930834509996,556.4930834509996,556.4930834509996,556.4930834509996,556.4930834509996,556.4930834509996,556.4930834509996,556.4930834509996,558.5291333280002,558.5291333280002,558.5291333280002,558.5291333280002,,,,,,,,,,,,,,,,,,,,,,,,,,,,,,,,,,,,,,,06,007,2022-09-23_14h40.40.327,test2,2022.2.4,59.96929859725528,
0,0,0,0,89,0,89,0,558.5291333280002,558.5291333280002,558.5291333280002,558.5291333280002,558.5291333280002,558.5291333280002,558.5291333280002,1,-1,rojo,0,['N_B'],559.8805120529996,559.8805120529996,559.8805120529996,559.8805120529996,561.9165287349988,561.9165287349988,561.9165287349988,561.9165287349988,561.9165287349988,561.9165287349988,561.9165287349988,561.9165287349988,563.9508047199997,563.9508047199997,563.9508047199997,563.9508047199997,,,,,,,,,,,,,,,,,,,,,,,,,,,,,,,,,,,,,,,06,007,2022-09-23_14h40.40.327,test2,2022.2.4,59.96929859725528,
0,0,0,0,90,0,90,0,563.9508047199997,563.9508047199997,563.9508047199997,563.9508047199997,563.9508047199997,563.9508047199997,563.9508047199997,1,-1,azul,0,['N_A'],565.2695288849991,565.2695288849991,565.2695288849991,565.2695288849991,567.3053837039988,567.3053837039988,567.3053837039988,567.3053837039988,567.3053837039988,567.3053837039988,567.3053837039988,567.3053837039988,569.3413291389988,569.3413291389988,569.3413291389988,569.3413291389988,,,,,,,,,,,,,,,,,,,,,,,,,,,,,,,,,,,,,,,06,007,2022-09-23_14h40.40.327,test2,2022.2.4,59.96929859725528,
0,0,0,0,91,0,91,0,569.3413291389988,569.3413291389988,569.3413291389988,569.3413291389988,569.3413291389988,569.3413291389988,569.3413291389988,1,-1,rojo,0,['N_B'],571.559916016,571.559916016,571.559916016,571.559916016,573.5957990690003,573.5957990690003,573.5957990690003,573.5957990690003,573.5957990690003,573.5957990690003,573.5957990690003,573.5957990690003,575.6311049369997,575.6311049369997,575.6311049369997,575.6311049369997,,,,,,,,,,,,,,,,,,,,,,,,,,,,,,,,,,,,,,,06,007,2022-09-23_14h40.40.327,test2,2022.2.4,59.96929859725528,
0,0,0,0,92,0,92,0,575.6311049369997,575.6311049369997,575.6311049369997,575.6311049369997,575.6311049369997,575.6311049369997,575.6311049369997,-1,-1,rojo,1,['N_B'],577.1162513759991,577.1162513759991,577.1162513759991,577.1162513759991,579.1513381679997,579.1513381679997,579.1513381679997,579.1513381679997,579.1513381679997,579.1513381679997,579.1513381679997,579.1513381679997,581.187482288,581.187482288,581.187482288,581.187482288,,,,,,,,,,,,,,,,,,,,,,,,,,,,,,,,,,,,,,,06,007,2022-09-23_14h40.40.327,test2,2022.2.4,59.96929859725528,
0,0,0,0,93,0,93,0,581.187482288,581.187482288,581.187482288,581.187482288,581.187482288,581.187482288,581.187482288,-1,-1,rojo,1,['N_B'],582.8062168510005,582.8062168510005,582.8062168510005,582.8062168510005,584.8412109559995,584.8412109559995,584.8412109559995,584.8412109559995,584.8412109559995,584.8412109559995,584.8412109559995,584.8412109559995,586.877034789999,586.877034789999,586.877034789999,586.877034789999,,,,,,,,,,,,,,,,,,,,,,,,,,,,,,,,,,,,,,,06,007,2022-09-23_14h40.40.327,test2,2022.2.4,59.96929859725528,
0,0,0,0,94,0,94,0,586.877034789999,586.877034789999,586.877034789999,586.877034789999,586.877034789999,586.877034789999,586.877034789999,1,-1,azul,1,['N_B'],588.2618223659993,588.2618223659993,588.2618223659993,588.2618223659993,590.2973418969996,590.2973418969996,590.2973418969996,590.2973418969996,590.2973418969996,590.2973418969996,590.2973418969996,590.2973418969996,592.3325864479993,592.3325864479993,592.3325864479993,592.3325864479993,,,,,,,,,,,,,,,,,,,,,,,,,,,,,,,,,,,,,,,06,007,2022-09-23_14h40.40.327,test2,2022.2.4,59.96929859725528,
0,0,0,0,95,0,95,0,592.3325864479993,592.3325864479993,592.3325864479993,592.3325864479993,592.3325864479993,592.3325864479993,592.3325864479993,-1,1,rojo,1,['N_B'],593.9843591329991,593.9843591329991,593.9843591329991,593.9843591329991,596.0041494189991,596.0041494189991,596.0041494189991,596.0041494189991,596.0041494189991,596.0041494189991,596.0041494189991,596.0041494189991,598.0389542249995,598.0389542249995,598.0389542249995,598.0389542249995,,,,,,,,,,,,,,,,,,,,,,,,,,,,,,,,,,,,,,,06,007,2022-09-23_14h40.40.327,test2,2022.2.4,59.96929859725528,
0,0,0,0,96,0,96,0,598.0389542249995,598.0389542249995,598.0389542249995,598.0389542249995,598.0389542249995,598.0389542249995,598.0389542249995,-1,1,rojo,1,['N_B'],599.1904071190002,599.1904071190002,599.1904071190002,599.1904071190002,601.2265112659989,601.2265112659989,601.2265112659989,601.2265112659989,601.2265112659989,601.2265112659989,601.2265112659989,601.2265112659989,603.2614669300001,603.2614669300001,603.2614669300001,603.2614669300001,,,,,,,,,,,,,,,,,,,,,,,,,,,,,,,,,,,,,,,06,007,2022-09-23_14h40.40.327,test2,2022.2.4,59.96929859725528,
0,0,0,0,97,0,97,0,603.2614669300001,603.2614669300001,603.2614669300001,603.2614669300001,603.2614669300001,603.2614669300001,603.2614669300001,1,-1,azul,1,['N_B'],604.8135889069999,604.8135889069999,604.8135889069999,604.8135889069999,606.8488089740003,606.8488089740003,606.8488089740003,606.8488089740003,606.8488089740003,606.8488089740003,606.8488089740003,606.8488089740003,608.8849735269996,608.8849735269996,608.8849735269996,608.8849735269996,,,,,,,,,,,,,,,,,,,,,,,,,,,,,,,,,,,,,,,06,007,2022-09-23_14h40.40.327,test2,2022.2.4,59.96929859725528,
0,0,0,0,98,0,98,0,608.8849735269996,608.8849735269996,608.8849735269996,608.8849735269996,608.8849735269996,608.8849735269996,608.8849735269996,1,-1,azul,0,['N_A'],610.2690932940004,610.2690932940004,610.2690932940004,610.2690932940004,612.3050416679998,612.3050416679998,612.3050416679998,612.3050416679998,612.3050416679998,612.3050416679998,612.3050416679998,612.3050416679998,614.3400925269998,614.3400925269998,614.3400925269998,614.3400925269998,,,,,,,,,,,,,,,,,,,,,,,,,,,,,,,,,,,,,,,06,007,2022-09-23_14h40.40.327,test2,2022.2.4,59.96929859725528,
0,0,0,0,99,0,99,0,614.3400925269998,614.3400925269998,614.3400925269998,614.3400925269998,614.3400925269998,614.3400925269998,614.3400925269998,-1,-1,azul,1,['N_A'],615.725619593999,615.725619593999,615.725619593999,615.725619593999,617.760515566999,617.760515566999,617.760515566999,617.760515566999,617.760515566999,617.760515566999,617.760515566999,617.760515566999,619.7970855040003,619.7970855040003,619.7970855040003,619.7970855040003,,,,,,,,,,,,,,,,,,,,,,,,,,,,,,,,,,,,,,,06,007,2022-09-23_14h40.40.327,test2,2022.2.4,59.96929859725528,
0,0,0,0,100,0,100,0,619.7970855040003,619.7970855040003,619.7970855040003,619.7970855040003,619.7970855040003,619.7970855040003,619.7970855040003,1,-1,rojo,1,['N_A'],621.2653528030005,621.2653528030005,621.2653528030005,621.2653528030005,623.3007283089992,623.3007283089992,623.3007283089992,623.3007283089992,623.3007283089992,623.3007283089992,623.3007283089992,623.3007283089992,625.3358201949995,625.3358201949995,625.3358201949995,625.3358201949995,,,,,,,,,,,,,,,,,,,,,,,,,,,,,,,,,,,,,,,06,007,2022-09-23_14h40.40.327,test2,2022.2.4,59.96929859725528,
0,0,0,0,101,0,101,0,625.3358201949995,625.3358201949995,625.3358201949995,625.3358201949995,625.3358201949995,625.3358201949995,625.3358201949995,1,-1,rojo,1,['N_A'],626.7537847959993,626.7537847959993,626.7537847959993,626.7537847959993,628.7903175529991,628.7903175529991,628.7903175529991,628.7903175529991,628.7903175529991,628.7903175529991,628.7903175529991,628.7903175529991,630.8251107069991,630.8251107069991,630.8251107069991,630.8251107069991,,,,,,,,,,,,,,,,,,,,,,,,,,,,,,,,,,,,,,,06,007,2022-09-23_14h40.40.327,test2,2022.2.4,59.96929859725528,
0,0,0,0,102,0,102,0,630.8251107069991,630.8251107069991,630.8251107069991,630.8251107069991,630.8251107069991,630.8251107069991,630.8251107069991,1,-1,rojo,1,['N_A'],632.2439450050006,632.2439450050006,632.2439450050006,632.2439450050006,634.2794179680004,634.2794179680004,634.2794179680004,634.2794179680004,634.2794179680004,634.2794179680004,634.2794179680004,634.2794179680004,636.31483802,636.31483802,636.31483802,636.31483802,,,,,,,,,,,,,,,,,,,,,,,,,,,,,,,,,,,,,,,06,007,2022-09-23_14h40.40.327,test2,2022.2.4,59.96929859725528,
0,0,0,0,103,0,103,0,636.31483802,636.31483802,636.31483802,636.31483802,636.31483802,636.31483802,636.31483802,1,-1,rojo,1,['N_A'],637.7164304159996,637.7164304159996,637.7164304159996,637.7164304159996,639.7517442959997,639.7517442959997,639.7517442959997,639.7517442959997,639.7517442959997,639.7517442959997,639.7517442959997,639.7517442959997,641.7878274569994,641.7878274569994,641.7878274569994,641.7878274569994,,,,,,,,,,,,,,,,,,,,,,,,,,,,,,,,,,,,,,,06,007,2022-09-23_14h40.40.327,test2,2022.2.4,59.96929859725528,
0,0,0,0,104,0,104,0,641.7878274569994,641.7878274569994,641.7878274569994,641.7878274569994,641.7878274569994,641.7878274569994,641.7878274569994,1,-1,rojo,1,['N_A'],643.3888195239997,643.3888195239997,643.3888195239997,643.3888195239997,645.4246203450002,645.4246203450002,645.4246203450002,645.4246203450002,645.4246203450002,645.4246203450002,645.4246203450002,645.4246203450002,647.4605318499998,647.4605318499998,647.4605318499998,647.4605318499998,,,,,,,,,,,,,,,,,,,,,,,,,,,,,,,,,,,,,,,06,007,2022-09-23_14h40.40.327,test2,2022.2.4,59.96929859725528,
0,0,0,0,105,0,105,0,647.4605318499998,647.4605318499998,647.4605318499998,647.4605318499998,647.4605318499998,647.4605318499998,647.4605318499998,1,-1,rojo,1,['N_A'],649.0458927830005,649.0458927830005,649.0458927830005,649.0458927830005,651.0809449360004,651.0809449360004,651.0809449360004,651.0809449360004,651.0809449360004,651.0809449360004,651.0809449360004,651.0809449360004,653.1165759899995,653.1165759899995,653.1165759899995,653.1165759899995,,,,,,,,,,,,,,,,,,,,,,,,,,,,,,,,,,,,,,,06,007,2022-09-23_14h40.40.327,test2,2022.2.4,59.96929859725528,
0,0,0,0,106,0,106,0,653.1165759899995,653.1165759899995,653.1165759899995,653.1165759899995,653.1165759899995,653.1165759899995,653.1165759899995,1,1,rojo,1,['N_A'],655.035553190999,655.035553190999,655.035553190999,655.035553190999,657.0707901949991,657.0707901949991,657.0707901949991,657.0707901949991,657.0707901949991,657.0707901949991,657.0707901949991,657.0707901949991,659.1063844239998,659.1063844239998,659.1063844239998,659.1063844239998,,,,,,,,,,,,,,,,,,,,,,,,,,,,,,,,,,,,,,,06,007,2022-09-23_14h40.40.327,test2,2022.2.4,59.96929859725528,
0,0,0,0,107,0,107,0,659.1063844239998,659.1063844239998,659.1063844239998,659.1063844239998,659.1063844239998,659.1063844239998,659.1063844239998,1,-1,rojo,1,['N_A'],661.0922417149995,661.0922417149995,661.0922417149995,661.0922417149995,663.1279302049988,663.1279302049988,663.1279302049988,663.1279302049988,663.1279302049988,663.1279302049988,663.1279302049988,663.1279302049988,665.1633794690006,665.1633794690006,665.1633794690006,665.1633794690006,,,,,,,,,,,,,,,,,,,,,,,,,,,,,,,,,,,,,,,06,007,2022-09-23_14h40.40.327,test2,2022.2.4,59.96929859725528,
0,0,0,0,108,0,108,0,665.1633794690006,665.1633794690006,665.1633794690006,665.1633794690006,665.1633794690006,665.1633794690006,665.1633794690006,1,-1,rojo,1,['N_A'],667.5995851240004,667.5995851240004,667.5995851240004,667.5995851240004,669.6348349079999,669.6348349079999,669.6348349079999,669.6348349079999,669.6348349079999,669.6348349079999,669.6348349079999,669.6348349079999,671.6702898250005,671.6702898250005,671.6702898250005,671.6702898250005,,,,,,,,,,,,,,,,,,,,,,,,,,,,,,,,,,,,,,,06,007,2022-09-23_14h40.40.327,test2,2022.2.4,59.96929859725528,
0,0,0,0,109,0,109,0,671.6702898250005,671.6702898250005,671.6702898250005,671.6702898250005,671.6702898250005,671.6702898250005,671.6702898250005,-1,-1,azul,1,['N_A'],674.5901656049991,674.5901656049991,674.5901656049991,674.5901656049991,676.6264864169989,676.6264864169989,676.6264864169989,676.6264864169989,676.6264864169989,676.6264864169989,676.6264864169989,676.6264864169989,678.6609437179995,678.6609437179995,678.6609437179995,678.6609437179995,,,,,,,,,,,,,,,,,,,,,,,,,,,,,,,,,,,,,,,06,007,2022-09-23_14h40.40.327,test2,2022.2.4,59.96929859725528,
0,0,0,0,110,0,110,0,678.6609437179995,678.6609437179995,678.6609437179995,678.6609437179995,678.6609437179995,678.6609437179995,678.6609437179995,1,-1,rojo,1,['N_A'],680.5636637320004,680.5636637320004,680.5636637320004,680.5636637320004,682.5992455679989,682.5992455679989,682.5992455679989,682.5992455679989,682.5992455679989,682.5992455679989,682.5992455679989,682.5992455679989,684.6343854779989,684.6343854779989,684.6343854779989,684.6343854779989,,,,,,,,,,,,,,,,,,,,,,,,,,,,,,,,,,,,,,,06,007,2022-09-23_14h40.40.327,test2,2022.2.4,59.96929859725528,
0,0,0,0,111,0,111,0,684.6343854779989,684.6343854779989,684.6343854779989,684.6343854779989,684.6343854779989,684.6343854779989,684.6343854779989,1,-1,rojo,1,['N_A'],686.1366973429995,686.1366973429995,686.1366973429995,686.1366973429995,688.1721017300006,688.1721017300006,688.1721017300006,688.1721017300006,688.1721017300006,688.1721017300006,688.1721017300006,688.1721017300006,690.2083532670003,690.2083532670003,690.2083532670003,690.2083532670003,,,,,,,,,,,,,,,,,,,,,,,,,,,,,,,,,,,,,,,06,007,2022-09-23_14h40.40.327,test2,2022.2.4,59.96929859725528,
0,0,0,0,112,0,112,0,690.2083532670003,690.2083532670003,690.2083532670003,690.2083532670003,690.2083532670003,690.2083532670003,690.2083532670003,1,1,rojo,1,['N_A'],691.859519321999,691.859519321999,691.859519321999,691.859519321999,693.8952629639989,693.8952629639989,693.8952629639989,693.8952629639989,693.8952629639989,693.8952629639989,693.8952629639989,693.8952629639989,695.9303939290003,695.9303939290003,695.9303939290003,695.9303939290003,,,,,,,,,,,,,,,,,,,,,,,,,,,,,,,,,,,,,,,06,007,2022-09-23_14h40.40.327,test2,2022.2.4,59.96929859725528,
0,0,0,0,113,0,113,0,695.9303939290003,695.9303939290003,695.9303939290003,695.9303939290003,695.9303939290003,695.9303939290003,695.9303939290003,1,-1,rojo,1,['N_A'],697.666578504999,697.666578504999,697.666578504999,697.666578504999,699.7023792330001,699.7023792330001,699.7023792330001,699.7023792330001,699.7023792330001,699.7023792330001,699.7023792330001,699.7023792330001,701.7377461109991,701.7377461109991,701.7377461109991,701.7377461109991,,,,,,,,,,,,,,,,,,,,,,,,,,,,,,,,,,,,,,,06,007,2022-09-23_14h40.40.327,test2,2022.2.4,59.96929859725528,
0,0,0,0,114,0,114,0,701.7377461109991,701.7377461109991,701.7377461109991,701.7377461109991,701.7377461109991,701.7377461109991,701.7377461109991,1,-1,rojo,1,['N_A'],703.388881719,703.388881719,703.388881719,703.388881719,705.4244437750003,705.4244437750003,705.4244437750003,705.4244437750003,705.4244437750003,705.4244437750003,705.4244437750003,705.4244437750003,707.4597110229988,707.4597110229988,707.4597110229988,707.4597110229988,,,,,,,,,,,,,,,,,,,,,,,,,,,,,,,,,,,,,,,06,007,2022-09-23_14h40.40.327,test2,2022.2.4,59.96929859725528,
0,0,0,0,115,0,115,0,707.4597110229988,707.4597110229988,707.4597110229988,707.4597110229988,707.4597110229988,707.4597110229988,707.4597110229988,1,-1,rojo,1,['N_A'],709.1618262970005,709.1618262970005,709.1618262970005,709.1618262970005,711.1979727279995,711.1979727279995,711.1979727279995,711.1979727279995,711.1979727279995,711.1979727279995,711.1979727279995,711.1979727279995,713.2324811790004,713.2324811790004,713.2324811790004,713.2324811790004,,,,,,,,,,,,,,,,,,,,,,,,,,,,,,,,,,,,,,,06,007,2022-09-23_14h40.40.327,test2,2022.2.4,59.96929859725528,
0,0,0,0,116,0,116,0,713.2324811790004,713.2324811790004,713.2324811790004,713.2324811790004,713.2324811790004,713.2324811790004,713.2324811790004,1,-1,rojo,1,['N_A'],715.1350255710004,715.1350255710004,715.1350255710004,715.1350255710004,717.1711657710002,717.1711657710002,717.1711657710002,717.1711657710002,717.1711657710002,717.1711657710002,717.1711657710002,717.1711657710002,719.2062164629988,719.2062164629988,719.2062164629988,719.2062164629988,,,,,,,,,,,,,,,,,,,,,,,,,,,,,,,,,,,,,,,06,007,2022-09-23_14h40.40.327,test2,2022.2.4,59.96929859725528,
0,0,0,0,117,0,117,0,719.2062164629988,719.2062164629988,719.2062164629988,719.2062164629988,719.2062164629988,719.2062164629988,719.2062164629988,1,-1,rojo,1,['N_A'],720.6582976509999,720.6582976509999,720.6582976509999,720.6582976509999,722.6933077109989,722.6933077109989,722.6933077109989,722.6933077109989,722.6933077109989,722.6933077109989,722.6933077109989,722.6933077109989,724.729575288,724.729575288,724.729575288,724.729575288,,,,,,,,,,,,,,,,,,,,,,,,,,,,,,,,,,,,,,,06,007,2022-09-23_14h40.40.327,test2,2022.2.4,59.96929859725528,
0,0,0,0,118,0,118,0,724.729575288,724.729575288,724.729575288,724.729575288,724.729575288,724.729575288,724.729575288,1,-1,rojo,1,['N_A'],726.4639295500001,726.4639295500001,726.4639295500001,726.4639295500001,728.4999078259989,728.4999078259989,728.4999078259989,728.4999078259989,728.4999078259989,728.4999078259989,728.4999078259989,728.4999078259989,730.5350748969995,730.5350748969995,730.5350748969995,730.5350748969995,,,,,,,,,,,,,,,,,,,,,,,,,,,,,,,,,,,,,,,06,007,2022-09-23_14h40.40.327,test2,2022.2.4,59.96929859725528,
0,0,0,0,119,0,119,0,730.5350748969995,730.5350748969995,730.5350748969995,730.5350748969995,730.5350748969995,730.5350748969995,730.5350748969995,-1,-1,azul,1,['N_A'],732.0367035769996,732.0367035769996,732.0367035769996,732.0367035769996,734.0727653260001,734.0727653260001,734.0727653260001,734.0727653260001,734.0727653260001,734.0727653260001,734.0727653260001,734.0727653260001,736.1079056399994,736.1079056399994,736.1079056399994,736.1079056399994,,,,,,,,,,,,,,,,,,,,,,,,,,,,,,,,,,,,,,,06,007,2022-09-23_14h40.40.327,test2,2022.2.4,59.96929859725528,
0,0,0,0,120,0,120,0,736.1079056399994,736.1079056399994,736.1079056399994,736.1079056399994,736.1079056399994,736.1079056399994,736.1079056399994,-1,-1,azul,1,['N_A'],737.710220556999,737.710220556999,737.710220556999,737.710220556999,739.7457332689992,739.7457332689992,739.7457332689992,739.7457332689992,739.7457332689992,739.7457332689992,739.7457332689992,739.7457332689992,741.7814450490005,741.7814450490005,741.7814450490005,741.7814450490005,,,,,,,,,,,,,,,,,,,,,,,,,,,,,,,,,,,,,,,06,007,2022-09-23_14h40.40.327,test2,2022.2.4,59.96929859725528,
0,0,0,0,121,0,121,0,741.7814450490005,741.7814450490005,741.7814450490005,741.7814450490005,741.7814450490005,741.7814450490005,741.7814450490005,1,1,rojo,1,['N_A'],743.5327763000005,743.5327763000005,743.5327763000005,743.5327763000005,745.5686031179994,745.5686031179994,745.5686031179994,745.5686031179994,745.5686031179994,745.5686031179994,745.5686031179994,745.5686031179994,747.6045820939999,747.6045820939999,747.6045820939999,747.6045820939999,,,,,,,,,,,,,,,,,,,,,,,,,,,,,,,,,,,,,,,06,007,2022-09-23_14h40.40.327,test2,2022.2.4,59.96929859725528,
0,0,0,0,122,0,122,0,747.6045820939999,747.6045820939999,747.6045820939999,747.6045820939999,747.6045820939999,747.6045820939999,747.6045820939999,1,-1,rojo,1,['N_A'],749.3060069259991,749.3060069259991,749.3060069259991,749.3060069259991,751.3414979939989,751.3414979939989,751.3414979939989,751.3414979939989,751.3414979939989,751.3414979939989,751.3414979939989,751.3414979939989,753.3767998269996,753.3767998269996,753.3767998269996,753.3767998269996,,,,,,,,,,,,,,,,,,,,,,,,,,,,,,,,,,,,,,,06,007,2022-09-23_14h40.40.327,test2,2022.2.4,59.96929859725528,
0,0,0,0,123,0,123,0,753.3767998269996,753.3767998269996,753.3767998269996,753.3767998269996,753.3767998269996,753.3767998269996,753.3767998269996,-1,-1,azul,1,['N_A'],754.8287632819993,754.8287632819993,754.8287632819993,754.8287632819993,756.8647232919993,756.8647232919993,756.8647232919993,756.8647232919993,756.8647232919993,756.8647232919993,756.8647232919993,756.8647232919993,758.9005103689997,758.9005103689997,758.9005103689997,758.9005103689997,,,,,,,,,,,,,,,,,,,,,,,,,,,,,,,,,,,,,,,06,007,2022-09-23_14h40.40.327,test2,2022.2.4,59.96929859725528,
0,0,0,0,124,0,124,0,758.9005103689997,758.9005103689997,758.9005103689997,758.9005103689997,758.9005103689997,758.9005103689997,758.9005103689997,-1,-1,azul,0,['N_B'],761.1025570469992,761.1025570469992,761.1025570469992,761.1025570469992,763.1381017149997,763.1381017149997,763.1381017149997,763.1381017149997,763.1381017149997,763.1381017149997,763.1381017149997,763.1381017149997,765.1738403609997,765.1738403609997,765.1738403609997,765.1738403609997,,,,,,,,,,,,,,,,,,,,,,,,,,,,,,,,,,,,,,,06,007,2022-09-23_14h40.40.327,test2,2022.2.4,59.96929859725528,
0,0,0,0,125,0,125,0,765.1738403609997,765.1738403609997,765.1738403609997,765.1738403609997,765.1738403609997,765.1738403609997,765.1738403609997,-1,-1,rojo,1,['N_B'],766.6582324379997,766.6582324379997,766.6582324379997,766.6582324379997,768.6929764340002,768.6929764340002,768.6929764340002,768.6929764340002,768.6929764340002,768.6929764340002,768.6929764340002,768.6929764340002,770.7295858559992,770.7295858559992,770.7295858559992,770.7295858559992,,,,,,,,,,,,,,,,,,,,,,,,,,,,,,,,,,,,,,,06,007,2022-09-23_14h40.40.327,test2,2022.2.4,59.96929859725528,
0,0,0,0,126,0,126,0,770.7295858559992,770.7295858559992,770.7295858559992,770.7295858559992,770.7295858559992,770.7295858559992,770.7295858559992,1,-1,azul,1,['N_B'],772.3144707049996,772.3144707049996,772.3144707049996,772.3144707049996,774.350515877999,774.350515877999,774.350515877999,774.350515877999,774.350515877999,774.350515877999,774.350515877999,774.350515877999,776.3861919459996,776.3861919459996,776.3861919459996,776.3861919459996,,,,,,,,,,,,,,,,,,,,,,,,,,,,,,,,,,,,,,,06,007,2022-09-23_14h40.40.327,test2,2022.2.4,59.96929859725528,
0,0,0,0,127,0,127,0,776.3861919459996,776.3861919459996,776.3861919459996,776.3861919459996,776.3861919459996,776.3861919459996,776.3861919459996,1,-1,azul,0,['N_A'],778.5058023370002,778.5058023370002,778.5058023370002,778.5058023370002,780.5406269399991,780.5406269399991,780.5406269399991,780.5406269399991,780.5406269399991,780.5406269399991,780.5406269399991,780.5406269399991,782.5759505089991,782.5759505089991,782.5759505089991,782.5759505089991,,,,,,,,,,,,,,,,,,,,,,,,,,,,,,,,,,,,,,,06,007,2022-09-23_14h40.40.327,test2,2022.2.4,59.96929859725528,
0,0,0,0,128,0,128,0,782.5759505089991,782.5759505089991,782.5759505089991,782.5759505089991,782.5759505089991,782.5759505089991,782.5759505089991,1,-1,rojo,1,['N_A'],784.110900878999,784.110900878999,784.110900878999,784.110900878999,786.1464372709997,786.1464372709997,786.1464372709997,786.1464372709997,786.1464372709997,786.1464372709997,786.1464372709997,786.1464372709997,788.182245557,788.182245557,788.182245557,788.182245557,,,,,,,,,,,,,,,,,,,,,,,,,,,,,,,,,,,,,,,06,007,2022-09-23_14h40.40.327,test2,2022.2.4,59.96929859725528,
0,0,0,0,129,0,129,0,788.182245557,788.182245557,788.182245557,788.182245557,788.182245557,788.182245557,788.182245557,1,-1,rojo,0,['N_B'],790.5015764950003,790.5015764950003,790.5015764950003,790.5015764950003,792.5377434969996,792.5377434969996,792.5377434969996,792.5377434969996,792.5377434969996,792.5377434969996,792.5377434969996,792.5377434969996,794.5723879239995,794.5723879239995,794.5723879239995,794.5723879239995,,,,,,,,,,,,,,,,,,,,,,,,,,,,,,,,,,,,,,,06,007,2022-09-23_14h40.40.327,test2,2022.2.4,59.96929859725528,
0,0,0,0,130,0,130,0,794.5723879239995,794.5723879239995,794.5723879239995,794.5723879239995,794.5723879239995,794.5723879239995,794.5723879239995,1,-1,azul,1,['N_B'],796.190696788999,796.190696788999,796.190696788999,796.190696788999,798.2270429839991,798.2270429839991,798.2270429839991,798.2270429839991,798.2270429839991,798.2270429839991,798.2270429839991,798.2270429839991,800.2618518559993,800.2618518559993,800.2618518559993,800.2618518559993,,,,,,,,,,,,,,,,,,,,,,,,,,,,,,,,,,,,,,,06,007,2022-09-23_14h40.40.327,test2,2022.2.4,59.96929859725528,
0,0,0,0,131,0,131,0,800.2618518559993,800.2618518559993,800.2618518559993,800.2618518559993,800.2618518559993,800.2618518559993,800.2618518559993,1,-1,azul,0,['N_A'],802.2315617389995,802.2315617389995,802.2315617389995,802.2315617389995,804.2672179780002,804.2672179780002,804.2672179780002,804.2672179780002,804.2672179780002,804.2672179780002,804.2672179780002,804.2672179780002,806.3028214400001,806.3028214400001,806.3028214400001,806.3028214400001,,,,,,,,,,,,,,,,,,,,,,,,,,,,,,,,,,,,,,,06,007,2022-09-23_14h40.40.327,test2,2022.2.4,59.96929859725528,
0,0,0,0,132,0,132,0,806.3028214400001,806.3028214400001,806.3028214400001,806.3028214400001,806.3028214400001,806.3028214400001,806.3028214400001,-1,-1,azul,0,['N_B'],808.3544395169993,808.3544395169993,808.3544395169993,808.3544395169993,810.3899595319999,810.3899595319999,810.3899595319999,810.3899595319999,810.3899595319999,810.3899595319999,810.3899595319999,810.3899595319999,812.4257007670003,812.4257007670003,812.4257007670003,812.4257007670003,,,,,,,,,,,,,,,,,,,,,,,,,,,,,,,,,,,,,,,06,007,2022-09-23_14h40.40.327,test2,2022.2.4,59.96929859725528,
0,0,0,0,133,0,133,0,812.4257007670003,812.4257007670003,812.4257007670003,812.4257007670003,812.4257007670003,812.4257007670003,812.4257007670003,1,-1,azul,0,['N_A'],813.8441220139994,813.8441220139994,813.8441220139994,813.8441220139994,815.8792116539989,815.8792116539989,815.8792116539989,815.8792116539989,815.8792116539989,815.8792116539989,815.8792116539989,815.8792116539989,817.9145979189998,817.9145979189998,817.9145979189998,817.9145979189998,,,,,,,,,,,,,,,,,,,,,,,,,,,,,,,,,,,,,,,06,007,2022-09-23_14h40.40.327,test2,2022.2.4,59.96929859725528,
0,0,0,0,134,0,134,0,817.9145979189998,817.9145979189998,817.9145979189998,817.9145979189998,817.9145979189998,817.9145979189998,817.9145979189998,-1,-1,azul,1,['N_A'],819.5165021299999,819.5165021299999,819.5165021299999,819.5165021299999,821.552370772999,821.552370772999,821.552370772999,821.552370772999,821.552370772999,821.552370772999,821.552370772999,821.552370772999,823.5874476850004,823.5874476850004,823.5874476850004,823.5874476850004,,,,,,,,,,,,,,,,,,,,,,,,,,,,,,,,,,,,,,,06,007,2022-09-23_14h40.40.327,test2,2022.2.4,59.96929859725528,
0,0,0,0,135,0,135,0,823.5874476850004,823.5874476850004,823.5874476850004,823.5874476850004,823.5874476850004,823.5874476850004,823.5874476850004,1,-1,rojo,0,['N_B'],826.3911570799992,826.3911570799992,826.3911570799992,826.3911570799992,828.4268027819999,828.4268027819999,828.4268027819999,828.4268027819999,828.4268027819999,828.4268027819999,828.4268027819999,828.4268027819999,830.4620824390004,830.4620824390004,830.4620824390004,830.4620824390004,,,,,,,,,,,,,,,,,,,,,,,,,,,,,,,,,,,,,,,06,007,2022-09-23_14h40.40.327,test2,2022.2.4,59.96929859725528,
0,0,0,0,136,0,136,0,830.4620824390004,830.4620824390004,830.4620824390004,830.4620824390004,830.4620824390004,830.4620824390004,830.4620824390004,1,-1,azul,0,['N_A'],832.9144933869993,832.9144933869993,832.9144933869993,832.9144933869993,834.9505250950006,834.9505250950006,834.9505250950006,834.9505250950006,834.9505250950006,834.9505250950006,834.9505250950006,834.9505250950006,836.9862265669999,836.9862265669999,836.9862265669999,836.9862265669999,,,,,,,,,,,,,,,,,,,,,,,,,,,,,,,,,,,,,,,06,007,2022-09-23_14h40.40.327,test2,2022.2.4,59.96929859725528,
0,0,0,0,137,0,137,0,836.9862265669999,836.9862265669999,836.9862265669999,836.9862265669999,836.9862265669999,836.9862265669999,836.9862265669999,1,-1,rojo,0,['N_B'],840.1234297239989,840.1234297239989,840.1234297239989,840.1234297239989,842.1588313840002,842.1588313840002,842.1588313840002,842.1588313840002,842.1588313840002,842.1588313840002,842.1588313840002,842.1588313840002,844.1946747749989,844.1946747749989,844.1946747749989,844.1946747749989,,,,,,,,,,,,,,,,,,,,,,,,,,,,,,,,,,,,,,,06,007,2022-09-23_14h40.40.327,test2,2022.2.4,59.96929859725528,
0,0,0,0,138,0,138,0,844.1946747749989,844.1946747749989,844.1946747749989,844.1946747749989,844.1946747749989,844.1946747749989,844.1946747749989,1,1,azul,0,['N_A'],847.0806949899998,847.0806949899998,847.0806949899998,847.0806949899998,849.1163273559996,849.1163273559996,849.1163273559996,849.1163273559996,849.1163273559996,849.1163273559996,849.1163273559996,849.1163273559996,851.1513034380005,851.1513034380005,851.1513034380005,851.1513034380005,,,,,,,,,,,,,,,,,,,,,,,,,,,,,,,,,,,,,,,06,007,2022-09-23_14h40.40.327,test2,2022.2.4,59.96929859725528,
0,0,0,0,139,0,139,0,851.1513034380005,851.1513034380005,851.1513034380005,851.1513034380005,851.1513034380005,851.1513034380005,851.1513034380005,-1,-1,azul,0,['N_B'],854.055238895,854.055238895,854.055238895,854.055238895,856.0907411429998,856.0907411429998,856.0907411429998,856.0907411429998,856.0907411429998,856.0907411429998,856.0907411429998,856.0907411429998,858.1256564899995,858.1256564899995,858.1256564899995,858.1256564899995,,,,,,,,,,,,,,,,,,,,,,,,,,,,,,,,,,,,,,,06,007,2022-09-23_14h40.40.327,test2,2022.2.4,59.96929859725528,
0,0,0,0,140,0,140,0,858.1256564899995,858.1256564899995,858.1256564899995,858.1256564899995,858.1256564899995,858.1256564899995,858.1256564899995,1,-1,azul,0,['N_A'],861.4962682259993,861.4962682259993,861.4962682259993,861.4962682259993,863.5318711999989,863.5318711999989,863.5318711999989,863.5318711999989,863.5318711999989,863.5318711999989,863.5318711999989,863.5318711999989,865.567943733,865.567943733,865.567943733,865.567943733,,,,,,,,,,,,,,,,,,,,,,,,,,,,,,,,,,,,,,,06,007,2022-09-23_14h40.40.327,test2,2022.2.4,59.96929859725528,
0,0,0,0,141,0,141,0,865.567943733,865.567943733,865.567943733,865.567943733,865.567943733,865.567943733,865.567943733,-1,-1,azul,0,['N_B'],867.9374362139988,867.9374362139988,867.9374362139988,867.9374362139988,869.9721263329993,869.9721263329993,869.9721263329993,869.9721263329993,869.9721263329993,869.9721263329993,869.9721263329993,869.9721263329993,872.0077939370003,872.0077939370003,872.0077939370003,872.0077939370003,,,,,,,,,,,,,,,,,,,,,,,,,,,,,,,,,,,,,,,06,007,2022-09-23_14h40.40.327,test2,2022.2.4,59.96929859725528,
0,0,0,0,142,0,142,0,872.0077939370003,872.0077939370003,872.0077939370003,872.0077939370003,872.0077939370003,872.0077939370003,872.0077939370003,1,-1,azul,0,['N_A'],873.5095988909998,873.5095988909998,873.5095988909998,873.5095988909998,875.5457435989993,875.5457435989993,875.5457435989993,875.5457435989993,875.5457435989993,875.5457435989993,875.5457435989993,875.5457435989993,877.5811781939992,877.5811781939992,877.5811781939992,877.5811781939992,,,,,,,,,,,,,,,,,,,,,,,,,,,,,,,,,,,,,,,06,007,2022-09-23_14h40.40.327,test2,2022.2.4,59.96929859725528,
0,0,0,0,143,0,143,0,877.5811781939992,877.5811781939992,877.5811781939992,877.5811781939992,877.5811781939992,877.5811781939992,877.5811781939992,1,-1,rojo,0,['N_B'],879.9503583860005,879.9503583860005,879.9503583860005,879.9503583860005,881.9864649169995,881.9864649169995,881.9864649169995,881.9864649169995,881.9864649169995,881.9864649169995,881.9864649169995,881.9864649169995,884.021860797,884.021860797,884.021860797,884.021860797,,,,,,,,,,,,,,,,,,,,,,,,,,,,,,,,,,,,,,,06,007,2022-09-23_14h40.40.327,test2,2022.2.4,59.96929859725528,
0,0,0,0,144,0,144,0,884.021860797,884.021860797,884.021860797,884.021860797,884.021860797,884.021860797,884.021860797,-1,-1,rojo,0,['N_A'],886.0566079889995,886.0566079889995,886.0566079889995,886.0566079889995,888.0926893309988,888.0926893309988,888.0926893309988,888.0926893309988,888.0926893309988,888.0926893309988,888.0926893309988,888.0926893309988,890.1279443940002,890.1279443940002,890.1279443940002,890.1279443940002,,,,,,,,,,,,,,,,,,,,,,,,,,,,,,,,,,,,,,,06,007,2022-09-23_14h40.40.327,test2,2022.2.4,59.96929859725528,
0,0,0,0,145,0,145,0,890.1279443940002,890.1279443940002,890.1279443940002,890.1279443940002,890.1279443940002,890.1279443940002,890.1279443940002,1,1,rojo,0,['N_B'],891.646638922999,891.646638922999,891.646638922999,891.646638922999,893.681867755,893.681867755,893.681867755,893.681867755,893.681867755,893.681867755,893.681867755,893.681867755,895.717389427,895.717389427,895.717389427,895.717389427,,,,,,,,,,,,,,,,,,,,,,,,,,,,,,,,,,,,,,,06,007,2022-09-23_14h40.40.327,test2,2022.2.4,59.96929859725528,
0,0,0,0,146,0,146,0,895.717389427,895.717389427,895.717389427,895.717389427,895.717389427,895.717389427,895.717389427,1,-1,azul,1,['N_B'],898.5377272240003,898.5377272240003,898.5377272240003,898.5377272240003,900.5736049930001,900.5736049930001,900.5736049930001,900.5736049930001,900.5736049930001,900.5736049930001,900.5736049930001,900.5736049930001,902.6089757289992,902.6089757289992,902.6089757289992,902.6089757289992,,,,,,,,,,,,,,,,,,,,,,,,,,,,,,,,,,,,,,,06,007,2022-09-23_14h40.40.327,test2,2022.2.4,59.96929859725528,
0,0,0,0,147,0,147,0,902.6089757289992,902.6089757289992,902.6089757289992,902.6089757289992,902.6089757289992,902.6089757289992,902.6089757289992,1,-1,azul,1,['N_B'],904.844339059,904.844339059,904.844339059,904.844339059,906.8796720239989,906.8796720239989,906.8796720239989,906.8796720239989,906.8796720239989,906.8796720239989,906.8796720239989,906.8796720239989,908.9156814050002,908.9156814050002,908.9156814050002,908.9156814050002,,,,,,,,,,,,,,,,,,,,,,,,,,,,,,,,,,,,,,,06,007,2022-09-23_14h40.40.327,test2,2022.2.4,59.96929859725528,
0,0,0,0,148,0,148,0,908.9156814050002,908.9156814050002,908.9156814050002,908.9156814050002,908.9156814050002,908.9156814050002,908.9156814050002,1,-1,azul,0,['N_A'],911.4849307709992,911.4849307709992,911.4849307709992,911.4849307709992,913.5206216509996,913.5206216509996,913.5206216509996,913.5206216509996,913.5206216509996,913.5206216509996,913.5206216509996,913.5206216509996,915.5556664590003,915.5556664590003,915.5556664590003,915.5556664590003,,,,,,,,,,,,,,,,,,,,,,,,,,,,,,,,,,,,,,,06,007,2022-09-23_14h40.40.327,test2,2022.2.4,59.96929859725528,
0,0,0,0,149,0,149,0,915.5556664590003,915.5556664590003,915.5556664590003,915.5556664590003,915.5556664590003,915.5556664590003,915.5556664590003,-1,1,azul,0,['N_B'],920.311372578999,920.311372578999,920.311372578999,920.311372578999,922.3470868149998,922.3470868149998,922.3470868149998,922.3470868149998,922.3470868149998,922.3470868149998,922.3470868149998,922.3470868149998,924.382334897,924.382334897,924.382334897,924.382334897,,,,,,,,,,,,,,,,,,,,,,,,,,,,,,,,,,,,,,,06,007,2022-09-23_14h40.40.327,test2,2022.2.4,59.96929859725528,
0,0,0,0,150,0,150,0,924.382334897,924.382334897,924.382334897,924.382334897,924.382334897,924.382334897,924.382334897,1,-1,azul,1,['N_B'],928.6876906059988,928.6876906059988,928.6876906059988,928.6876906059988,930.7232226340002,930.7232226340002,930.7232226340002,930.7232226340002,930.7232226340002,930.7232226340002,930.7232226340002,930.7232226340002,932.7580342130004,932.7580342130004,932.7580342130004,932.7580342130004,,,,,,,,,,,,,,,,,,,,,,,,,,,,,,,,,,,,,,,06,007,2022-09-23_14h40.40.327,test2,2022.2.4,59.96929859725528,
0,0,0,0,151,0,151,0,932.7580342130004,932.7580342130004,932.7580342130004,932.7580342130004,932.7580342130004,932.7580342130004,932.7580342130004,-1,-1,rojo,1,['N_B'],939.1152060259992,939.1152060259992,939.1152060259992,939.1152060259992,941.1509248250004,941.1509248250004,941.1509248250004,941.1509248250004,941.1509248250004,941.1509248250004,941.1509248250004,941.1509248250004,943.1862435799994,943.1862435799994,943.1862435799994,943.1862435799994,,,,,,,,,,,,,,,,,,,,,,,,,,,,,,,,,,,,,,,06,007,2022-09-23_14h40.40.327,test2,2022.2.4,59.96929859725528,
0,0,0,0,152,0,152,0,943.1862435799994,943.1862435799994,943.1862435799994,943.1862435799994,943.1862435799994,943.1862435799994,943.1862435799994,1,-1,azul,0,['N_A'],945.072284042999,945.072284042999,945.072284042999,945.072284042999,947.1078035800001,947.1078035800001,947.1078035800001,947.1078035800001,947.1078035800001,947.1078035800001,947.1078035800001,947.1078035800001,949.1430178669998,949.1430178669998,949.1430178669998,949.1430178669998,,,,,,,,,,,,,,,,,,,,,,,,,,,,,,,,,,,,,,,06,007,2022-09-23_14h40.40.327,test2,2022.2.4,59.96929859725528,
0,0,0,0,153,0,153,0,949.1430178669998,949.1430178669998,949.1430178669998,949.1430178669998,949.1430178669998,949.1430178669998,949.1430178669998,1,-1,rojo,1,['N_A'],950.8291047589992,950.8291047589992,950.8291047589992,950.8291047589992,952.8635120849995,952.8635120849995,952.8635120849995,952.8635120849995,952.8635120849995,952.8635120849995,952.8635120849995,952.8635120849995,954.9001272690002,954.9001272690002,954.9001272690002,954.9001272690002,,,,,,,,,,,,,,,,,,,,,,,,,,,,,,,,,,,,,,,06,007,2022-09-23_14h40.40.327,test2,2022.2.4,59.96929859725528,
0,0,0,0,154,0,154,0,954.9001272690002,954.9001272690002,954.9001272690002,954.9001272690002,954.9001272690002,954.9001272690002,954.9001272690002,-1,-1,azul,0,['N_B'],956.651209231999,956.651209231999,956.651209231999,956.651209231999,958.687163052,958.687163052,958.687163052,958.687163052,958.687163052,958.687163052,958.687163052,958.687163052,960.7226950349996,960.7226950349996,960.7226950349996,960.7226950349996,,,,,,,,,,,,,,,,,,,,,,,,,,,,,,,,,,,,,,,06,007,2022-09-23_14h40.40.327,test2,2022.2.4,59.96929859725528,
0,0,0,0,155,0,155,0,960.7226950349996,960.7226950349996,960.7226950349996,960.7226950349996,960.7226950349996,960.7226950349996,960.7226950349996,-1,-1,rojo,0,['N_A'],963.4427813990005,963.4427813990005,963.4427813990005,963.4427813990005,965.4783355039999,965.4783355039999,965.4783355039999,965.4783355039999,965.4783355039999,965.4783355039999,965.4783355039999,965.4783355039999,967.5131057260005,967.5131057260005,967.5131057260005,967.5131057260005,,,,,,,,,,,,,,,,,,,,,,,,,,,,,,,,,,,,,,,06,007,2022-09-23_14h40.40.327,test2,2022.2.4,59.96929859725528,
0,0,0,0,156,0,156,0,967.5131057260005,967.5131057260005,967.5131057260005,967.5131057260005,967.5131057260005,967.5131057260005,967.5131057260005,1,-1,rojo,1,['N_A'],970.0331683339991,970.0331683339991,970.0331683339991,970.0331683339991,972.0688153329993,972.0688153329993,972.0688153329993,972.0688153329993,972.0688153329993,972.0688153329993,972.0688153329993,972.0688153329993,974.1036343800006,974.1036343800006,974.1036343800006,974.1036343800006,,,,,,,,,,,,,,,,,,,,,,,,,,,,,,,,,,,,,,,06,007,2022-09-23_14h40.40.327,test2,2022.2.4,59.96929859725528,
0,0,0,0,157,0,157,0,974.1036343800006,974.1036343800006,974.1036343800006,974.1036343800006,974.1036343800006,974.1036343800006,974.1036343800006,1,1,rojo,0,['N_B'],978.5589433099994,978.5589433099994,978.5589433099994,978.5589433099994,980.5946487460005,980.5946487460005,980.5946487460005,980.5946487460005,980.5946487460005,980.5946487460005,980.5946487460005,980.5946487460005,982.6300156809993,982.6300156809993,982.6300156809993,982.6300156809993,,,,,,,,,,,,,,,,,,,,,,,,,,,,,,,,,,,,,,,06,007,2022-09-23_14h40.40.327,test2,2022.2.4,59.96929859725528,
0,0,0,0,158,0,158,0,982.6300156809993,982.6300156809993,982.6300156809993,982.6300156809993,982.6300156809993,982.6300156809993,982.6300156809993,1,-1,azul,0,['N_A'],984.7491728240002,984.7491728240002,984.7491728240002,984.7491728240002,986.7849190189991,986.7849190189991,986.7849190189991,986.7849190189991,986.7849190189991,986.7849190189991,986.7849190189991,986.7849190189991,988.820467649999,988.820467649999,988.820467649999,988.820467649999,,,,,,,,,,,,,,,,,,,,,,,,,,,,,,,,,,,,,,,06,007,2022-09-23_14h40.40.327,test2,2022.2.4,59.96929859725528,
0,0,0,0,159,0,159,0,988.820467649999,988.820467649999,988.820467649999,988.820467649999,988.820467649999,988.820467649999,988.820467649999,1,-1,rojo,1,['N_A'],990.5890661439989,990.5890661439989,990.5890661439989,990.5890661439989,992.6248788399989,992.6248788399989,992.6248788399989,992.6248788399989,992.6248788399989,992.6248788399989,992.6248788399989,992.6248788399989,994.6597403889991,994.6597403889991,994.6597403889991,994.6597403889991,,,,,,,,,,,,,,,,,,,,,,,,,,,,,,,,,,,,,,,06,007,2022-09-23_14h40.40.327,test2,2022.2.4,59.96929859725528,
0,0,0,0,160,0,160,0,994.6597403889991,994.6597403889991,994.6597403889991,994.6597403889991,994.6597403889991,994.6597403889991,994.6597403889991,1,-1,rojo,0,['N_B'],997.3793493489993,997.3793493489993,997.3793493489993,997.3793493489993,999.4155861399995,999.4155861399995,999.4155861399995,999.4155861399995,999.4155861399995,999.4155861399995,999.4155861399995,999.4155861399995,1001.4507647199989,1001.4507647199989,1001.4507647199989,1001.4507647199989,,,,,,,,,,,,,,,,,,,,,,,,,,,,,,,,,,,,,,,06,007,2022-09-23_14h40.40.327,test2,2022.2.4,59.96929859725528,
0,0,0,0,161,0,161,0,1001.4507647199989,1001.4507647199989,1001.4507647199989,1001.4507647199989,1001.4507647199989,1001.4507647199989,1001.4507647199989,1,-1,azul,0,['N_A'],1003.20305697,1003.20305697,1003.20305697,1003.20305697,1005.2380764179998,1005.2380764179998,1005.2380764179998,1005.2380764179998,1005.2380764179998,1005.2380764179998,1005.2380764179998,1005.2380764179998,1007.2737759399988,1007.2737759399988,1007.2737759399988,1007.2737759399988,,,,,,,,,,,,,,,,,,,,,,,,,,,,,,,,,,,,,,,06,007,2022-09-23_14h40.40.327,test2,2022.2.4,59.96929859725528,
0,0,0,0,162,0,162,0,1007.2737759399988,1007.2737759399988,1007.2737759399988,1007.2737759399988,1007.2737759399988,1007.2737759399988,1007.2737759399988,1,1,rojo,0,['N_B'],1009.4268017209997,1009.4268017209997,1009.4268017209997,1009.4268017209997,1011.4440583619999,1011.4440583619999,1011.4440583619999,1011.4440583619999,1011.4440583619999,1011.4440583619999,1011.4440583619999,1011.4440583619999,1013.4806545619995,1013.4806545619995,1013.4806545619995,1013.4806545619995,,,,,,,,,,,,,,,,,,,,,,,,,,,,,,,,,,,,,,,06,007,2022-09-23_14h40.40.327,test2,2022.2.4,59.96929859725528,
0,0,0,0,163,0,163,0,1013.4806545619995,1013.4806545619995,1013.4806545619995,1013.4806545619995,1013.4806545619995,1013.4806545619995,1013.4806545619995,-1,1,rojo,1,['N_B'],1015.4674029609996,1015.4674029609996,1015.4674029609996,1015.4674029609996,1017.5016695539998,1017.5016695539998,1017.5016695539998,1017.5016695539998,1017.5016695539998,1017.5016695539998,1017.5016695539998,1017.5016695539998,1019.5374713809997,1019.5374713809997,1019.5374713809997,1019.5374713809997,,,,,,,,,,,,,,,,,,,,,,,,,,,,,,,,,,,,,,,06,007,2022-09-23_14h40.40.327,test2,2022.2.4,59.96929859725528,
0,0,0,0,164,0,164,0,1019.5374713809997,1019.5374713809997,1019.5374713809997,1019.5374713809997,1019.5374713809997,1019.5374713809997,1019.5374713809997,1,-1,azul,0,['N_A'],1021.5397622189994,1021.5397622189994,1021.5397622189994,1021.5397622189994,1023.5758652000004,1023.5758652000004,1023.5758652000004,1023.5758652000004,1023.5758652000004,1023.5758652000004,1023.5758652000004,1023.5758652000004,1025.6106865389993,1025.6106865389993,1025.6106865389993,1025.6106865389993,,,,,,,,,,,,,,,,,,,,,,,,,,,,,,,,,,,,,,,06,007,2022-09-23_14h40.40.327,test2,2022.2.4,59.96929859725528,
0,0,0,0,165,0,165,0,1025.6106865389993,1025.6106865389993,1025.6106865389993,1025.6106865389993,1025.6106865389993,1025.6106865389993,1025.6106865389993,-1,-1,azul,1,['N_A'],1027.362986103999,1027.362986103999,1027.362986103999,1027.362986103999,1029.398071579999,1029.398071579999,1029.398071579999,1029.398071579999,1029.398071579999,1029.398071579999,1029.398071579999,1029.398071579999,1031.4342863410002,1031.4342863410002,1031.4342863410002,1031.4342863410002,,,,,,,,,,,,,,,,,,,,,,,,,,,,,,,,,,,,,,,06,007,2022-09-23_14h40.40.327,test2,2022.2.4,59.96929859725528,
0,0,0,0,166,0,166,0,1031.4342863410002,1031.4342863410002,1031.4342863410002,1031.4342863410002,1031.4342863410002,1031.4342863410002,1031.4342863410002,-1,-1,azul,1,['N_A'],1033.018727057999,1033.018727057999,1033.018727057999,1033.018727057999,1035.0545790380002,1035.0545790380002,1035.0545790380002,1035.0545790380002,1035.0545790380002,1035.0545790380002,1035.0545790380002,1035.0545790380002,1037.090416654999,1037.090416654999,1037.090416654999,1037.090416654999,,,,,,,,,,,,,,,,,,,,,,,,,,,,,,,,,,,,,,,06,007,2022-09-23_14h40.40.327,test2,2022.2.4,59.96929859725528,
0,0,0,0,167,0,167,0,1037.090416654999,1037.090416654999,1037.090416654999,1037.090416654999,1037.090416654999,1037.090416654999,1037.090416654999,1,-1,rojo,1,['N_A'],1038.7086019959988,1038.7086019959988,1038.7086019959988,1038.7086019959988,1040.744604039999,1040.744604039999,1040.744604039999,1040.744604039999,1040.744604039999,1040.744604039999,1040.744604039999,1040.744604039999,1042.780416952999,1042.780416952999,1042.780416952999,1042.780416952999,,,,,,,,,,,,,,,,,,,,,,,,,,,,,,,,,,,,,,,06,007,2022-09-23_14h40.40.327,test2,2022.2.4,59.96929859725528,
0,0,0,0,168,0,168,0,1042.780416952999,1042.780416952999,1042.780416952999,1042.780416952999,1042.780416952999,1042.780416952999,1042.780416952999,-1,1,azul,0,['N_B'],1045.6335205180003,1045.6335205180003,1045.6335205180003,1045.6335205180003,1047.6686445719988,1047.6686445719988,1047.6686445719988,1047.6686445719988,1047.6686445719988,1047.6686445719988,1047.6686445719988,1047.6686445719988,1049.7048068370004,1049.7048068370004,1049.7048068370004,1049.7048068370004,,,,,,,,,,,,,,,,,,,,,,,,,,,,,,,,,,,,,,,06,007,2022-09-23_14h40.40.327,test2,2022.2.4,59.96929859725528,
0,0,0,0,169,0,169,0,1049.7048068370004,1049.7048068370004,1049.7048068370004,1049.7048068370004,1049.7048068370004,1049.7048068370004,1049.7048068370004,1,-1,azul,1,['N_B'],1052.3569878710005,1052.3569878710005,1052.3569878710005,1052.3569878710005,1054.393269062999,1054.393269062999,1054.393269062999,1054.393269062999,1054.393269062999,1054.393269062999,1054.393269062999,1054.393269062999,1056.4288005689996,1056.4288005689996,1056.4288005689996,1056.4288005689996,,,,,,,,,,,,,,,,,,,,,,,,,,,,,,,,,,,,,,,06,007,2022-09-23_14h40.40.327,test2,2022.2.4,59.96929859725528,
0,0,0,0,170,0,170,0,1056.4288005689996,1056.4288005689996,1056.4288005689996,1056.4288005689996,1056.4288005689996,1056.4288005689996,1056.4288005689996,1,-1,azul,0,['N_A'],1058.4634057059993,1058.4634057059993,1058.4634057059993,1058.4634057059993,1060.4991696889992,1060.4991696889992,1060.4991696889992,1060.4991696889992,1060.4991696889992,1060.4991696889992,1060.4991696889992,1060.4991696889992,1062.535004853,1062.535004853,1062.535004853,1062.535004853,,,,,,,,,,,,,,,,,,,,,,,,,,,,,,,,,,,,,,,06,007,2022-09-23_14h40.40.327,test2,2022.2.4,59.96929859725528,
0,0,0,0,171,0,171,0,1062.535004853,1062.535004853,1062.535004853,1062.535004853,1062.535004853,1062.535004853,1062.535004853,1,-1,rojo,0,['N_B'],1064.4371322299994,1064.4371322299994,1064.4371322299994,1064.4371322299994,1066.4736243749994,1066.4736243749994,1066.4736243749994,1066.4736243749994,1066.4736243749994,1066.4736243749994,1066.4736243749994,1066.4736243749994,1068.5085341350004,1068.5085341350004,1068.5085341350004,1068.5085341350004,,,,,,,,,,,,,,,,,,,,,,,,,,,,,,,,,,,,,,,06,007,2022-09-23_14h40.40.327,test2,2022.2.4,59.96929859725528,
0,0,0,0,172,0,172,0,1068.5085341350004,1068.5085341350004,1068.5085341350004,1068.5085341350004,1068.5085341350004,1068.5085341350004,1068.5085341350004,1,-1,azul,0,['N_A'],1070.676980029999,1070.676980029999,1070.676980029999,1070.676980029999,1072.7131430190002,1072.7131430190002,1072.7131430190002,1072.7131430190002,1072.7131430190002,1072.7131430190002,1072.7131430190002,1072.7131430190002,1074.7482824599992,1074.7482824599992,1074.7482824599992,1074.7482824599992,,,,,,,,,,,,,,,,,,,,,,,,,,,,,,,,,,,,,,,06,007,2022-09-23_14h40.40.327,test2,2022.2.4,59.96929859725528,
0,0,0,0,173,0,173,0,1074.7482824599992,1074.7482824599992,1074.7482824599992,1074.7482824599992,1074.7482824599992,1074.7482824599992,1074.7482824599992,1,-1,rojo,1,['N_A'],1076.767539683,1076.767539683,1076.767539683,1076.767539683,1078.8037868789997,1078.8037868789997,1078.8037868789997,1078.8037868789997,1078.8037868789997,1078.8037868789997,1078.8037868789997,1078.8037868789997,1080.8389951480003,1080.8389951480003,1080.8389951480003,1080.8389951480003,,,,,,,,,,,,,,,,,,,,,,,,,,,,,,,,,,,,,,,06,007,2022-09-23_14h40.40.327,test2,2022.2.4,59.96929859725528,
0,0,0,0,174,0,174,0,1080.8389951480003,1080.8389951480003,1080.8389951480003,1080.8389951480003,1080.8389951480003,1080.8389951480003,1080.8389951480003,-1,-1,azul,1,['N_A'],1082.7905429799994,1082.7905429799994,1082.7905429799994,1082.7905429799994,1084.826710665,1084.826710665,1084.826710665,1084.826710665,1084.826710665,1084.826710665,1084.826710665,1084.826710665,1086.8620922239988,1086.8620922239988,1086.8620922239988,1086.8620922239988,,,,,,,,,,,,,,,,,,,,,,,,,,,,,,,,,,,,,,,06,007,2022-09-23_14h40.40.327,test2,2022.2.4,59.96929859725528,
0,0,0,0,175,0,175,0,1086.8620922239988,1086.8620922239988,1086.8620922239988,1086.8620922239988,1086.8620922239988,1086.8620922239988,1086.8620922239988,1,1,rojo,1,['N_A'],1090.4823265840005,1090.4823265840005,1090.4823265840005,1090.4823265840005,1092.5187613509988,1092.5187613509988,1092.5187613509988,1092.5187613509988,1092.5187613509988,1092.5187613509988,1092.5187613509988,1092.5187613509988,1094.5534707059996,1094.5534707059996,1094.5534707059996,1094.5534707059996,,,,,,,,,,,,,,,,,,,,,,,,,,,,,,,,,,,,,,,06,007,2022-09-23_14h40.40.327,test2,2022.2.4,59.96929859725528,
0,0,0,0,176,0,176,0,1094.5534707059996,1094.5534707059996,1094.5534707059996,1094.5534707059996,1094.5534707059996,1094.5534707059996,1094.5534707059996,1,-1,rojo,0,['N_B'],1097.573283701,1097.573283701,1097.573283701,1097.573283701,1099.6096964280005,1099.6096964280005,1099.6096964280005,1099.6096964280005,1099.6096964280005,1099.6096964280005,1099.6096964280005,1099.6096964280005,1101.6453814319993,1101.6453814319993,1101.6453814319993,1101.6453814319993,,,,,,,,,,,,,,,,,,,,,,,,,,,,,,,,,,,,,,,06,007,2022-09-23_14h40.40.327,test2,2022.2.4,59.96929859725528,
