trials_2.thisRepN,trials_2.thisTrialN,trials_2.thisN,trials_2.thisIndex,trials.thisRepN,trials.thisTrialN,trials.thisN,trials.thisIndex,Instrucción2.started,N_A_4.started,N_B_4.started,Exitos_3.started,Dias_3.started,Stimuli_1.started,Stimuli_2.started,Transitions,Rewards,Mode,Stay,Neighbour,Stimuli_3.started,Modo.started,Dias2.started,Exitos2.started,Stimuli_3.stopped,Modo.stopped,Dias2.stopped,Exitos2.stopped,Reward.started,Stimuli_reward.started,Exitos3.started,Dias3.started,Reward.stopped,Stimuli_reward.stopped,Exitos3.stopped,Dias3.stopped,Cue_text.started,Stimuli_4.started,Exitos4.started,Dias4.started,Stimuli_3_3.started,Stimuli_2_3.started,Instrucción.started,N_A.started,N_B.started,N_C.started,Exitos_2.started,Dias_2.started,Stimuli_1_3.started,Stimuli_3_2.started,Stimuli_2_2.started,Pregunta.started,N_A_2.started,N_B_2.started,N_C_2.started,Exitos5.started,Dias5.started,Stimuli_1_2.started,Resp_final_1,Modo2.started,Modo1.started,Pregunta_4.started,Modo3.started,Exitos7.started,Dias6.started,Resp_final_2,Modo1_2.started,Pregunta_3.started,Modo2_2.started,Exitos8.started,Dias7.started,Resp_final_3,Mensaje_Final2.started,Exitos6.started,participant,session,date,expName,psychopyVersion,frameRate,
0,0,0,0,0,0,0,0,1276.5097069839999,1276.5097069839999,1276.5097069839999,1276.5097069839999,1276.5097069839999,1276.5097069839999,1276.5097069839999,0,0,0,0,['N_B'],1286.769446005,1286.769446005,1286.769446005,1286.769446005,1288.805473485,1288.805473485,1288.805473485,1288.805473485,1288.805473485,1288.805473485,1288.805473485,1288.805473485,1290.842455513,1290.842455513,1290.842455513,1290.842455513,,,,,,,,,,,,,,,,,,,,,,,,,,,,,,,,,,,,,,,06,005,2022-09-23_10h28.54.009,test2,2022.2.4,59.93341337840656,
0,0,0,0,1,0,1,0,1290.842455513,1290.842455513,1290.842455513,1290.842455513,1290.842455513,1290.842455513,1290.842455513,-1,-1,rojo,1,['N_B'],1293.661984848,1293.661984848,1293.661984848,1293.661984848,1295.697366625,1295.697366625,1295.697366625,1295.697366625,1295.697366625,1295.697366625,1295.697366625,1295.697366625,1297.732689604,1297.732689604,1297.732689604,1297.732689604,,,,,,,,,,,,,,,,,,,,,,,,,,,,,,,,,,,,,,,06,005,2022-09-23_10h28.54.009,test2,2022.2.4,59.93341337840656,
0,0,0,0,2,0,2,0,1297.732689604,1297.732689604,1297.732689604,1297.732689604,1297.732689604,1297.732689604,1297.732689604,-1,-1,rojo,0,['N_A'],1299.819242352,1299.819242352,1299.819242352,1299.819242352,1301.853350663,1301.853350663,1301.853350663,1301.853350663,1301.853350663,1301.853350663,1301.853350663,1301.853350663,1303.890353613,1303.890353613,1303.890353613,1303.890353613,,,,,,,,,,,,,,,,,,,,,,,,,,,,,,,,,,,,,,,06,005,2022-09-23_10h28.54.009,test2,2022.2.4,59.93341337840656,
0,0,0,0,3,0,3,0,1303.890353613,1303.890353613,1303.890353613,1303.890353613,1303.890353613,1303.890353613,1303.890353613,1,-1,rojo,1,['N_A'],1306.576632411,1306.576632411,1306.576632411,1306.576632411,1308.662712754,1308.662712754,1308.662712754,1308.662712754,1308.662712754,1308.662712754,1308.662712754,1308.662712754,1310.697443837,1310.697443837,1310.697443837,1310.697443837,,,,,,,,,,,,,,,,,,,,,,,,,,,,,,,,,,,,,,,06,005,2022-09-23_10h28.54.009,test2,2022.2.4,59.93341337840656,
0,0,0,0,4,0,4,0,1310.697443837,1310.697443837,1310.697443837,1310.697443837,1310.697443837,1310.697443837,1310.697443837,1,1,rojo,1,['N_A'],1313.499990385,1313.499990385,1313.499990385,1313.499990385,1315.536220589,1315.536220589,1315.536220589,1315.536220589,1315.536220589,1315.536220589,1315.536220589,1315.536220589,1317.571365881,1317.571365881,1317.571365881,1317.571365881,,,,,,,,,,,,,,,,,,,,,,,,,,,,,,,,,,,,,,,06,005,2022-09-23_10h28.54.009,test2,2022.2.4,59.93341337840656,
0,0,0,0,5,0,5,0,1317.571365881,1317.571365881,1317.571365881,1317.571365881,1317.571365881,1317.571365881,1317.571365881,1,-1,rojo,0,['N_B'],1319.973961838,1319.973961838,1319.973961838,1319.973961838,1322.010302209,1322.010302209,1322.010302209,1322.010302209,1322.010302209,1322.010302209,1322.010302209,1322.010302209,1324.045229117,1324.045229117,1324.045229117,1324.045229117,,,,,,,,,,,,,,,,,,,,,,,,,,,,,,,,,,,,,,,06,005,2022-09-23_10h28.54.009,test2,2022.2.4,59.93341337840656,
0,0,0,0,6,0,6,0,1324.045229117,1324.045229117,1324.045229117,1324.045229117,1324.045229117,1324.045229117,1324.045229117,1,1,azul,0,['N_A'],1326.198303016,1326.198303016,1326.198303016,1326.198303016,1328.233774688,1328.233774688,1328.233774688,1328.233774688,1328.233774688,1328.233774688,1328.233774688,1328.233774688,1330.269405676,1330.269405676,1330.269405676,1330.269405676,,,,,,,,,,,,,,,,,,,,,,,,,,,,,,,,,,,,,,,06,005,2022-09-23_10h28.54.009,test2,2022.2.4,59.93341337840656,
0,0,0,0,7,0,7,0,1330.269405676,1330.269405676,1330.269405676,1330.269405676,1330.269405676,1330.269405676,1330.269405676,1,-1,rojo,0,['N_B'],1332.588017883,1332.588017883,1332.588017883,1332.588017883,1334.623948474,1334.623948474,1334.623948474,1334.623948474,1334.623948474,1334.623948474,1334.623948474,1334.623948474,1336.658597339,1336.658597339,1336.658597339,1336.658597339,,,,,,,,,,,,,,,,,,,,,,,,,,,,,,,,,,,,,,,06,005,2022-09-23_10h28.54.009,test2,2022.2.4,59.93341337840656,
0,0,0,0,8,0,8,0,1336.658597339,1336.658597339,1336.658597339,1336.658597339,1336.658597339,1336.658597339,1336.658597339,1,-1,azul,0,['N_A'],1339.528610112,1339.528610112,1339.528610112,1339.528610112,1341.565161968,1341.565161968,1341.565161968,1341.565161968,1341.565161968,1341.565161968,1341.565161968,1341.565161968,1343.600857181,1343.600857181,1343.600857181,1343.600857181,,,,,,,,,,,,,,,,,,,,,,,,,,,,,,,,,,,,,,,06,005,2022-09-23_10h28.54.009,test2,2022.2.4,59.93341337840656,
0,0,0,0,9,0,9,0,1343.600857181,1343.600857181,1343.600857181,1343.600857181,1343.600857181,1343.600857181,1343.600857181,1,-1,rojo,1,['N_A'],1346.236252988,1346.236252988,1346.236252988,1346.236252988,1348.272636273,1348.272636273,1348.272636273,1348.272636273,1348.272636273,1348.272636273,1348.272636273,1348.272636273,1350.308283309,1350.308283309,1350.308283309,1350.308283309,,,,,,,,,,,,,,,,,,,,,,,,,,,,,,,,,,,,,,,06,005,2022-09-23_10h28.54.009,test2,2022.2.4,59.93341337840656,
0,0,0,0,10,0,10,0,1350.308283309,1350.308283309,1350.308283309,1350.308283309,1350.308283309,1350.308283309,1350.308283309,1,-1,rojo,1,['N_A'],1352.393350718,1352.393350718,1352.393350718,1352.393350718,1354.428848619,1354.428848619,1354.428848619,1354.428848619,1354.428848619,1354.428848619,1354.428848619,1354.428848619,1356.464519923,1356.464519923,1356.464519923,1356.464519923,,,,,,,,,,,,,,,,,,,,,,,,,,,,,,,,,,,,,,,06,005,2022-09-23_10h28.54.009,test2,2022.2.4,59.93341337840656,
0,0,0,0,11,0,11,0,1356.464519923,1356.464519923,1356.464519923,1356.464519923,1356.464519923,1356.464519923,1356.464519923,1,1,rojo,0,['N_B'],1358.45003675,1358.45003675,1358.45003675,1358.45003675,1360.48596988,1360.48596988,1360.48596988,1360.48596988,1360.48596988,1360.48596988,1360.48596988,1360.48596988,1362.520742589,1362.520742589,1362.520742589,1362.520742589,,,,,,,,,,,,,,,,,,,,,,,,,,,,,,,,,,,,,,,06,005,2022-09-23_10h28.54.009,test2,2022.2.4,59.93341337840656,
0,0,0,0,12,0,12,0,1362.520742589,1362.520742589,1362.520742589,1362.520742589,1362.520742589,1362.520742589,1362.520742589,1,-1,azul,0,['N_A'],1365.64103026,1365.64103026,1365.64103026,1365.64103026,1367.6775792390001,1367.6775792390001,1367.6775792390001,1367.6775792390001,1367.6775792390001,1367.6775792390001,1367.6775792390001,1367.6775792390001,1369.7118637709998,1369.7118637709998,1369.7118637709998,1369.7118637709998,,,,,,,,,,,,,,,,,,,,,,,,,,,,,,,,,,,,,,,06,005,2022-09-23_10h28.54.009,test2,2022.2.4,59.93341337840656,
0,0,0,0,13,0,13,0,1369.7118637709998,1369.7118637709998,1369.7118637709998,1369.7118637709998,1369.7118637709998,1369.7118637709998,1369.7118637709998,1,-1,rojo,0,['N_B'],1371.297243323,1371.297243323,1371.297243323,1371.297243323,1373.3336059760002,1373.3336059760002,1373.3336059760002,1373.3336059760002,1373.3336059760002,1373.3336059760002,1373.3336059760002,1373.3336059760002,1375.3686225109998,1375.3686225109998,1375.3686225109998,1375.3686225109998,,,,,,,,,,,,,,,,,,,,,,,,,,,,,,,,,,,,,,,06,005,2022-09-23_10h28.54.009,test2,2022.2.4,59.93341337840656,
0,0,0,0,14,0,14,0,1375.3686225109998,1375.3686225109998,1375.3686225109998,1375.3686225109998,1375.3686225109998,1375.3686225109998,1375.3686225109998,1,-1,azul,0,['N_A'],1377.5709140319998,1377.5709140319998,1377.5709140319998,1377.5709140319998,1379.606750309,1379.606750309,1379.606750309,1379.606750309,1379.606750309,1379.606750309,1379.606750309,1379.606750309,1381.6428320329999,1381.6428320329999,1381.6428320329999,1381.6428320329999,,,,,,,,,,,,,,,,,,,,,,,,,,,,,,,,,,,,,,,06,005,2022-09-23_10h28.54.009,test2,2022.2.4,59.93341337840656,
0,0,0,0,15,0,15,0,1381.6428320329999,1381.6428320329999,1381.6428320329999,1381.6428320329999,1381.6428320329999,1381.6428320329999,1381.6428320329999,-1,1,azul,1,['N_A'],1383.4780414529998,1383.4780414529998,1383.4780414529998,1383.4780414529998,1385.513526424,1385.513526424,1385.513526424,1385.513526424,1385.513526424,1385.513526424,1385.513526424,1385.513526424,1387.549043874,1387.549043874,1387.549043874,1387.549043874,,,,,,,,,,,,,,,,,,,,,,,,,,,,,,,,,,,,,,,06,005,2022-09-23_10h28.54.009,test2,2022.2.4,59.93341337840656,
0,0,0,0,16,0,16,0,1387.549043874,1387.549043874,1387.549043874,1387.549043874,1387.549043874,1387.549043874,1387.549043874,1,-1,rojo,1,['N_A'],1389.36773491,1389.36773491,1389.36773491,1389.36773491,1391.4037020839999,1391.4037020839999,1391.4037020839999,1391.4037020839999,1391.4037020839999,1391.4037020839999,1391.4037020839999,1391.4037020839999,1393.4381248769998,1393.4381248769998,1393.4381248769998,1393.4381248769998,,,,,,,,,,,,,,,,,,,,,,,,,,,,,,,,,,,,,,,06,005,2022-09-23_10h28.54.009,test2,2022.2.4,59.93341337840656,
0,0,0,0,17,0,17,0,1393.4381248769998,1393.4381248769998,1393.4381248769998,1393.4381248769998,1393.4381248769998,1393.4381248769998,1393.4381248769998,1,-1,rojo,1,['N_A'],1395.123691091,1395.123691091,1395.123691091,1395.123691091,1397.1597028980002,1397.1597028980002,1397.1597028980002,1397.1597028980002,1397.1597028980002,1397.1597028980002,1397.1597028980002,1397.1597028980002,1399.1952736290002,1399.1952736290002,1399.1952736290002,1399.1952736290002,,,,,,,,,,,,,,,,,,,,,,,,,,,,,,,,,,,,,,,06,005,2022-09-23_10h28.54.009,test2,2022.2.4,59.93341337840656,
0,0,0,0,18,0,18,0,1399.1952736290002,1399.1952736290002,1399.1952736290002,1399.1952736290002,1399.1952736290002,1399.1952736290002,1399.1952736290002,1,1,rojo,1,['N_A'],1400.8463348540001,1400.8463348540001,1400.8463348540001,1400.8463348540001,1402.8821803049998,1402.8821803049998,1402.8821803049998,1402.8821803049998,1402.8821803049998,1402.8821803049998,1402.8821803049998,1402.8821803049998,1404.9179494920002,1404.9179494920002,1404.9179494920002,1404.9179494920002,,,,,,,,,,,,,,,,,,,,,,,,,,,,,,,,,,,,,,,06,005,2022-09-23_10h28.54.009,test2,2022.2.4,59.93341337840656,
0,0,0,0,19,0,19,0,1404.9179494920002,1404.9179494920002,1404.9179494920002,1404.9179494920002,1404.9179494920002,1404.9179494920002,1404.9179494920002,1,-1,rojo,0,['N_B'],1407.0373071269998,1407.0373071269998,1407.0373071269998,1407.0373071269998,1409.0723392319999,1409.0723392319999,1409.0723392319999,1409.0723392319999,1409.0723392319999,1409.0723392319999,1409.0723392319999,1409.0723392319999,1411.1090409269998,1411.1090409269998,1411.1090409269998,1411.1090409269998,,,,,,,,,,,,,,,,,,,,,,,,,,,,,,,,,,,,,,,06,005,2022-09-23_10h28.54.009,test2,2022.2.4,59.93341337840656,
0,0,0,0,20,0,20,0,1411.1090409269998,1411.1090409269998,1411.1090409269998,1411.1090409269998,1411.1090409269998,1411.1090409269998,1411.1090409269998,-1,-1,rojo,1,['N_B'],1412.743569997,1412.743569997,1412.743569997,1412.743569997,1414.779550418,1414.779550418,1414.779550418,1414.779550418,1414.779550418,1414.779550418,1414.779550418,1414.779550418,1416.8139878640002,1416.8139878640002,1416.8139878640002,1416.8139878640002,,,,,,,,,,,,,,,,,,,,,,,,,,,,,,,,,,,,,,,06,005,2022-09-23_10h28.54.009,test2,2022.2.4,59.93341337840656,
0,0,0,0,21,0,21,0,1416.8139878640002,1416.8139878640002,1416.8139878640002,1416.8139878640002,1416.8139878640002,1416.8139878640002,1416.8139878640002,1,1,azul,0,['N_A'],1418.699131001,1418.699131001,1418.699131001,1418.699131001,1420.736118313,1420.736118313,1420.736118313,1420.736118313,1420.736118313,1420.736118313,1420.736118313,1420.736118313,1422.7707405590002,1422.7707405590002,1422.7707405590002,1422.7707405590002,,,,,,,,,,,,,,,,,,,,,,,,,,,,,,,,,,,,,,,06,005,2022-09-23_10h28.54.009,test2,2022.2.4,59.93341337840656,
0,0,0,0,22,0,22,0,1422.7707405590002,1422.7707405590002,1422.7707405590002,1422.7707405590002,1422.7707405590002,1422.7707405590002,1422.7707405590002,-1,-1,azul,1,['N_A'],1424.322572965,1424.322572965,1424.322572965,1424.322572965,1426.3585212659998,1426.3585212659998,1426.3585212659998,1426.3585212659998,1426.3585212659998,1426.3585212659998,1426.3585212659998,1426.3585212659998,1428.3939642480002,1428.3939642480002,1428.3939642480002,1428.3939642480002,,,,,,,,,,,,,,,,,,,,,,,,,,,,,,,,,,,,,,,06,005,2022-09-23_10h28.54.009,test2,2022.2.4,59.93341337840656,
0,0,0,0,23,0,23,0,1428.3939642480002,1428.3939642480002,1428.3939642480002,1428.3939642480002,1428.3939642480002,1428.3939642480002,1428.3939642480002,1,1,rojo,0,['N_B'],1430.178989618,1430.178989618,1430.178989618,1430.178989618,1432.1970564619999,1432.1970564619999,1432.1970564619999,1432.1970564619999,1432.1970564619999,1432.1970564619999,1432.1970564619999,1432.1970564619999,1434.2337179029998,1434.2337179029998,1434.2337179029998,1434.2337179029998,,,,,,,,,,,,,,,,,,,,,,,,,,,,,,,,,,,,,,,06,005,2022-09-23_10h28.54.009,test2,2022.2.4,59.93341337840656,
0,0,0,0,24,0,24,0,1434.2337179029998,1434.2337179029998,1434.2337179029998,1434.2337179029998,1434.2337179029998,1434.2337179029998,1434.2337179029998,-1,1,rojo,1,['N_B'],1436.0024047559998,1436.0024047559998,1436.0024047559998,1436.0024047559998,1438.021749367,1438.021749367,1438.021749367,1438.021749367,1438.021749367,1438.021749367,1438.021749367,1438.021749367,1440.056750523,1440.056750523,1440.056750523,1440.056750523,,,,,,,,,,,,,,,,,,,,,,,,,,,,,,,,,,,,,,,06,005,2022-09-23_10h28.54.009,test2,2022.2.4,59.93341337840656,
0,0,0,0,25,0,25,0,1440.056750523,1440.056750523,1440.056750523,1440.056750523,1440.056750523,1440.056750523,1440.056750523,-1,1,rojo,0,['N_A'],1441.5583181969998,1441.5583181969998,1441.5583181969998,1441.5583181969998,1443.5768867579998,1443.5768867579998,1443.5768867579998,1443.5768867579998,1443.5768867579998,1443.5768867579998,1443.5768867579998,1443.5768867579998,1445.6130637570002,1445.6130637570002,1445.6130637570002,1445.6130637570002,,,,,,,,,,,,,,,,,,,,,,,,,,,,,,,,,,,,,,,06,005,2022-09-23_10h28.54.009,test2,2022.2.4,59.93341337840656,
0,0,0,0,26,0,26,0,1445.6130637570002,1445.6130637570002,1445.6130637570002,1445.6130637570002,1445.6130637570002,1445.6130637570002,1445.6130637570002,1,1,rojo,0,['N_B'],1447.464664852,1447.464664852,1447.464664852,1447.464664852,1449.484593601,1449.484593601,1449.484593601,1449.484593601,1449.484593601,1449.484593601,1449.484593601,1449.484593601,1451.519005159,1451.519005159,1451.519005159,1451.519005159,,,,,,,,,,,,,,,,,,,,,,,,,,,,,,,,,,,,,,,06,005,2022-09-23_10h28.54.009,test2,2022.2.4,59.93341337840656,
0,0,0,0,27,0,27,0,1451.519005159,1451.519005159,1451.519005159,1451.519005159,1451.519005159,1451.519005159,1451.519005159,1,1,azul,0,['N_A'],1453.0716819779998,1453.0716819779998,1453.0716819779998,1453.0716819779998,1455.1068076109998,1455.1068076109998,1455.1068076109998,1455.1068076109998,1455.1068076109998,1455.1068076109998,1455.1068076109998,1455.1068076109998,1457.1420944449999,1457.1420944449999,1457.1420944449999,1457.1420944449999,,,,,,,,,,,,,,,,,,,,,,,,,,,,,,,,,,,,,,,06,005,2022-09-23_10h28.54.009,test2,2022.2.4,59.93341337840656,
0,0,0,0,28,0,28,0,1457.1420944449999,1457.1420944449999,1457.1420944449999,1457.1420944449999,1457.1420944449999,1457.1420944449999,1457.1420944449999,-1,-1,azul,1,['N_A'],1458.644754737,1458.644754737,1458.644754737,1458.644754737,1460.680183565,1460.680183565,1460.680183565,1460.680183565,1460.680183565,1460.680183565,1460.680183565,1460.680183565,1462.714926281,1462.714926281,1462.714926281,1462.714926281,,,,,,,,,,,,,,,,,,,,,,,,,,,,,,,,,,,,,,,06,005,2022-09-23_10h28.54.009,test2,2022.2.4,59.93341337840656,
0,0,0,0,29,0,29,0,1462.714926281,1462.714926281,1462.714926281,1462.714926281,1462.714926281,1462.714926281,1462.714926281,-1,1,azul,0,['N_B'],1464.332905038,1464.332905038,1464.332905038,1464.332905038,1466.3531981069998,1466.3531981069998,1466.3531981069998,1466.3531981069998,1466.3531981069998,1466.3531981069998,1466.3531981069998,1466.3531981069998,1468.3878350030002,1468.3878350030002,1468.3878350030002,1468.3878350030002,,,,,,,,,,,,,,,,,,,,,,,,,,,,,,,,,,,,,,,06,005,2022-09-23_10h28.54.009,test2,2022.2.4,59.93341337840656,
0,0,0,0,30,0,30,0,1468.3878350030002,1468.3878350030002,1468.3878350030002,1468.3878350030002,1468.3878350030002,1468.3878350030002,1468.3878350030002,-1,1,rojo,1,['N_B'],1470.540627912,1470.540627912,1470.540627912,1470.540627912,1472.576599053,1472.576599053,1472.576599053,1472.576599053,1472.576599053,1472.576599053,1472.576599053,1472.576599053,1474.6116390539999,1474.6116390539999,1474.6116390539999,1474.6116390539999,,,,,,,,,,,,,,,,,,,,,,,,,,,,,,,,,,,,,,,06,005,2022-09-23_10h28.54.009,test2,2022.2.4,59.93341337840656,
0,0,0,0,31,0,31,0,1474.6116390539999,1474.6116390539999,1474.6116390539999,1474.6116390539999,1474.6116390539999,1474.6116390539999,1474.6116390539999,1,-1,azul,0,['N_A'],1476.2632521930002,1476.2632521930002,1476.2632521930002,1476.2632521930002,1478.2995161719998,1478.2995161719998,1478.2995161719998,1478.2995161719998,1478.2995161719998,1478.2995161719998,1478.2995161719998,1478.2995161719998,1480.3343281740001,1480.3343281740001,1480.3343281740001,1480.3343281740001,,,,,,,,,,,,,,,,,,,,,,,,,,,,,,,,,,,,,,,06,005,2022-09-23_10h28.54.009,test2,2022.2.4,59.93341337840656,
0,0,0,0,32,0,32,0,1480.3343281740001,1480.3343281740001,1480.3343281740001,1480.3343281740001,1480.3343281740001,1480.3343281740001,1480.3343281740001,1,-1,rojo,1,['N_A'],1482.2035804559998,1482.2035804559998,1482.2035804559998,1482.2035804559998,1484.238933039,1484.238933039,1484.238933039,1484.238933039,1484.238933039,1484.238933039,1484.238933039,1484.238933039,1486.273988149,1486.273988149,1486.273988149,1486.273988149,,,,,,,,,,,,,,,,,,,,,,,,,,,,,,,,,,,,,,,06,005,2022-09-23_10h28.54.009,test2,2022.2.4,59.93341337840656,
0,0,0,0,33,0,33,0,1486.273988149,1486.273988149,1486.273988149,1486.273988149,1486.273988149,1486.273988149,1486.273988149,1,-1,rojo,1,['N_A'],1487.875988264,1487.875988264,1487.875988264,1487.875988264,1489.911401211,1489.911401211,1489.911401211,1489.911401211,1489.911401211,1489.911401211,1489.911401211,1489.911401211,1491.947691316,1491.947691316,1491.947691316,1491.947691316,,,,,,,,,,,,,,,,,,,,,,,,,,,,,,,,,,,,,,,06,005,2022-09-23_10h28.54.009,test2,2022.2.4,59.93341337840656,
0,0,0,0,34,0,34,0,1491.947691316,1491.947691316,1491.947691316,1491.947691316,1491.947691316,1491.947691316,1491.947691316,-1,1,azul,0,['N_B'],1494.133548651,1494.133548651,1494.133548651,1494.133548651,1496.152126227,1496.152126227,1496.152126227,1496.152126227,1496.152126227,1496.152126227,1496.152126227,1496.152126227,1498.187507298,1498.187507298,1498.187507298,1498.187507298,,,,,,,,,,,,,,,,,,,,,,,,,,,,,,,,,,,,,,,06,005,2022-09-23_10h28.54.009,test2,2022.2.4,59.93341337840656,
0,0,0,0,35,0,35,0,1498.187507298,1498.187507298,1498.187507298,1498.187507298,1498.187507298,1498.187507298,1498.187507298,-1,1,rojo,1,['N_B'],1500.3235076899998,1500.3235076899998,1500.3235076899998,1500.3235076899998,1502.3592542869999,1502.3592542869999,1502.3592542869999,1502.3592542869999,1502.3592542869999,1502.3592542869999,1502.3592542869999,1502.3592542869999,1504.3946262000002,1504.3946262000002,1504.3946262000002,1504.3946262000002,,,,,,,,,,,,,,,,,,,,,,,,,,,,,,,,,,,,,,,06,005,2022-09-23_10h28.54.009,test2,2022.2.4,59.93341337840656,
0,0,0,0,36,0,36,0,1504.3946262000002,1504.3946262000002,1504.3946262000002,1504.3946262000002,1504.3946262000002,1504.3946262000002,1504.3946262000002,-1,-1,rojo,1,['N_B'],1506.045957569,1506.045957569,1506.045957569,1506.045957569,1508.0816871109998,1508.0816871109998,1508.0816871109998,1508.0816871109998,1508.0816871109998,1508.0816871109998,1508.0816871109998,1508.0816871109998,1510.117404244,1510.117404244,1510.117404244,1510.117404244,,,,,,,,,,,,,,,,,,,,,,,,,,,,,,,,,,,,,,,06,005,2022-09-23_10h28.54.009,test2,2022.2.4,59.93341337840656,
0,0,0,0,37,0,37,0,1510.117404244,1510.117404244,1510.117404244,1510.117404244,1510.117404244,1510.117404244,1510.117404244,-1,-1,rojo,0,['N_A'],1511.8028519920001,1511.8028519920001,1511.8028519920001,1511.8028519920001,1513.8384473859999,1513.8384473859999,1513.8384473859999,1513.8384473859999,1513.8384473859999,1513.8384473859999,1513.8384473859999,1513.8384473859999,1515.8736689250002,1515.8736689250002,1515.8736689250002,1515.8736689250002,,,,,,,,,,,,,,,,,,,,,,,,,,,,,,,,,,,,,,,06,005,2022-09-23_10h28.54.009,test2,2022.2.4,59.93341337840656,
0,0,0,0,38,0,38,0,1515.8736689250002,1515.8736689250002,1515.8736689250002,1515.8736689250002,1515.8736689250002,1515.8736689250002,1515.8736689250002,-1,1,azul,1,['N_A'],1517.575024986,1517.575024986,1517.575024986,1517.575024986,1519.611408816,1519.611408816,1519.611408816,1519.611408816,1519.611408816,1519.611408816,1519.611408816,1519.611408816,1521.645825191,1521.645825191,1521.645825191,1521.645825191,,,,,,,,,,,,,,,,,,,,,,,,,,,,,,,,,,,,,,,06,005,2022-09-23_10h28.54.009,test2,2022.2.4,59.93341337840656,
0,0,0,0,39,0,39,0,1521.645825191,1521.645825191,1521.645825191,1521.645825191,1521.645825191,1521.645825191,1521.645825191,-1,-1,azul,0,['N_B'],1523.465771669,1523.465771669,1523.465771669,1523.465771669,1525.5009488039998,1525.5009488039998,1525.5009488039998,1525.5009488039998,1525.5009488039998,1525.5009488039998,1525.5009488039998,1525.5009488039998,1527.536761446,1527.536761446,1527.536761446,1527.536761446,,,,,,,,,,,,,,,,,,,,,,,,,,,,,,,,,,,,,,,06,005,2022-09-23_10h28.54.009,test2,2022.2.4,59.93341337840656,
0,0,0,0,40,0,40,0,1527.536761446,1527.536761446,1527.536761446,1527.536761446,1527.536761446,1527.536761446,1527.536761446,-1,1,rojo,0,['N_A'],1529.254908619,1529.254908619,1529.254908619,1529.254908619,1531.2746061619998,1531.2746061619998,1531.2746061619998,1531.2746061619998,1531.2746061619998,1531.2746061619998,1531.2746061619998,1531.2746061619998,1533.3095790579998,1533.3095790579998,1533.3095790579998,1533.3095790579998,,,,,,,,,,,,,,,,,,,,,,,,,,,,,,,,,,,,,,,06,005,2022-09-23_10h28.54.009,test2,2022.2.4,59.93341337840656,
0,0,0,0,41,0,41,0,1533.3095790579998,1533.3095790579998,1533.3095790579998,1533.3095790579998,1533.3095790579998,1533.3095790579998,1533.3095790579998,-1,1,azul,0,['N_B'],1535.028302555,1535.028302555,1535.028302555,1535.028302555,1537.0632583,1537.0632583,1537.0632583,1537.0632583,1537.0632583,1537.0632583,1537.0632583,1537.0632583,1539.0992902340001,1539.0992902340001,1539.0992902340001,1539.0992902340001,,,,,,,,,,,,,,,,,,,,,,,,,,,,,,,,,,,,,,,06,005,2022-09-23_10h28.54.009,test2,2022.2.4,59.93341337840656,
0,0,0,0,42,0,42,0,1539.0992902340001,1539.0992902340001,1539.0992902340001,1539.0992902340001,1539.0992902340001,1539.0992902340001,1539.0992902340001,1,-1,azul,1,['N_B'],1540.7850016099999,1540.7850016099999,1540.7850016099999,1540.7850016099999,1542.8200387969998,1542.8200387969998,1542.8200387969998,1542.8200387969998,1542.8200387969998,1542.8200387969998,1542.8200387969998,1542.8200387969998,1544.8555298009999,1544.8555298009999,1544.8555298009999,1544.8555298009999,,,,,,,,,,,,,,,,,,,,,,,,,,,,,,,,,,,,,,,06,005,2022-09-23_10h28.54.009,test2,2022.2.4,59.93341337840656,
0,0,0,0,43,0,43,0,1544.8555298009999,1544.8555298009999,1544.8555298009999,1544.8555298009999,1544.8555298009999,1544.8555298009999,1544.8555298009999,1,-1,azul,0,['N_A'],1547.1078818919998,1547.1078818919998,1547.1078818919998,1547.1078818919998,1549.1437458449998,1549.1437458449998,1549.1437458449998,1549.1437458449998,1549.1437458449998,1549.1437458449998,1549.1437458449998,1549.1437458449998,1551.178674214,1551.178674214,1551.178674214,1551.178674214,,,,,,,,,,,,,,,,,,,,,,,,,,,,,,,,,,,,,,,06,005,2022-09-23_10h28.54.009,test2,2022.2.4,59.93341337840656,
0,0,0,0,44,0,44,0,1551.178674214,1551.178674214,1551.178674214,1551.178674214,1551.178674214,1551.178674214,1551.178674214,1,-1,rojo,1,['N_A'],1552.964765949,1552.964765949,1552.964765949,1552.964765949,1554.999937423,1554.999937423,1554.999937423,1554.999937423,1554.999937423,1554.999937423,1554.999937423,1554.999937423,1557.0363033719998,1557.0363033719998,1557.0363033719998,1557.0363033719998,,,,,,,,,,,,,,,,,,,,,,,,,,,,,,,,,,,,,,,06,005,2022-09-23_10h28.54.009,test2,2022.2.4,59.93341337840656,
0,0,0,0,45,0,45,0,1557.0363033719998,1557.0363033719998,1557.0363033719998,1557.0363033719998,1557.0363033719998,1557.0363033719998,1557.0363033719998,1,-1,rojo,0,['N_B'],1558.987386478,1558.987386478,1558.987386478,1558.987386478,1561.023061178,1561.023061178,1561.023061178,1561.023061178,1561.023061178,1561.023061178,1561.023061178,1561.023061178,1563.0597498680002,1563.0597498680002,1563.0597498680002,1563.0597498680002,,,,,,,,,,,,,,,,,,,,,,,,,,,,,,,,,,,,,,,06,005,2022-09-23_10h28.54.009,test2,2022.2.4,59.93341337840656,
0,0,0,0,46,0,46,0,1563.0597498680002,1563.0597498680002,1563.0597498680002,1563.0597498680002,1563.0597498680002,1563.0597498680002,1563.0597498680002,1,-1,azul,1,['N_B'],1564.7780824079998,1564.7780824079998,1564.7780824079998,1564.7780824079998,1566.813693242,1566.813693242,1566.813693242,1566.813693242,1566.813693242,1566.813693242,1566.813693242,1566.813693242,1568.8487475959998,1568.8487475959998,1568.8487475959998,1568.8487475959998,,,,,,,,,,,,,,,,,,,,,,,,,,,,,,,,,,,,,,,06,005,2022-09-23_10h28.54.009,test2,2022.2.4,59.93341337840656,
0,0,0,0,47,0,47,0,1568.8487475959998,1568.8487475959998,1568.8487475959998,1568.8487475959998,1568.8487475959998,1568.8487475959998,1568.8487475959998,1,1,azul,1,['N_B'],1572.853402335,1572.853402335,1572.853402335,1572.853402335,1574.8712368140002,1574.8712368140002,1574.8712368140002,1574.8712368140002,1574.8712368140002,1574.8712368140002,1574.8712368140002,1574.8712368140002,1576.9074021610002,1576.9074021610002,1576.9074021610002,1576.9074021610002,,,,,,,,,,,,,,,,,,,,,,,,,,,,,,,,,,,,,,,06,005,2022-09-23_10h28.54.009,test2,2022.2.4,59.93341337840656,
0,0,0,0,48,0,48,0,1576.9074021610002,1576.9074021610002,1576.9074021610002,1576.9074021610002,1576.9074021610002,1576.9074021610002,1576.9074021610002,1,1,azul,1,['N_B'],1579.4270313129998,1579.4270313129998,1579.4270313129998,1579.4270313129998,1581.463288569,1581.463288569,1581.463288569,1581.463288569,1581.463288569,1581.463288569,1581.463288569,1581.463288569,1583.498807926,1583.498807926,1583.498807926,1583.498807926,,,,,,,,,,,,,,,,,,,,,,,,,,,,,,,,,,,,,,,06,005,2022-09-23_10h28.54.009,test2,2022.2.4,59.93341337840656,
0,0,0,0,49,0,49,0,1583.498807926,1583.498807926,1583.498807926,1583.498807926,1583.498807926,1583.498807926,1583.498807926,1,-1,azul,0,['N_A'],1585.634160795,1585.634160795,1585.634160795,1585.634160795,1587.6704422280002,1587.6704422280002,1587.6704422280002,1587.6704422280002,1587.6704422280002,1587.6704422280002,1587.6704422280002,1587.6704422280002,1589.705786674,1589.705786674,1589.705786674,1589.705786674,,,,,,,,,,,,,,,,,,,,,,,,,,,,,,,,,,,,,,,06,005,2022-09-23_10h28.54.009,test2,2022.2.4,59.93341337840656,
0,0,0,0,50,0,50,0,1589.705786674,1589.705786674,1589.705786674,1589.705786674,1589.705786674,1589.705786674,1589.705786674,1,-1,rojo,1,['N_A'],1591.557389236,1591.557389236,1591.557389236,1591.557389236,1593.5928981210002,1593.5928981210002,1593.5928981210002,1593.5928981210002,1593.5928981210002,1593.5928981210002,1593.5928981210002,1593.5928981210002,1595.6287875589999,1595.6287875589999,1595.6287875589999,1595.6287875589999,,,,,,,,,,,,,,,,,,,,,,,,,,,,,,,,,,,,,,,06,005,2022-09-23_10h28.54.009,test2,2022.2.4,59.93341337840656,
0,0,0,0,51,0,51,0,1595.6287875589999,1595.6287875589999,1595.6287875589999,1595.6287875589999,1595.6287875589999,1595.6287875589999,1595.6287875589999,1,1,rojo,0,['N_B'],1597.2638173379999,1597.2638173379999,1597.2638173379999,1597.2638173379999,1599.2835238310001,1599.2835238310001,1599.2835238310001,1599.2835238310001,1599.2835238310001,1599.2835238310001,1599.2835238310001,1599.2835238310001,1601.318081744,1601.318081744,1601.318081744,1601.318081744,,,,,,,,,,,,,,,,,,,,,,,,,,,,,,,,,,,,,,,06,005,2022-09-23_10h28.54.009,test2,2022.2.4,59.93341337840656,
0,0,0,0,52,0,52,0,1601.318081744,1601.318081744,1601.318081744,1601.318081744,1601.318081744,1601.318081744,1601.318081744,1,1,azul,0,['N_A'],1605.2548354009998,1605.2548354009998,1605.2548354009998,1605.2548354009998,1607.2916371059998,1607.2916371059998,1607.2916371059998,1607.2916371059998,1607.2916371059998,1607.2916371059998,1607.2916371059998,1607.2916371059998,1609.3271724640001,1609.3271724640001,1609.3271724640001,1609.3271724640001,,,,,,,,,,,,,,,,,,,,,,,,,,,,,,,,,,,,,,,06,005,2022-09-23_10h28.54.009,test2,2022.2.4,59.93341337840656,
0,0,0,0,53,0,53,0,1609.3271724640001,1609.3271724640001,1609.3271724640001,1609.3271724640001,1609.3271724640001,1609.3271724640001,1609.3271724640001,-1,-1,azul,1,['N_A'],1611.4291211070001,1611.4291211070001,1611.4291211070001,1611.4291211070001,1613.465225919,1613.465225919,1613.465225919,1613.465225919,1613.465225919,1613.465225919,1613.465225919,1613.465225919,1615.500765567,1615.500765567,1615.500765567,1615.500765567,,,,,,,,,,,,,,,,,,,,,,,,,,,,,,,,,,,,,,,06,005,2022-09-23_10h28.54.009,test2,2022.2.4,59.93341337840656,
0,0,0,0,54,0,54,0,1615.500765567,1615.500765567,1615.500765567,1615.500765567,1615.500765567,1615.500765567,1615.500765567,1,1,rojo,1,['N_A'],1617.119302639,1617.119302639,1617.119302639,1617.119302639,1619.154179773,1619.154179773,1619.154179773,1619.154179773,1619.154179773,1619.154179773,1619.154179773,1619.154179773,1621.1894692399999,1621.1894692399999,1621.1894692399999,1621.1894692399999,,,,,,,,,,,,,,,,,,,,,,,,,,,,,,,,,,,,,,,06,005,2022-09-23_10h28.54.009,test2,2022.2.4,59.93341337840656,
0,0,0,0,55,0,55,0,1621.1894692399999,1621.1894692399999,1621.1894692399999,1621.1894692399999,1621.1894692399999,1621.1894692399999,1621.1894692399999,1,-1,rojo,0,['N_B'],1622.8084423779999,1622.8084423779999,1622.8084423779999,1622.8084423779999,1624.8441858200001,1624.8441858200001,1624.8441858200001,1624.8441858200001,1624.8441858200001,1624.8441858200001,1624.8441858200001,1624.8441858200001,1626.8800931049998,1626.8800931049998,1626.8800931049998,1626.8800931049998,,,,,,,,,,,,,,,,,,,,,,,,,,,,,,,,,,,,,,,06,005,2022-09-23_10h28.54.009,test2,2022.2.4,59.93341337840656,
0,0,0,0,56,0,56,0,1626.8800931049998,1626.8800931049998,1626.8800931049998,1626.8800931049998,1626.8800931049998,1626.8800931049998,1626.8800931049998,-1,1,rojo,0,['N_A'],1630.3661218640002,1630.3661218640002,1630.3661218640002,1630.3661218640002,1632.402156798,1632.402156798,1632.402156798,1632.402156798,1632.402156798,1632.402156798,1632.402156798,1632.402156798,1634.4376233760001,1634.4376233760001,1634.4376233760001,1634.4376233760001,,,,,,,,,,,,,,,,,,,,,,,,,,,,,,,,,,,,,,,06,005,2022-09-23_10h28.54.009,test2,2022.2.4,59.93341337840656,
0,0,0,0,57,0,57,0,1634.4376233760001,1634.4376233760001,1634.4376233760001,1634.4376233760001,1634.4376233760001,1634.4376233760001,1634.4376233760001,1,-1,rojo,0,['N_B'],1636.189796889,1636.189796889,1636.189796889,1636.189796889,1638.2249768559998,1638.2249768559998,1638.2249768559998,1638.2249768559998,1638.2249768559998,1638.2249768559998,1638.2249768559998,1638.2249768559998,1640.2615642449998,1640.2615642449998,1640.2615642449998,1640.2615642449998,,,,,,,,,,,,,,,,,,,,,,,,,,,,,,,,,,,,,,,06,005,2022-09-23_10h28.54.009,test2,2022.2.4,59.93341337840656,
0,0,0,0,58,0,58,0,1640.2615642449998,1640.2615642449998,1640.2615642449998,1640.2615642449998,1640.2615642449998,1640.2615642449998,1640.2615642449998,-1,1,rojo,1,['N_B'],1642.16375985,1642.16375985,1642.16375985,1642.16375985,1644.198490866,1644.198490866,1644.198490866,1644.198490866,1644.198490866,1644.198490866,1644.198490866,1644.198490866,1646.2343389159998,1646.2343389159998,1646.2343389159998,1646.2343389159998,,,,,,,,,,,,,,,,,,,,,,,,,,,,,,,,,,,,,,,06,005,2022-09-23_10h28.54.009,test2,2022.2.4,59.93341337840656,
0,0,0,0,59,0,59,0,1646.2343389159998,1646.2343389159998,1646.2343389159998,1646.2343389159998,1646.2343389159998,1646.2343389159998,1646.2343389159998,1,-1,azul,1,['N_B'],1647.919824457,1647.919824457,1647.919824457,1647.919824457,1649.9555449000002,1649.9555449000002,1649.9555449000002,1649.9555449000002,1649.9555449000002,1649.9555449000002,1649.9555449000002,1649.9555449000002,1651.990008944,1651.990008944,1651.990008944,1651.990008944,,,,,,,,,,,,,,,,,,,,,,,,,,,,,,,,,,,,,,,06,005,2022-09-23_10h28.54.009,test2,2022.2.4,59.93341337840656,
0,0,0,0,60,0,60,0,1651.990008944,1651.990008944,1651.990008944,1651.990008944,1651.990008944,1651.990008944,1651.990008944,1,1,azul,0,['N_A'],1654.076507938,1654.076507938,1654.076507938,1654.076507938,1656.093745325,1656.093745325,1656.093745325,1656.093745325,1656.093745325,1656.093745325,1656.093745325,1656.093745325,1658.130917067,1658.130917067,1658.130917067,1658.130917067,,,,,,,,,,,,,,,,,,,,,,,,,,,,,,,,,,,,,,,06,005,2022-09-23_10h28.54.009,test2,2022.2.4,59.93341337840656,
0,0,0,0,61,0,61,0,1658.130917067,1658.130917067,1658.130917067,1658.130917067,1658.130917067,1658.130917067,1658.130917067,1,1,rojo,0,['N_B'],1659.799303771,1659.799303771,1659.799303771,1659.799303771,1661.8166620650002,1661.8166620650002,1661.8166620650002,1661.8166620650002,1661.8166620650002,1661.8166620650002,1661.8166620650002,1661.8166620650002,1663.8537703979998,1663.8537703979998,1663.8537703979998,1663.8537703979998,,,,,,,,,,,,,,,,,,,,,,,,,,,,,,,,,,,,,,,06,005,2022-09-23_10h28.54.009,test2,2022.2.4,59.93341337840656,
0,0,0,0,62,0,62,0,1663.8537703979998,1663.8537703979998,1663.8537703979998,1663.8537703979998,1663.8537703979998,1663.8537703979998,1663.8537703979998,-1,1,rojo,1,['N_B'],1665.471722336,1665.471722336,1665.471722336,1665.471722336,1667.506678977,1667.506678977,1667.506678977,1667.506678977,1667.506678977,1667.506678977,1667.506678977,1667.506678977,1669.5430551349998,1669.5430551349998,1669.5430551349998,1669.5430551349998,,,,,,,,,,,,,,,,,,,,,,,,,,,,,,,,,,,,,,,06,005,2022-09-23_10h28.54.009,test2,2022.2.4,59.93341337840656,
0,0,0,0,63,0,63,0,1669.5430551349998,1669.5430551349998,1669.5430551349998,1669.5430551349998,1669.5430551349998,1669.5430551349998,1669.5430551349998,1,-1,azul,0,['N_A'],1671.1116390609998,1671.1116390609998,1671.1116390609998,1671.1116390609998,1673.1474735989998,1673.1474735989998,1673.1474735989998,1673.1474735989998,1673.1474735989998,1673.1474735989998,1673.1474735989998,1673.1474735989998,1675.1832760230002,1675.1832760230002,1675.1832760230002,1675.1832760230002,,,,,,,,,,,,,,,,,,,,,,,,,,,,,,,,,,,,,,,06,005,2022-09-23_10h28.54.009,test2,2022.2.4,59.93341337840656,
0,0,0,0,64,0,64,0,1675.1832760230002,1675.1832760230002,1675.1832760230002,1675.1832760230002,1675.1832760230002,1675.1832760230002,1675.1832760230002,-1,-1,azul,1,['N_A'],1676.6016786980001,1676.6016786980001,1676.6016786980001,1676.6016786980001,1678.6364367529998,1678.6364367529998,1678.6364367529998,1678.6364367529998,1678.6364367529998,1678.6364367529998,1678.6364367529998,1678.6364367529998,1680.672287526,1680.672287526,1680.672287526,1680.672287526,,,,,,,,,,,,,,,,,,,,,,,,,,,,,,,,,,,,,,,06,005,2022-09-23_10h28.54.009,test2,2022.2.4,59.93341337840656,
0,0,0,0,65,0,65,0,1680.672287526,1680.672287526,1680.672287526,1680.672287526,1680.672287526,1680.672287526,1680.672287526,-1,-1,azul,1,['N_A'],1686.1619665790001,1686.1619665790001,1686.1619665790001,1686.1619665790001,1688.196566244,1688.196566244,1688.196566244,1688.196566244,1688.196566244,1688.196566244,1688.196566244,1688.196566244,1690.232628903,1690.232628903,1690.232628903,1690.232628903,,,,,,,,,,,,,,,,,,,,,,,,,,,,,,,,,,,,,,,06,005,2022-09-23_10h28.54.009,test2,2022.2.4,59.93341337840656,
0,0,0,0,66,0,66,0,1690.232628903,1690.232628903,1690.232628903,1690.232628903,1690.232628903,1690.232628903,1690.232628903,-1,-1,azul,0,['N_B'],1694.671213675,1694.671213675,1694.671213675,1694.671213675,1696.7069457129999,1696.7069457129999,1696.7069457129999,1696.7069457129999,1696.7069457129999,1696.7069457129999,1696.7069457129999,1696.7069457129999,1698.742033716,1698.742033716,1698.742033716,1698.742033716,,,,,,,,,,,,,,,,,,,,,,,,,,,,,,,,,,,,,,,06,005,2022-09-23_10h28.54.009,test2,2022.2.4,59.93341337840656,
0,0,0,0,67,0,67,0,1698.742033716,1698.742033716,1698.742033716,1698.742033716,1698.742033716,1698.742033716,1698.742033716,-1,1,rojo,1,['N_B'],1701.094965861,1701.094965861,1701.094965861,1701.094965861,1703.130157676,1703.130157676,1703.130157676,1703.130157676,1703.130157676,1703.130157676,1703.130157676,1703.130157676,1705.165900283,1705.165900283,1705.165900283,1705.165900283,,,,,,,,,,,,,,,,,,,,,,,,,,,,,,,,,,,,,,,06,005,2022-09-23_10h28.54.009,test2,2022.2.4,59.93341337840656,
0,0,0,0,68,0,68,0,1705.165900283,1705.165900283,1705.165900283,1705.165900283,1705.165900283,1705.165900283,1705.165900283,-1,-1,rojo,1,['N_B'],1706.617578568,1706.617578568,1706.617578568,1706.617578568,1708.6530589390002,1708.6530589390002,1708.6530589390002,1708.6530589390002,1708.6530589390002,1708.6530589390002,1708.6530589390002,1708.6530589390002,1710.689172533,1710.689172533,1710.689172533,1710.689172533,,,,,,,,,,,,,,,,,,,,,,,,,,,,,,,,,,,,,,,06,005,2022-09-23_10h28.54.009,test2,2022.2.4,59.93341337840656,
0,0,0,0,69,0,69,0,1710.689172533,1710.689172533,1710.689172533,1710.689172533,1710.689172533,1710.689172533,1710.689172533,1,1,azul,0,['N_A'],1712.5902241309998,1712.5902241309998,1712.5902241309998,1712.5902241309998,1714.6104344560001,1714.6104344560001,1714.6104344560001,1714.6104344560001,1714.6104344560001,1714.6104344560001,1714.6104344560001,1714.6104344560001,1716.6453861950001,1716.6453861950001,1716.6453861950001,1716.6453861950001,,,,,,,,,,,,,,,,,,,,,,,,,,,,,,,,,,,,,,,06,005,2022-09-23_10h28.54.009,test2,2022.2.4,59.93341337840656,
0,0,0,0,70,0,70,0,1716.6453861950001,1716.6453861950001,1716.6453861950001,1716.6453861950001,1716.6453861950001,1716.6453861950001,1716.6453861950001,1,1,rojo,0,['N_B'],1718.881002727,1718.881002727,1718.881002727,1718.881002727,1720.898560161,1720.898560161,1720.898560161,1720.898560161,1720.898560161,1720.898560161,1720.898560161,1720.898560161,1722.9356949790001,1722.9356949790001,1722.9356949790001,1722.9356949790001,,,,,,,,,,,,,,,,,,,,,,,,,,,,,,,,,,,,,,,06,005,2022-09-23_10h28.54.009,test2,2022.2.4,59.93341337840656,
0,0,0,0,71,0,71,0,1722.9356949790001,1722.9356949790001,1722.9356949790001,1722.9356949790001,1722.9356949790001,1722.9356949790001,1722.9356949790001,1,1,azul,0,['N_A'],1725.905664531,1725.905664531,1725.905664531,1725.905664531,1727.9408895630002,1727.9408895630002,1727.9408895630002,1727.9408895630002,1727.9408895630002,1727.9408895630002,1727.9408895630002,1727.9408895630002,1729.9769590019998,1729.9769590019998,1729.9769590019998,1729.9769590019998,,,,,,,,,,,,,,,,,,,,,,,,,,,,,,,,,,,,,,,06,005,2022-09-23_10h28.54.009,test2,2022.2.4,59.93341337840656,
0,0,0,0,72,0,72,0,1729.9769590019998,1729.9769590019998,1729.9769590019998,1729.9769590019998,1729.9769590019998,1729.9769590019998,1729.9769590019998,1,-1,rojo,0,['N_B'],1731.9121717760002,1731.9121717760002,1731.9121717760002,1731.9121717760002,1733.9477196270002,1733.9477196270002,1733.9477196270002,1733.9477196270002,1733.9477196270002,1733.9477196270002,1733.9477196270002,1733.9477196270002,1735.9833028760002,1735.9833028760002,1735.9833028760002,1735.9833028760002,,,,,,,,,,,,,,,,,,,,,,,,,,,,,,,,,,,,,,,06,005,2022-09-23_10h28.54.009,test2,2022.2.4,59.93341337840656,
0,0,0,0,73,0,73,0,1735.9833028760002,1735.9833028760002,1735.9833028760002,1735.9833028760002,1735.9833028760002,1735.9833028760002,1735.9833028760002,1,1,azul,1,['N_B'],1737.6179645619998,1737.6179645619998,1737.6179645619998,1737.6179645619998,1739.63672888,1739.63672888,1739.63672888,1739.63672888,1739.63672888,1739.63672888,1739.63672888,1739.63672888,1741.6723957789998,1741.6723957789998,1741.6723957789998,1741.6723957789998,,,,,,,,,,,,,,,,,,,,,,,,,,,,,,,,,,,,,,,06,005,2022-09-23_10h28.54.009,test2,2022.2.4,59.93341337840656,
0,0,0,0,74,0,74,0,1741.6723957789998,1741.6723957789998,1741.6723957789998,1741.6723957789998,1741.6723957789998,1741.6723957789998,1741.6723957789998,1,1,azul,0,['N_A'],1743.341847647,1743.341847647,1743.341847647,1743.341847647,1745.3590436420002,1745.3590436420002,1745.3590436420002,1745.3590436420002,1745.3590436420002,1745.3590436420002,1745.3590436420002,1745.3590436420002,1747.3961763280001,1747.3961763280001,1747.3961763280001,1747.3961763280001,,,,,,,,,,,,,,,,,,,,,,,,,,,,,,,,,,,,,,,06,005,2022-09-23_10h28.54.009,test2,2022.2.4,59.93341337840656,
0,0,0,0,75,0,75,0,1747.3961763280001,1747.3961763280001,1747.3961763280001,1747.3961763280001,1747.3961763280001,1747.3961763280001,1747.3961763280001,1,1,rojo,0,['N_B'],1748.8478533639998,1748.8478533639998,1748.8478533639998,1748.8478533639998,1750.8828689589998,1750.8828689589998,1750.8828689589998,1750.8828689589998,1750.8828689589998,1750.8828689589998,1750.8828689589998,1750.8828689589998,1752.9183302899999,1752.9183302899999,1752.9183302899999,1752.9183302899999,,,,,,,,,,,,,,,,,,,,,,,,,,,,,,,,,,,,,,,06,005,2022-09-23_10h28.54.009,test2,2022.2.4,59.93341337840656,
0,0,0,0,76,0,76,0,1752.9183302899999,1752.9183302899999,1752.9183302899999,1752.9183302899999,1752.9183302899999,1752.9183302899999,1752.9183302899999,1,-1,azul,1,['N_B'],1754.4037259949998,1754.4037259949998,1754.4037259949998,1754.4037259949998,1756.439539888,1756.439539888,1756.439539888,1756.439539888,1756.439539888,1756.439539888,1756.439539888,1756.439539888,1758.4752113349998,1758.4752113349998,1758.4752113349998,1758.4752113349998,,,,,,,,,,,,,,,,,,,,,,,,,,,,,,,,,,,,,,,06,005,2022-09-23_10h28.54.009,test2,2022.2.4,59.93341337840656,
0,0,0,0,77,0,77,0,1758.4752113349998,1758.4752113349998,1758.4752113349998,1758.4752113349998,1758.4752113349998,1758.4752113349998,1758.4752113349998,-1,-1,rojo,1,['N_B'],1759.8930676829998,1759.8930676829998,1759.8930676829998,1759.8930676829998,1761.928886085,1761.928886085,1761.928886085,1761.928886085,1761.928886085,1761.928886085,1761.928886085,1761.928886085,1763.964761251,1763.964761251,1763.964761251,1763.964761251,,,,,,,,,,,,,,,,,,,,,,,,,,,,,,,,,,,,,,,06,005,2022-09-23_10h28.54.009,test2,2022.2.4,59.93341337840656,
0,0,0,0,78,0,78,0,1763.964761251,1763.964761251,1763.964761251,1763.964761251,1763.964761251,1763.964761251,1763.964761251,-1,1,rojo,0,['N_A'],1765.8157673909998,1765.8157673909998,1765.8157673909998,1765.8157673909998,1767.8516615229998,1767.8516615229998,1767.8516615229998,1767.8516615229998,1767.8516615229998,1767.8516615229998,1767.8516615229998,1767.8516615229998,1769.8873303369999,1769.8873303369999,1769.8873303369999,1769.8873303369999,,,,,,,,,,,,,,,,,,,,,,,,,,,,,,,,,,,,,,,06,005,2022-09-23_10h28.54.009,test2,2022.2.4,59.93341337840656,
0,0,0,0,79,0,79,0,1769.8873303369999,1769.8873303369999,1769.8873303369999,1769.8873303369999,1769.8873303369999,1769.8873303369999,1769.8873303369999,1,-1,rojo,1,['N_A'],1771.371841207,1771.371841207,1771.371841207,1771.371841207,1773.40766533,1773.40766533,1773.40766533,1773.40766533,1773.40766533,1773.40766533,1773.40766533,1773.40766533,1775.44344483,1775.44344483,1775.44344483,1775.44344483,,,,,,,,,,,,,,,,,,,,,,,,,,,,,,,,,,,,,,,06,005,2022-09-23_10h28.54.009,test2,2022.2.4,59.93341337840656,
0,0,0,0,80,0,80,0,1775.44344483,1775.44344483,1775.44344483,1775.44344483,1775.44344483,1775.44344483,1775.44344483,-1,1,azul,0,['N_B'],1777.495355498,1777.495355498,1777.495355498,1777.495355498,1779.514333677,1779.514333677,1779.514333677,1779.514333677,1779.514333677,1779.514333677,1779.514333677,1779.514333677,1781.5502252180002,1781.5502252180002,1781.5502252180002,1781.5502252180002,,,,,,,,,,,,,,,,,,,,,,,,,,,,,,,,,,,,,,,06,005,2022-09-23_10h28.54.009,test2,2022.2.4,59.93341337840656,
0,0,0,0,81,0,81,0,1781.5502252180002,1781.5502252180002,1781.5502252180002,1781.5502252180002,1781.5502252180002,1781.5502252180002,1781.5502252180002,1,1,azul,0,['N_A'],1783.6022775489998,1783.6022775489998,1783.6022775489998,1783.6022775489998,1785.6200901959999,1785.6200901959999,1785.6200901959999,1785.6200901959999,1785.6200901959999,1785.6200901959999,1785.6200901959999,1785.6200901959999,1787.6570723319999,1787.6570723319999,1787.6570723319999,1787.6570723319999,,,,,,,,,,,,,,,,,,,,,,,,,,,,,,,,,,,,,,,06,005,2022-09-23_10h28.54.009,test2,2022.2.4,59.93341337840656,
0,0,0,0,82,0,82,0,1787.6570723319999,1787.6570723319999,1787.6570723319999,1787.6570723319999,1787.6570723319999,1787.6570723319999,1787.6570723319999,1,1,rojo,0,['N_B'],1789.4421647370002,1789.4421647370002,1789.4421647370002,1789.4421647370002,1791.478235019,1791.478235019,1791.478235019,1791.478235019,1791.478235019,1791.478235019,1791.478235019,1791.478235019,1793.51406217,1793.51406217,1793.51406217,1793.51406217,,,,,,,,,,,,,,,,,,,,,,,,,,,,,,,,,,,,,,,06,005,2022-09-23_10h28.54.009,test2,2022.2.4,59.93341337840656,
0,0,0,0,83,0,83,0,1793.51406217,1793.51406217,1793.51406217,1793.51406217,1793.51406217,1793.51406217,1793.51406217,-1,-1,rojo,1,['N_B'],1795.098416951,1795.098416951,1795.098416951,1795.098416951,1797.1340949459998,1797.1340949459998,1797.1340949459998,1797.1340949459998,1797.1340949459998,1797.1340949459998,1797.1340949459998,1797.1340949459998,1799.1694191240001,1799.1694191240001,1799.1694191240001,1799.1694191240001,,,,,,,,,,,,,,,,,,,,,,,,,,,,,,,,,,,,,,,06,005,2022-09-23_10h28.54.009,test2,2022.2.4,59.93341337840656,
0,0,0,0,84,0,84,0,1799.1694191240001,1799.1694191240001,1799.1694191240001,1799.1694191240001,1799.1694191240001,1799.1694191240001,1799.1694191240001,-1,1,rojo,0,['N_A'],1800.955664321,1800.955664321,1800.955664321,1800.955664321,1802.972472781,1802.972472781,1802.972472781,1802.972472781,1802.972472781,1802.972472781,1802.972472781,1802.972472781,1805.008985671,1805.008985671,1805.008985671,1805.008985671,,,,,,,,,,,,,,,,,,,,,,,,,,,,,,,,,,,,,,,06,005,2022-09-23_10h28.54.009,test2,2022.2.4,59.93341337840656,
0,0,0,0,85,0,85,0,1805.008985671,1805.008985671,1805.008985671,1805.008985671,1805.008985671,1805.008985671,1805.008985671,1,1,rojo,1,['N_A'],1806.8952250969999,1806.8952250969999,1806.8952250969999,1806.8952250969999,1808.9302386729998,1808.9302386729998,1808.9302386729998,1808.9302386729998,1808.9302386729998,1808.9302386729998,1808.9302386729998,1808.9302386729998,1810.966148876,1810.966148876,1810.966148876,1810.966148876,,,,,,,,,,,,,,,,,,,,,,,,,,,,,,,,,,,,,,,06,005,2022-09-23_10h28.54.009,test2,2022.2.4,59.93341337840656,
0,0,0,0,86,0,86,0,1810.966148876,1810.966148876,1810.966148876,1810.966148876,1810.966148876,1810.966148876,1810.966148876,1,-1,rojo,0,['N_B'],1812.5175489679998,1812.5175489679998,1812.5175489679998,1812.5175489679998,1814.5528048570002,1814.5528048570002,1814.5528048570002,1814.5528048570002,1814.5528048570002,1814.5528048570002,1814.5528048570002,1814.5528048570002,1816.5891051659999,1816.5891051659999,1816.5891051659999,1816.5891051659999,,,,,,,,,,,,,,,,,,,,,,,,,,,,,,,,,,,,,,,06,005,2022-09-23_10h28.54.009,test2,2022.2.4,59.93341337840656,
0,0,0,0,87,0,87,0,1816.5891051659999,1816.5891051659999,1816.5891051659999,1816.5891051659999,1816.5891051659999,1816.5891051659999,1816.5891051659999,1,-1,azul,1,['N_B'],1818.307513119,1818.307513119,1818.307513119,1818.307513119,1820.342636831,1820.342636831,1820.342636831,1820.342636831,1820.342636831,1820.342636831,1820.342636831,1820.342636831,1822.3795473970001,1822.3795473970001,1822.3795473970001,1822.3795473970001,,,,,,,,,,,,,,,,,,,,,,,,,,,,,,,,,,,,,,,06,005,2022-09-23_10h28.54.009,test2,2022.2.4,59.93341337840656,
0,0,0,0,88,0,88,0,1822.3795473970001,1822.3795473970001,1822.3795473970001,1822.3795473970001,1822.3795473970001,1822.3795473970001,1822.3795473970001,-1,-1,rojo,1,['N_B'],1823.88056557,1823.88056557,1823.88056557,1823.88056557,1825.916518487,1825.916518487,1825.916518487,1825.916518487,1825.916518487,1825.916518487,1825.916518487,1825.916518487,1827.951357239,1827.951357239,1827.951357239,1827.951357239,,,,,,,,,,,,,,,,,,,,,,,,,,,,,,,,,,,,,,,06,005,2022-09-23_10h28.54.009,test2,2022.2.4,59.93341337840656,
0,0,0,0,89,0,89,0,1827.951357239,1827.951357239,1827.951357239,1827.951357239,1827.951357239,1827.951357239,1827.951357239,-1,-1,rojo,0,['N_A'],1830.3040501449998,1830.3040501449998,1830.3040501449998,1830.3040501449998,1832.3400200540002,1832.3400200540002,1832.3400200540002,1832.3400200540002,1832.3400200540002,1832.3400200540002,1832.3400200540002,1832.3400200540002,1834.3751152910002,1834.3751152910002,1834.3751152910002,1834.3751152910002,,,,,,,,,,,,,,,,,,,,,,,,,,,,,,,,,,,,,,,06,005,2022-09-23_10h28.54.009,test2,2022.2.4,59.93341337840656,
0,0,0,0,90,0,90,0,1834.3751152910002,1834.3751152910002,1834.3751152910002,1834.3751152910002,1834.3751152910002,1834.3751152910002,1834.3751152910002,-1,1,azul,0,['N_B'],1835.8938842270002,1835.8938842270002,1835.8938842270002,1835.8938842270002,1837.9288544009999,1837.9288544009999,1837.9288544009999,1837.9288544009999,1837.9288544009999,1837.9288544009999,1837.9288544009999,1837.9288544009999,1839.9641988709998,1839.9641988709998,1839.9641988709998,1839.9641988709998,,,,,,,,,,,,,,,,,,,,,,,,,,,,,,,,,,,,,,,06,005,2022-09-23_10h28.54.009,test2,2022.2.4,59.93341337840656,
0,0,0,0,91,0,91,0,1839.9641988709998,1839.9641988709998,1839.9641988709998,1839.9641988709998,1839.9641988709998,1839.9641988709998,1839.9641988709998,-1,-1,rojo,0,['N_A'],1841.849026308,1841.849026308,1841.849026308,1841.849026308,1843.8855586769998,1843.8855586769998,1843.8855586769998,1843.8855586769998,1843.8855586769998,1843.8855586769998,1843.8855586769998,1843.8855586769998,1845.921069494,1845.921069494,1845.921069494,1845.921069494,,,,,,,,,,,,,,,,,,,,,,,,,,,,,,,,,,,,,,,06,005,2022-09-23_10h28.54.009,test2,2022.2.4,59.93341337840656,
0,0,0,0,92,0,92,0,1845.921069494,1845.921069494,1845.921069494,1845.921069494,1845.921069494,1845.921069494,1845.921069494,-1,1,azul,1,['N_A'],1847.9407668350002,1847.9407668350002,1847.9407668350002,1847.9407668350002,1849.97520268,1849.97520268,1849.97520268,1849.97520268,1849.97520268,1849.97520268,1849.97520268,1849.97520268,1852.0114775190002,1852.0114775190002,1852.0114775190002,1852.0114775190002,,,,,,,,,,,,,,,,,,,,,,,,,,,,,,,,,,,,,,,06,005,2022-09-23_10h28.54.009,test2,2022.2.4,59.93341337840656,
0,0,0,0,93,0,93,0,1852.0114775190002,1852.0114775190002,1852.0114775190002,1852.0114775190002,1852.0114775190002,1852.0114775190002,1852.0114775190002,1,-1,rojo,1,['N_A'],1853.6627022179998,1853.6627022179998,1853.6627022179998,1853.6627022179998,1855.698563532,1855.698563532,1855.698563532,1855.698563532,1855.698563532,1855.698563532,1855.698563532,1855.698563532,1857.7339451330001,1857.7339451330001,1857.7339451330001,1857.7339451330001,,,,,,,,,,,,,,,,,,,,,,,,,,,,,,,,,,,,,,,06,005,2022-09-23_10h28.54.009,test2,2022.2.4,59.93341337840656,
0,0,0,0,94,0,94,0,1857.7339451330001,1857.7339451330001,1857.7339451330001,1857.7339451330001,1857.7339451330001,1857.7339451330001,1857.7339451330001,1,-1,rojo,1,['N_A'],1859.353029951,1859.353029951,1859.353029951,1859.353029951,1861.388698347,1861.388698347,1861.388698347,1861.388698347,1861.388698347,1861.388698347,1861.388698347,1861.388698347,1863.423189718,1863.423189718,1863.423189718,1863.423189718,,,,,,,,,,,,,,,,,,,,,,,,,,,,,,,,,,,,,,,06,005,2022-09-23_10h28.54.009,test2,2022.2.4,59.93341337840656,
0,0,0,0,95,0,95,0,1863.423189718,1863.423189718,1863.423189718,1863.423189718,1863.423189718,1863.423189718,1863.423189718,1,1,rojo,0,['N_B'],1864.825580288,1864.825580288,1864.825580288,1864.825580288,1866.8611263690002,1866.8611263690002,1866.8611263690002,1866.8611263690002,1866.8611263690002,1866.8611263690002,1866.8611263690002,1866.8611263690002,1868.896601751,1868.896601751,1868.896601751,1868.896601751,,,,,,,,,,,,,,,,,,,,,,,,,,,,,,,,,,,,,,,06,005,2022-09-23_10h28.54.009,test2,2022.2.4,59.93341337840656,
0,0,0,0,96,0,96,0,1868.896601751,1868.896601751,1868.896601751,1868.896601751,1868.896601751,1868.896601751,1868.896601751,1,-1,azul,1,['N_B'],1870.514768228,1870.514768228,1870.514768228,1870.514768228,1872.550531219,1872.550531219,1872.550531219,1872.550531219,1872.550531219,1872.550531219,1872.550531219,1872.550531219,1874.586199018,1874.586199018,1874.586199018,1874.586199018,,,,,,,,,,,,,,,,,,,,,,,,,,,,,,,,,,,,,,,06,005,2022-09-23_10h28.54.009,test2,2022.2.4,59.93341337840656,
0,0,0,0,97,0,97,0,1874.586199018,1874.586199018,1874.586199018,1874.586199018,1874.586199018,1874.586199018,1874.586199018,1,1,azul,0,['N_A'],1876.1386052659998,1876.1386052659998,1876.1386052659998,1876.1386052659998,1878.1738030509998,1878.1738030509998,1878.1738030509998,1878.1738030509998,1878.1738030509998,1878.1738030509998,1878.1738030509998,1878.1738030509998,1880.208702991,1880.208702991,1880.208702991,1880.208702991,,,,,,,,,,,,,,,,,,,,,,,,,,,,,,,,,,,,,,,06,005,2022-09-23_10h28.54.009,test2,2022.2.4,59.93341337840656,
0,0,0,0,98,0,98,0,1880.208702991,1880.208702991,1880.208702991,1880.208702991,1880.208702991,1880.208702991,1880.208702991,-1,-1,azul,1,['N_A'],1882.0109627260001,1882.0109627260001,1882.0109627260001,1882.0109627260001,1884.0469603929998,1884.0469603929998,1884.0469603929998,1884.0469603929998,1884.0469603929998,1884.0469603929998,1884.0469603929998,1884.0469603929998,1886.082705699,1886.082705699,1886.082705699,1886.082705699,,,,,,,,,,,,,,,,,,,,,,,,,,,,,,,,,,,,,,,06,005,2022-09-23_10h28.54.009,test2,2022.2.4,59.93341337840656,
0,0,0,0,99,0,99,0,1886.082705699,1886.082705699,1886.082705699,1886.082705699,1886.082705699,1886.082705699,1886.082705699,1,1,rojo,0,['N_B'],1887.8670489529998,1887.8670489529998,1887.8670489529998,1887.8670489529998,1889.884976008,1889.884976008,1889.884976008,1889.884976008,1889.884976008,1889.884976008,1889.884976008,1889.884976008,1891.921469949,1891.921469949,1891.921469949,1891.921469949,,,,,,,,,,,,,,,,,,,,,,,,,,,,,,,,,,,,,,,06,005,2022-09-23_10h28.54.009,test2,2022.2.4,59.93341337840656,
0,0,0,0,100,0,100,0,1891.921469949,1891.921469949,1891.921469949,1891.921469949,1891.921469949,1891.921469949,1891.921469949,1,1,azul,1,['N_B'],1893.7734826600001,1893.7734826600001,1893.7734826600001,1893.7734826600001,1895.792793684,1895.792793684,1895.792793684,1895.792793684,1895.792793684,1895.792793684,1895.792793684,1895.792793684,1897.82848037,1897.82848037,1897.82848037,1897.82848037,,,,,,,,,,,,,,,,,,,,,,,,,,,,,,,,,,,,,,,06,005,2022-09-23_10h28.54.009,test2,2022.2.4,59.93341337840656,
0,0,0,0,101,0,101,0,1897.82848037,1897.82848037,1897.82848037,1897.82848037,1897.82848037,1897.82848037,1897.82848037,1,1,azul,0,['N_A'],1899.6469405639998,1899.6469405639998,1899.6469405639998,1899.6469405639998,1901.6834649639998,1901.6834649639998,1901.6834649639998,1901.6834649639998,1901.6834649639998,1901.6834649639998,1901.6834649639998,1901.6834649639998,1903.7182455099999,1903.7182455099999,1903.7182455099999,1903.7182455099999,,,,,,,,,,,,,,,,,,,,,,,,,,,,,,,,,,,,,,,06,005,2022-09-23_10h28.54.009,test2,2022.2.4,59.93341337840656,
0,0,0,0,102,0,102,0,1903.7182455099999,1903.7182455099999,1903.7182455099999,1903.7182455099999,1903.7182455099999,1903.7182455099999,1903.7182455099999,1,-1,rojo,1,['N_A'],1905.4031447220002,1905.4031447220002,1905.4031447220002,1905.4031447220002,1907.4395827820001,1907.4395827820001,1907.4395827820001,1907.4395827820001,1907.4395827820001,1907.4395827820001,1907.4395827820001,1907.4395827820001,1909.4742541389999,1909.4742541389999,1909.4742541389999,1909.4742541389999,,,,,,,,,,,,,,,,,,,,,,,,,,,,,,,,,,,,,,,06,005,2022-09-23_10h28.54.009,test2,2022.2.4,59.93341337840656,
0,0,0,0,103,0,103,0,1909.4742541389999,1909.4742541389999,1909.4742541389999,1909.4742541389999,1909.4742541389999,1909.4742541389999,1909.4742541389999,1,-1,rojo,0,['N_B'],1910.9261163519998,1910.9261163519998,1910.9261163519998,1910.9261163519998,1912.9617965159998,1912.9617965159998,1912.9617965159998,1912.9617965159998,1912.9617965159998,1912.9617965159998,1912.9617965159998,1912.9617965159998,1914.9971883679998,1914.9971883679998,1914.9971883679998,1914.9971883679998,,,,,,,,,,,,,,,,,,,,,,,,,,,,,,,,,,,,,,,06,005,2022-09-23_10h28.54.009,test2,2022.2.4,59.93341337840656,
0,0,0,0,104,0,104,0,1914.9971883679998,1914.9971883679998,1914.9971883679998,1914.9971883679998,1914.9971883679998,1914.9971883679998,1914.9971883679998,1,1,azul,0,['N_A'],1919.903391039,1919.903391039,1919.903391039,1919.903391039,1921.92148041,1921.92148041,1921.92148041,1921.92148041,1921.92148041,1921.92148041,1921.92148041,1921.92148041,1923.957188578,1923.957188578,1923.957188578,1923.957188578,,,,,,,,,,,,,,,,,,,,,,,,,,,,,,,,,,,,,,,06,005,2022-09-23_10h28.54.009,test2,2022.2.4,59.93341337840656,
0,0,0,0,105,0,105,0,1923.957188578,1923.957188578,1923.957188578,1923.957188578,1923.957188578,1923.957188578,1923.957188578,-1,1,azul,1,['N_A'],1925.458979961,1925.458979961,1925.458979961,1925.458979961,1927.477278532,1927.477278532,1927.477278532,1927.477278532,1927.477278532,1927.477278532,1927.477278532,1927.477278532,1929.512781312,1929.512781312,1929.512781312,1929.512781312,,,,,,,,,,,,,,,,,,,,,,,,,,,,,,,,,,,,,,,06,005,2022-09-23_10h28.54.009,test2,2022.2.4,59.93341337840656,
0,0,0,0,106,0,106,0,1929.512781312,1929.512781312,1929.512781312,1929.512781312,1929.512781312,1929.512781312,1929.512781312,1,1,rojo,0,['N_B'],1931.1652605000002,1931.1652605000002,1931.1652605000002,1931.1652605000002,1933.2010352129998,1933.2010352129998,1933.2010352129998,1933.2010352129998,1933.2010352129998,1933.2010352129998,1933.2010352129998,1933.2010352129998,1935.236515201,1935.236515201,1935.236515201,1935.236515201,,,,,,,,,,,,,,,,,,,,,,,,,,,,,,,,,,,,,,,06,005,2022-09-23_10h28.54.009,test2,2022.2.4,59.93341337840656,
0,0,0,0,107,0,107,0,1935.236515201,1935.236515201,1935.236515201,1935.236515201,1935.236515201,1935.236515201,1935.236515201,1,-1,azul,1,['N_B'],1936.6886374570001,1936.6886374570001,1936.6886374570001,1936.6886374570001,1938.723606747,1938.723606747,1938.723606747,1938.723606747,1938.723606747,1938.723606747,1938.723606747,1938.723606747,1940.7589263799998,1940.7589263799998,1940.7589263799998,1940.7589263799998,,,,,,,,,,,,,,,,,,,,,,,,,,,,,,,,,,,,,,,06,005,2022-09-23_10h28.54.009,test2,2022.2.4,59.93341337840656,
0,0,0,0,108,0,108,0,1940.7589263799998,1940.7589263799998,1940.7589263799998,1940.7589263799998,1940.7589263799998,1940.7589263799998,1940.7589263799998,1,-1,azul,0,['N_A'],1942.2102862119998,1942.2102862119998,1942.2102862119998,1942.2102862119998,1944.2465044960002,1944.2465044960002,1944.2465044960002,1944.2465044960002,1944.2465044960002,1944.2465044960002,1944.2465044960002,1944.2465044960002,1946.2825210519998,1946.2825210519998,1946.2825210519998,1946.2825210519998,,,,,,,,,,,,,,,,,,,,,,,,,,,,,,,,,,,,,,,06,005,2022-09-23_10h28.54.009,test2,2022.2.4,59.93341337840656,
0,0,0,0,109,0,109,0,1946.2825210519998,1946.2825210519998,1946.2825210519998,1946.2825210519998,1946.2825210519998,1946.2825210519998,1946.2825210519998,-1,1,azul,0,['N_B'],1948.366974575,1948.366974575,1948.366974575,1948.366974575,1950.3863821399998,1950.3863821399998,1950.3863821399998,1950.3863821399998,1950.3863821399998,1950.3863821399998,1950.3863821399998,1950.3863821399998,1952.421846906,1952.421846906,1952.421846906,1952.421846906,,,,,,,,,,,,,,,,,,,,,,,,,,,,,,,,,,,,,,,06,005,2022-09-23_10h28.54.009,test2,2022.2.4,59.93341337840656,
0,0,0,0,110,0,110,0,1952.421846906,1952.421846906,1952.421846906,1952.421846906,1952.421846906,1952.421846906,1952.421846906,1,1,azul,0,['N_A'],1953.94035251,1953.94035251,1953.94035251,1953.94035251,1955.9765654239998,1955.9765654239998,1955.9765654239998,1955.9765654239998,1955.9765654239998,1955.9765654239998,1955.9765654239998,1955.9765654239998,1958.0111476579998,1958.0111476579998,1958.0111476579998,1958.0111476579998,,,,,,,,,,,,,,,,,,,,,,,,,,,,,,,,,,,,,,,06,005,2022-09-23_10h28.54.009,test2,2022.2.4,59.93341337840656,
0,0,0,0,111,0,111,0,1958.0111476579998,1958.0111476579998,1958.0111476579998,1958.0111476579998,1958.0111476579998,1958.0111476579998,1958.0111476579998,1,-1,rojo,0,['N_B'],1960.0305779859998,1960.0305779859998,1960.0305779859998,1960.0305779859998,1962.06637282,1962.06637282,1962.06637282,1962.06637282,1962.06637282,1962.06637282,1962.06637282,1962.06637282,1964.10136769,1964.10136769,1964.10136769,1964.10136769,,,,,,,,,,,,,,,,,,,,,,,,,,,,,,,,,,,,,,,06,005,2022-09-23_10h28.54.009,test2,2022.2.4,59.93341337840656,
0,0,0,0,112,0,112,0,1964.10136769,1964.10136769,1964.10136769,1964.10136769,1964.10136769,1964.10136769,1964.10136769,1,1,azul,1,['N_B'],1965.8532429129998,1965.8532429129998,1965.8532429129998,1965.8532429129998,1967.8888781809999,1967.8888781809999,1967.8888781809999,1967.8888781809999,1967.8888781809999,1967.8888781809999,1967.8888781809999,1967.8888781809999,1969.924510401,1969.924510401,1969.924510401,1969.924510401,,,,,,,,,,,,,,,,,,,,,,,,,,,,,,,,,,,,,,,06,005,2022-09-23_10h28.54.009,test2,2022.2.4,59.93341337840656,
0,0,0,0,113,0,113,0,1969.924510401,1969.924510401,1969.924510401,1969.924510401,1969.924510401,1969.924510401,1969.924510401,1,-1,azul,1,['N_B'],1971.4095628809998,1971.4095628809998,1971.4095628809998,1971.4095628809998,1973.4453979819998,1973.4453979819998,1973.4453979819998,1973.4453979819998,1973.4453979819998,1973.4453979819998,1973.4453979819998,1973.4453979819998,1975.4806378279998,1975.4806378279998,1975.4806378279998,1975.4806378279998,,,,,,,,,,,,,,,,,,,,,,,,,,,,,,,,,,,,,,,06,005,2022-09-23_10h28.54.009,test2,2022.2.4,59.93341337840656,
0,0,0,0,114,0,114,0,1975.4806378279998,1975.4806378279998,1975.4806378279998,1975.4806378279998,1975.4806378279998,1975.4806378279998,1975.4806378279998,1,-1,azul,1,['N_B'],1976.98316336,1976.98316336,1976.98316336,1976.98316336,1979.0179972079998,1979.0179972079998,1979.0179972079998,1979.0179972079998,1979.0179972079998,1979.0179972079998,1979.0179972079998,1979.0179972079998,1981.053294179,1981.053294179,1981.053294179,1981.053294179,,,,,,,,,,,,,,,,,,,,,,,,,,,,,,,,,,,,,,,06,005,2022-09-23_10h28.54.009,test2,2022.2.4,59.93341337840656,
0,0,0,0,115,0,115,0,1981.053294179,1981.053294179,1981.053294179,1981.053294179,1981.053294179,1981.053294179,1981.053294179,1,-1,azul,1,['N_B'],1982.438175387,1982.438175387,1982.438175387,1982.438175387,1984.474161971,1984.474161971,1984.474161971,1984.474161971,1984.474161971,1984.474161971,1984.474161971,1984.474161971,1986.5097999359998,1986.5097999359998,1986.5097999359998,1986.5097999359998,,,,,,,,,,,,,,,,,,,,,,,,,,,,,,,,,,,,,,,06,005,2022-09-23_10h28.54.009,test2,2022.2.4,59.93341337840656,
0,0,0,0,116,0,116,0,1986.5097999359998,1986.5097999359998,1986.5097999359998,1986.5097999359998,1986.5097999359998,1986.5097999359998,1986.5097999359998,1,-1,azul,0,['N_A'],1988.328116905,1988.328116905,1988.328116905,1988.328116905,1990.363152567,1990.363152567,1990.363152567,1990.363152567,1990.363152567,1990.363152567,1990.363152567,1990.363152567,1992.3999998820002,1992.3999998820002,1992.3999998820002,1992.3999998820002,,,,,,,,,,,,,,,,,,,,,,,,,,,,,,,,,,,,,,,06,005,2022-09-23_10h28.54.009,test2,2022.2.4,59.93341337840656,
0,0,0,0,117,0,117,0,1992.3999998820002,1992.3999998820002,1992.3999998820002,1992.3999998820002,1992.3999998820002,1992.3999998820002,1992.3999998820002,1,-1,rojo,1,['N_A'],1994.802256799,1994.802256799,1994.802256799,1994.802256799,1996.8370307960001,1996.8370307960001,1996.8370307960001,1996.8370307960001,1996.8370307960001,1996.8370307960001,1996.8370307960001,1996.8370307960001,1998.8739408,1998.8739408,1998.8739408,1998.8739408,,,,,,,,,,,,,,,,,,,,,,,,,,,,,,,,,,,,,,,06,005,2022-09-23_10h28.54.009,test2,2022.2.4,59.93341337840656,
0,0,0,0,118,0,118,0,1998.8739408,1998.8739408,1998.8739408,1998.8739408,1998.8739408,1998.8739408,1998.8739408,1,1,rojo,1,['N_A'],2000.358037223,2000.358037223,2000.358037223,2000.358037223,2002.3772529730002,2002.3772529730002,2002.3772529730002,2002.3772529730002,2002.3772529730002,2002.3772529730002,2002.3772529730002,2002.3772529730002,2004.412816324,2004.412816324,2004.412816324,2004.412816324,,,,,,,,,,,,,,,,,,,,,,,,,,,,,,,,,,,,,,,06,005,2022-09-23_10h28.54.009,test2,2022.2.4,59.93341337840656,
0,0,0,0,119,0,119,0,2004.412816324,2004.412816324,2004.412816324,2004.412816324,2004.412816324,2004.412816324,2004.412816324,1,1,rojo,0,['N_B'],2005.964557131,2005.964557131,2005.964557131,2005.964557131,2007.981968585,2007.981968585,2007.981968585,2007.981968585,2007.981968585,2007.981968585,2007.981968585,2007.981968585,2010.018743624,2010.018743624,2010.018743624,2010.018743624,,,,,,,,,,,,,,,,,,,,,,,,,,,,,,,,,,,,,,,06,005,2022-09-23_10h28.54.009,test2,2022.2.4,59.93341337840656,
0,0,0,0,120,0,120,0,2010.018743624,2010.018743624,2010.018743624,2010.018743624,2010.018743624,2010.018743624,2010.018743624,-1,1,rojo,0,['N_A'],2011.8876988109998,2011.8876988109998,2011.8876988109998,2011.8876988109998,2013.9068031640002,2013.9068031640002,2013.9068031640002,2013.9068031640002,2013.9068031640002,2013.9068031640002,2013.9068031640002,2013.9068031640002,2015.942241391,2015.942241391,2015.942241391,2015.942241391,,,,,,,,,,,,,,,,,,,,,,,,,,,,,,,,,,,,,,,06,005,2022-09-23_10h28.54.009,test2,2022.2.4,59.93341337840656,
0,0,0,0,121,0,121,0,2015.942241391,2015.942241391,2015.942241391,2015.942241391,2015.942241391,2015.942241391,2015.942241391,-1,1,azul,1,['N_A'],2017.5278623860002,2017.5278623860002,2017.5278623860002,2017.5278623860002,2019.562556955,2019.562556955,2019.562556955,2019.562556955,2019.562556955,2019.562556955,2019.562556955,2019.562556955,2021.598353578,2021.598353578,2021.598353578,2021.598353578,,,,,,,,,,,,,,,,,,,,,,,,,,,,,,,,,,,,,,,06,005,2022-09-23_10h28.54.009,test2,2022.2.4,59.93341337840656,
0,0,0,0,122,0,122,0,2021.598353578,2021.598353578,2021.598353578,2021.598353578,2021.598353578,2021.598353578,2021.598353578,-1,-1,azul,1,['N_A'],2023.2332985310002,2023.2332985310002,2023.2332985310002,2023.2332985310002,2025.2695438429998,2025.2695438429998,2025.2695438429998,2025.2695438429998,2025.2695438429998,2025.2695438429998,2025.2695438429998,2025.2695438429998,2027.304215644,2027.304215644,2027.304215644,2027.304215644,,,,,,,,,,,,,,,,,,,,,,,,,,,,,,,,,,,,,,,06,005,2022-09-23_10h28.54.009,test2,2022.2.4,59.93341337840656,
0,0,0,0,123,0,123,0,2027.304215644,2027.304215644,2027.304215644,2027.304215644,2027.304215644,2027.304215644,2027.304215644,1,1,rojo,1,['N_A'],2028.706565529,2028.706565529,2028.706565529,2028.706565529,2030.7248925410001,2030.7248925410001,2030.7248925410001,2030.7248925410001,2030.7248925410001,2030.7248925410001,2030.7248925410001,2030.7248925410001,2032.760060509,2032.760060509,2032.760060509,2032.760060509,,,,,,,,,,,,,,,,,,,,,,,,,,,,,,,,,,,,,,,06,005,2022-09-23_10h28.54.009,test2,2022.2.4,59.93341337840656,
0,0,0,0,124,0,124,0,2032.760060509,2032.760060509,2032.760060509,2032.760060509,2032.760060509,2032.760060509,2032.760060509,1,1,rojo,0,['N_B'],2034.212843989,2034.212843989,2034.212843989,2034.212843989,2036.2483688250002,2036.2483688250002,2036.2483688250002,2036.2483688250002,2036.2483688250002,2036.2483688250002,2036.2483688250002,2036.2483688250002,2038.2830541609999,2038.2830541609999,2038.2830541609999,2038.2830541609999,,,,,,,,,,,,,,,,,,,,,,,,,,,,,,,,,,,,,,,06,005,2022-09-23_10h28.54.009,test2,2022.2.4,59.93341337840656,
0,0,0,0,125,0,125,0,2038.2830541609999,2038.2830541609999,2038.2830541609999,2038.2830541609999,2038.2830541609999,2038.2830541609999,2038.2830541609999,1,-1,azul,1,['N_B'],2039.7021347799998,2039.7021347799998,2039.7021347799998,2039.7021347799998,2041.7376395620001,2041.7376395620001,2041.7376395620001,2041.7376395620001,2041.7376395620001,2041.7376395620001,2041.7376395620001,2041.7376395620001,2043.773099203,2043.773099203,2043.773099203,2043.773099203,,,,,,,,,,,,,,,,,,,,,,,,,,,,,,,,,,,,,,,06,005,2022-09-23_10h28.54.009,test2,2022.2.4,59.93341337840656,
0,0,0,0,126,0,126,0,2043.773099203,2043.773099203,2043.773099203,2043.773099203,2043.773099203,2043.773099203,2043.773099203,1,-1,azul,1,['N_B'],2045.3247461550002,2045.3247461550002,2045.3247461550002,2045.3247461550002,2047.3606092829998,2047.3606092829998,2047.3606092829998,2047.3606092829998,2047.3606092829998,2047.3606092829998,2047.3606092829998,2047.3606092829998,2049.395427566,2049.395427566,2049.395427566,2049.395427566,,,,,,,,,,,,,,,,,,,,,,,,,,,,,,,,,,,,,,,06,005,2022-09-23_10h28.54.009,test2,2022.2.4,59.93341337840656,
0,0,0,0,127,0,127,0,2049.395427566,2049.395427566,2049.395427566,2049.395427566,2049.395427566,2049.395427566,2049.395427566,1,-1,azul,0,['N_A'],2051.0810638189996,2051.0810638189996,2051.0810638189996,2051.0810638189996,2053.116965716,2053.116965716,2053.116965716,2053.116965716,2053.116965716,2053.116965716,2053.116965716,2053.116965716,2055.1514974109996,2055.1514974109996,2055.1514974109996,2055.1514974109996,,,,,,,,,,,,,,,,,,,,,,,,,,,,,,,,,,,,,,,06,005,2022-09-23_10h28.54.009,test2,2022.2.4,59.93341337840656,
0,0,0,0,128,0,128,0,2055.1514974109996,2055.1514974109996,2055.1514974109996,2055.1514974109996,2055.1514974109996,2055.1514974109996,2055.1514974109996,-1,1,azul,1,['N_A'],2056.7870686180004,2056.7870686180004,2056.7870686180004,2056.7870686180004,2058.822956885,2058.822956885,2058.822956885,2058.822956885,2058.822956885,2058.822956885,2058.822956885,2058.822956885,2060.858404103,2060.858404103,2060.858404103,2060.858404103,,,,,,,,,,,,,,,,,,,,,,,,,,,,,,,,,,,,,,,06,005,2022-09-23_10h28.54.009,test2,2022.2.4,59.93341337840656,
0,0,0,0,129,0,129,0,2060.858404103,2060.858404103,2060.858404103,2060.858404103,2060.858404103,2060.858404103,2060.858404103,1,-1,rojo,1,['N_A'],2062.610587438,2062.610587438,2062.610587438,2062.610587438,2064.646040238,2064.646040238,2064.646040238,2064.646040238,2064.646040238,2064.646040238,2064.646040238,2064.646040238,2066.6803864410003,2066.6803864410003,2066.6803864410003,2066.6803864410003,,,,,,,,,,,,,,,,,,,,,,,,,,,,,,,,,,,,,,,06,005,2022-09-23_10h28.54.009,test2,2022.2.4,59.93341337840656,
0,0,0,0,130,0,130,0,2066.6803864410003,2066.6803864410003,2066.6803864410003,2066.6803864410003,2066.6803864410003,2066.6803864410003,2066.6803864410003,1,-1,rojo,0,['N_B'],2068.149629613,2068.149629613,2068.149629613,2068.149629613,2070.185865249,2070.185865249,2070.185865249,2070.185865249,2070.185865249,2070.185865249,2070.185865249,2070.185865249,2072.220804881,2072.220804881,2072.220804881,2072.220804881,,,,,,,,,,,,,,,,,,,,,,,,,,,,,,,,,,,,,,,06,005,2022-09-23_10h28.54.009,test2,2022.2.4,59.93341337840656,
0,0,0,0,131,0,131,0,2072.220804881,2072.220804881,2072.220804881,2072.220804881,2072.220804881,2072.220804881,2072.220804881,1,-1,azul,1,['N_B'],2073.605912645,2073.605912645,2073.605912645,2073.605912645,2075.6419999600002,2075.6419999600002,2075.6419999600002,2075.6419999600002,2075.6419999600002,2075.6419999600002,2075.6419999600002,2075.6419999600002,2077.67747055,2077.67747055,2077.67747055,2077.67747055,,,,,,,,,,,,,,,,,,,,,,,,,,,,,,,,,,,,,,,06,005,2022-09-23_10h28.54.009,test2,2022.2.4,59.93341337840656,
0,0,0,0,132,0,132,0,2077.67747055,2077.67747055,2077.67747055,2077.67747055,2077.67747055,2077.67747055,2077.67747055,1,-1,azul,0,['N_A'],2079.228834847,2079.228834847,2079.228834847,2079.228834847,2081.264249164,2081.264249164,2081.264249164,2081.264249164,2081.264249164,2081.264249164,2081.264249164,2081.264249164,2083.299829474,2083.299829474,2083.299829474,2083.299829474,,,,,,,,,,,,,,,,,,,,,,,,,,,,,,,,,,,,,,,06,005,2022-09-23_10h28.54.009,test2,2022.2.4,59.93341337840656,
0,0,0,0,133,0,133,0,2083.299829474,2083.299829474,2083.299829474,2083.299829474,2083.299829474,2083.299829474,2083.299829474,1,1,rojo,1,['N_A'],2085.08458119,2085.08458119,2085.08458119,2085.08458119,2087.103999332,2087.103999332,2087.103999332,2087.103999332,2087.103999332,2087.103999332,2087.103999332,2087.103999332,2089.139734206,2089.139734206,2089.139734206,2089.139734206,,,,,,,,,,,,,,,,,,,,,,,,,,,,,,,,,,,,,,,06,005,2022-09-23_10h28.54.009,test2,2022.2.4,59.93341337840656,
0,0,0,0,134,0,134,0,2089.139734206,2089.139734206,2089.139734206,2089.139734206,2089.139734206,2089.139734206,2089.139734206,-1,1,azul,0,['N_B'],2090.8907548200004,2090.8907548200004,2090.8907548200004,2090.8907548200004,2092.9099930230004,2092.9099930230004,2092.9099930230004,2092.9099930230004,2092.9099930230004,2092.9099930230004,2092.9099930230004,2092.9099930230004,2094.946222193,2094.946222193,2094.946222193,2094.946222193,,,,,,,,,,,,,,,,,,,,,,,,,,,,,,,,,,,,,,,06,005,2022-09-23_10h28.54.009,test2,2022.2.4,59.93341337840656,
0,0,0,0,135,0,135,0,2094.946222193,2094.946222193,2094.946222193,2094.946222193,2094.946222193,2094.946222193,2094.946222193,-1,1,rojo,1,['N_B'],2097.0978512210004,2097.0978512210004,2097.0978512210004,2097.0978512210004,2099.1341582920004,2099.1341582920004,2099.1341582920004,2099.1341582920004,2099.1341582920004,2099.1341582920004,2099.1341582920004,2099.1341582920004,2101.1689031429996,2101.1689031429996,2101.1689031429996,2101.1689031429996,,,,,,,,,,,,,,,,,,,,,,,,,,,,,,,,,,,,,,,06,005,2022-09-23_10h28.54.009,test2,2022.2.4,59.93341337840656,
0,0,0,0,136,0,136,0,2101.1689031429996,2101.1689031429996,2101.1689031429996,2101.1689031429996,2101.1689031429996,2101.1689031429996,2101.1689031429996,1,-1,azul,1,['N_B'],2103.0221473929996,2103.0221473929996,2103.0221473929996,2103.0221473929996,2105.0576951659996,2105.0576951659996,2105.0576951659996,2105.0576951659996,2105.0576951659996,2105.0576951659996,2105.0576951659996,2105.0576951659996,2107.093322871,2107.093322871,2107.093322871,2107.093322871,,,,,,,,,,,,,,,,,,,,,,,,,,,,,,,,,,,,,,,06,005,2022-09-23_10h28.54.009,test2,2022.2.4,59.93341337840656,
0,0,0,0,137,0,137,0,2107.093322871,2107.093322871,2107.093322871,2107.093322871,2107.093322871,2107.093322871,2107.093322871,1,-1,azul,0,['N_A'],2108.5446040449997,2108.5446040449997,2108.5446040449997,2108.5446040449997,2110.5799957560002,2110.5799957560002,2110.5799957560002,2110.5799957560002,2110.5799957560002,2110.5799957560002,2110.5799957560002,2110.5799957560002,2112.614995256,2112.614995256,2112.614995256,2112.614995256,,,,,,,,,,,,,,,,,,,,,,,,,,,,,,,,,,,,,,,06,005,2022-09-23_10h28.54.009,test2,2022.2.4,59.93341337840656,
0,0,0,0,138,0,138,0,2112.614995256,2112.614995256,2112.614995256,2112.614995256,2112.614995256,2112.614995256,2112.614995256,-1,-1,azul,0,['N_B'],2114.067376018,2114.067376018,2114.067376018,2114.067376018,2116.103077236,2116.103077236,2116.103077236,2116.103077236,2116.103077236,2116.103077236,2116.103077236,2116.103077236,2118.138353552,2118.138353552,2118.138353552,2118.138353552,,,,,,,,,,,,,,,,,,,,,,,,,,,,,,,,,,,,,,,06,005,2022-09-23_10h28.54.009,test2,2022.2.4,59.93341337840656,
0,0,0,0,139,0,139,0,2118.138353552,2118.138353552,2118.138353552,2118.138353552,2118.138353552,2118.138353552,2118.138353552,1,1,azul,0,['N_A'],2119.9573574200003,2119.9573574200003,2119.9573574200003,2119.9573574200003,2121.9922704009996,2121.9922704009996,2121.9922704009996,2121.9922704009996,2121.9922704009996,2121.9922704009996,2121.9922704009996,2121.9922704009996,2124.028098701,2124.028098701,2124.028098701,2124.028098701,,,,,,,,,,,,,,,,,,,,,,,,,,,,,,,,,,,,,,,06,005,2022-09-23_10h28.54.009,test2,2022.2.4,59.93341337840656,
0,0,0,0,140,0,140,0,2124.028098701,2124.028098701,2124.028098701,2124.028098701,2124.028098701,2124.028098701,2124.028098701,-1,-1,azul,1,['N_A'],2125.57977252,2125.57977252,2125.57977252,2125.57977252,2127.6157936,2127.6157936,2127.6157936,2127.6157936,2127.6157936,2127.6157936,2127.6157936,2127.6157936,2129.6516461399997,2129.6516461399997,2129.6516461399997,2129.6516461399997,,,,,,,,,,,,,,,,,,,,,,,,,,,,,,,,,,,,,,,06,005,2022-09-23_10h28.54.009,test2,2022.2.4,59.93341337840656,
0,0,0,0,141,0,141,0,2129.6516461399997,2129.6516461399997,2129.6516461399997,2129.6516461399997,2129.6516461399997,2129.6516461399997,2129.6516461399997,1,1,rojo,1,['N_A'],2131.0361523129995,2131.0361523129995,2131.0361523129995,2131.0361523129995,2133.0534400590004,2133.0534400590004,2133.0534400590004,2133.0534400590004,2133.0534400590004,2133.0534400590004,2133.0534400590004,2133.0534400590004,2135.09020556,2135.09020556,2135.09020556,2135.09020556,,,,,,,,,,,,,,,,,,,,,,,,,,,,,,,,,,,,,,,06,005,2022-09-23_10h28.54.009,test2,2022.2.4,59.93341337840656,
0,0,0,0,142,0,142,0,2135.09020556,2135.09020556,2135.09020556,2135.09020556,2135.09020556,2135.09020556,2135.09020556,1,1,rojo,0,['N_B'],2136.7752350009996,2136.7752350009996,2136.7752350009996,2136.7752350009996,2138.8117506500002,2138.8117506500002,2138.8117506500002,2138.8117506500002,2138.8117506500002,2138.8117506500002,2138.8117506500002,2138.8117506500002,2140.846109665,2140.846109665,2140.846109665,2140.846109665,,,,,,,,,,,,,,,,,,,,,,,,,,,,,,,,,,,,,,,06,005,2022-09-23_10h28.54.009,test2,2022.2.4,59.93341337840656,
0,0,0,0,143,0,143,0,2140.846109665,2140.846109665,2140.846109665,2140.846109665,2140.846109665,2140.846109665,2140.846109665,1,-1,azul,1,['N_B'],2142.3981989759995,2142.3981989759995,2142.3981989759995,2142.3981989759995,2144.4335343000002,2144.4335343000002,2144.4335343000002,2144.4335343000002,2144.4335343000002,2144.4335343000002,2144.4335343000002,2144.4335343000002,2146.468755084,2146.468755084,2146.468755084,2146.468755084,,,,,,,,,,,,,,,,,,,,,,,,,,,,,,,,,,,,,,,06,005,2022-09-23_10h28.54.009,test2,2022.2.4,59.93341337840656,
0,0,0,0,144,0,144,0,2146.468755084,2146.468755084,2146.468755084,2146.468755084,2146.468755084,2146.468755084,2146.468755084,1,-1,azul,1,['N_B'],2147.85399235,2147.85399235,2147.85399235,2147.85399235,2149.8906401169997,2149.8906401169997,2149.8906401169997,2149.8906401169997,2149.8906401169997,2149.8906401169997,2149.8906401169997,2149.8906401169997,2151.9258826470004,2151.9258826470004,2151.9258826470004,2151.9258826470004,,,,,,,,,,,,,,,,,,,,,,,,,,,,,,,,,,,,,,,06,005,2022-09-23_10h28.54.009,test2,2022.2.4,59.93341337840656,
0,0,0,0,145,0,145,0,2151.9258826470004,2151.9258826470004,2151.9258826470004,2151.9258826470004,2151.9258826470004,2151.9258826470004,2151.9258826470004,1,-1,azul,0,['N_A'],2154.02699751,2154.02699751,2154.02699751,2154.02699751,2156.0631786430004,2156.0631786430004,2156.0631786430004,2156.0631786430004,2156.0631786430004,2156.0631786430004,2156.0631786430004,2156.0631786430004,2158.09875466,2158.09875466,2158.09875466,2158.09875466,,,,,,,,,,,,,,,,,,,,,,,,,,,,,,,,,,,,,,,06,005,2022-09-23_10h28.54.009,test2,2022.2.4,59.93341337840656,
0,0,0,0,146,0,146,0,2158.09875466,2158.09875466,2158.09875466,2158.09875466,2158.09875466,2158.09875466,2158.09875466,1,1,rojo,1,['N_A'],2159.9179142619996,2159.9179142619996,2159.9179142619996,2159.9179142619996,2161.9350580950004,2161.9350580950004,2161.9350580950004,2161.9350580950004,2161.9350580950004,2161.9350580950004,2161.9350580950004,2161.9350580950004,2163.9728554539997,2163.9728554539997,2163.9728554539997,2163.9728554539997,,,,,,,,,,,,,,,,,,,,,,,,,,,,,,,,,,,,,,,06,005,2022-09-23_10h28.54.009,test2,2022.2.4,59.93341337840656,
0,0,0,0,147,0,147,0,2163.9728554539997,2163.9728554539997,2163.9728554539997,2163.9728554539997,2163.9728554539997,2163.9728554539997,2163.9728554539997,1,1,rojo,0,['N_B'],2168.694034381,2168.694034381,2168.694034381,2168.694034381,2170.7293268519998,2170.7293268519998,2170.7293268519998,2170.7293268519998,2170.7293268519998,2170.7293268519998,2170.7293268519998,2170.7293268519998,2172.764567157,2172.764567157,2172.764567157,2172.764567157,,,,,,,,,,,,,,,,,,,,,,,,,,,,,,,,,,,,,,,06,005,2022-09-23_10h28.54.009,test2,2022.2.4,59.93341337840656,
0,0,0,0,148,0,148,0,2172.764567157,2172.764567157,2172.764567157,2172.764567157,2172.764567157,2172.764567157,2172.764567157,-1,-1,rojo,0,['N_A'],2175.234978265,2175.234978265,2175.234978265,2175.234978265,2177.2698334180004,2177.2698334180004,2177.2698334180004,2177.2698334180004,2177.2698334180004,2177.2698334180004,2177.2698334180004,2177.2698334180004,2179.306041365,2179.306041365,2179.306041365,2179.306041365,,,,,,,,,,,,,,,,,,,,,,,,,,,,,,,,,,,,,,,06,005,2022-09-23_10h28.54.009,test2,2022.2.4,59.93341337840656,
0,0,0,0,149,0,149,0,2179.306041365,2179.306041365,2179.306041365,2179.306041365,2179.306041365,2179.306041365,2179.306041365,1,-1,rojo,1,['N_A'],2181.1239191000004,2181.1239191000004,2181.1239191000004,2181.1239191000004,2183.1603262910003,2183.1603262910003,2183.1603262910003,2183.1603262910003,2183.1603262910003,2183.1603262910003,2183.1603262910003,2183.1603262910003,2185.1958978029998,2185.1958978029998,2185.1958978029998,2185.1958978029998,,,,,,,,,,,,,,,,,,,,,,,,,,,,,,,,,,,,,,,06,005,2022-09-23_10h28.54.009,test2,2022.2.4,59.93341337840656,
0,0,0,0,150,0,150,0,2185.1958978029998,2185.1958978029998,2185.1958978029998,2185.1958978029998,2185.1958978029998,2185.1958978029998,2185.1958978029998,-1,-1,azul,0,['N_B'],2186.646576794,2186.646576794,2186.646576794,2186.646576794,2188.683069678,2188.683069678,2188.683069678,2188.683069678,2188.683069678,2188.683069678,2188.683069678,2188.683069678,2190.7180630479997,2190.7180630479997,2190.7180630479997,2190.7180630479997,,,,,,,,,,,,,,,,,,,,,,,,,,,,,,,,,,,,,,,06,005,2022-09-23_10h28.54.009,test2,2022.2.4,59.93341337840656,
0,0,0,0,151,0,151,0,2190.7180630479997,2190.7180630479997,2190.7180630479997,2190.7180630479997,2190.7180630479997,2190.7180630479997,2190.7180630479997,1,1,azul,1,['N_B'],2193.554698854,2193.554698854,2193.554698854,2193.554698854,2195.5906784979998,2195.5906784979998,2195.5906784979998,2195.5906784979998,2195.5906784979998,2195.5906784979998,2195.5906784979998,2195.5906784979998,2197.6256608679996,2197.6256608679996,2197.6256608679996,2197.6256608679996,,,,,,,,,,,,,,,,,,,,,,,,,,,,,,,,,,,,,,,06,005,2022-09-23_10h28.54.009,test2,2022.2.4,59.93341337840656,
0,0,0,0,152,0,152,0,2197.6256608679996,2197.6256608679996,2197.6256608679996,2197.6256608679996,2197.6256608679996,2197.6256608679996,2197.6256608679996,1,-1,azul,0,['N_A'],2199.293641518,2199.293641518,2199.293641518,2199.293641518,2201.3302343650003,2201.3302343650003,2201.3302343650003,2201.3302343650003,2201.3302343650003,2201.3302343650003,2201.3302343650003,2201.3302343650003,2203.3657469199998,2203.3657469199998,2203.3657469199998,2203.3657469199998,,,,,,,,,,,,,,,,,,,,,,,,,,,,,,,,,,,,,,,06,005,2022-09-23_10h28.54.009,test2,2022.2.4,59.93341337840656,
0,0,0,0,153,0,153,0,2203.3657469199998,2203.3657469199998,2203.3657469199998,2203.3657469199998,2203.3657469199998,2203.3657469199998,2203.3657469199998,1,1,rojo,1,['N_A'],2205.8514713100003,2205.8514713100003,2205.8514713100003,2205.8514713100003,2207.8702816200002,2207.8702816200002,2207.8702816200002,2207.8702816200002,2207.8702816200002,2207.8702816200002,2207.8702816200002,2207.8702816200002,2209.9050994870004,2209.9050994870004,2209.9050994870004,2209.9050994870004,,,,,,,,,,,,,,,,,,,,,,,,,,,,,,,,,,,,,,,06,005,2022-09-23_10h28.54.009,test2,2022.2.4,59.93341337840656,
0,0,0,0,154,0,154,0,2209.9050994870004,2209.9050994870004,2209.9050994870004,2209.9050994870004,2209.9050994870004,2209.9050994870004,2209.9050994870004,-1,1,azul,0,['N_B'],2211.5576708689996,2211.5576708689996,2211.5576708689996,2211.5576708689996,2213.593843617,2213.593843617,2213.593843617,2213.593843617,2213.593843617,2213.593843617,2213.593843617,2213.593843617,2215.629385231,2215.629385231,2215.629385231,2215.629385231,,,,,,,,,,,,,,,,,,,,,,,,,,,,,,,,,,,,,,,06,005,2022-09-23_10h28.54.009,test2,2022.2.4,59.93341337840656,
0,0,0,0,155,0,155,0,2215.629385231,2215.629385231,2215.629385231,2215.629385231,2215.629385231,2215.629385231,2215.629385231,1,-1,azul,1,['N_B'],2217.1971019410003,2217.1971019410003,2217.1971019410003,2217.1971019410003,2219.2332055260003,2219.2332055260003,2219.2332055260003,2219.2332055260003,2219.2332055260003,2219.2332055260003,2219.2332055260003,2219.2332055260003,2221.2691340210004,2221.2691340210004,2221.2691340210004,2221.2691340210004,,,,,,,,,,,,,,,,,,,,,,,,,,,,,,,,,,,,,,,06,005,2022-09-23_10h28.54.009,test2,2022.2.4,59.93341337840656,
0,0,0,0,156,0,156,0,2221.2691340210004,2221.2691340210004,2221.2691340210004,2221.2691340210004,2221.2691340210004,2221.2691340210004,2221.2691340210004,1,1,azul,0,['N_A'],2222.7203554119997,2222.7203554119997,2222.7203554119997,2222.7203554119997,2224.7396598510004,2224.7396598510004,2224.7396598510004,2224.7396598510004,2224.7396598510004,2224.7396598510004,2224.7396598510004,2224.7396598510004,2226.7752626869997,2226.7752626869997,2226.7752626869997,2226.7752626869997,,,,,,,,,,,,,,,,,,,,,,,,,,,,,,,,,,,,,,,06,005,2022-09-23_10h28.54.009,test2,2022.2.4,59.93341337840656,
0,0,0,0,157,0,157,0,2226.7752626869997,2226.7752626869997,2226.7752626869997,2226.7752626869997,2226.7752626869997,2226.7752626869997,2226.7752626869997,1,1,rojo,1,['N_A'],2228.5432828390003,2228.5432828390003,2228.5432828390003,2228.5432828390003,2230.561292491,2230.561292491,2230.561292491,2230.561292491,2230.561292491,2230.561292491,2230.561292491,2230.561292491,2232.5980598160004,2232.5980598160004,2232.5980598160004,2232.5980598160004,,,,,,,,,,,,,,,,,,,,,,,,,,,,,,,,,,,,,,,06,005,2022-09-23_10h28.54.009,test2,2022.2.4,59.93341337840656,
0,0,0,0,158,0,158,0,2232.5980598160004,2232.5980598160004,2232.5980598160004,2232.5980598160004,2232.5980598160004,2232.5980598160004,2232.5980598160004,1,1,rojo,1,['N_A'],2234.0325439340004,2234.0325439340004,2234.0325439340004,2234.0325439340004,2236.050456649,2236.050456649,2236.050456649,2236.050456649,2236.050456649,2236.050456649,2236.050456649,2236.050456649,2238.087475137,2238.087475137,2238.087475137,2238.087475137,,,,,,,,,,,,,,,,,,,,,,,,,,,,,,,,,,,,,,,06,005,2022-09-23_10h28.54.009,test2,2022.2.4,59.93341337840656,
0,0,0,0,159,0,159,0,2238.087475137,2238.087475137,2238.087475137,2238.087475137,2238.087475137,2238.087475137,2238.087475137,1,1,rojo,0,['N_B'],2239.5048054569997,2239.5048054569997,2239.5048054569997,2239.5048054569997,2241.524087203,2241.524087203,2241.524087203,2241.524087203,2241.524087203,2241.524087203,2241.524087203,2241.524087203,2243.560043257,2243.560043257,2243.560043257,2243.560043257,,,,,,,,,,,,,,,,,,,,,,,,,,,,,,,,,,,,,,,06,005,2022-09-23_10h28.54.009,test2,2022.2.4,59.93341337840656,
0,0,0,0,160,0,160,0,2243.560043257,2243.560043257,2243.560043257,2243.560043257,2243.560043257,2243.560043257,2243.560043257,-1,1,rojo,0,['N_A'],2245.312236652,2245.312236652,2245.312236652,2245.312236652,2247.3314789160004,2247.3314789160004,2247.3314789160004,2247.3314789160004,2247.3314789160004,2247.3314789160004,2247.3314789160004,2247.3314789160004,2249.366135814,2249.366135814,2249.366135814,2249.366135814,,,,,,,,,,,,,,,,,,,,,,,,,,,,,,,,,,,,,,,06,005,2022-09-23_10h28.54.009,test2,2022.2.4,59.93341337840656,
0,0,0,0,161,0,161,0,2249.366135814,2249.366135814,2249.366135814,2249.366135814,2249.366135814,2249.366135814,2249.366135814,1,1,rojo,1,['N_A'],2250.800722447,2250.800722447,2250.800722447,2250.800722447,2252.820035117,2252.820035117,2252.820035117,2252.820035117,2252.820035117,2252.820035117,2252.820035117,2252.820035117,2254.856201732,2254.856201732,2254.856201732,2254.856201732,,,,,,,,,,,,,,,,,,,,,,,,,,,,,,,,,,,,,,,06,005,2022-09-23_10h28.54.009,test2,2022.2.4,59.93341337840656,
0,0,0,0,162,0,162,0,2254.856201732,2254.856201732,2254.856201732,2254.856201732,2254.856201732,2254.856201732,2254.856201732,-1,1,azul,0,['N_B'],2256.3407347310003,2256.3407347310003,2256.3407347310003,2256.3407347310003,2258.3765958120002,2258.3765958120002,2258.3765958120002,2258.3765958120002,2258.3765958120002,2258.3765958120002,2258.3765958120002,2258.3765958120002,2260.4115176879995,2260.4115176879995,2260.4115176879995,2260.4115176879995,,,,,,,,,,,,,,,,,,,,,,,,,,,,,,,,,,,,,,,06,005,2022-09-23_10h28.54.009,test2,2022.2.4,59.93341337840656,
0,0,0,0,163,0,163,0,2260.4115176879995,2260.4115176879995,2260.4115176879995,2260.4115176879995,2260.4115176879995,2260.4115176879995,2260.4115176879995,1,-1,azul,1,['N_B'],2261.8628019959997,2261.8628019959997,2261.8628019959997,2261.8628019959997,2263.899468355,2263.899468355,2263.899468355,2263.899468355,2263.899468355,2263.899468355,2263.899468355,2263.899468355,2265.9344235340004,2265.9344235340004,2265.9344235340004,2265.9344235340004,,,,,,,,,,,,,,,,,,,,,,,,,,,,,,,,,,,,,,,06,005,2022-09-23_10h28.54.009,test2,2022.2.4,59.93341337840656,
0,0,0,0,164,0,164,0,2265.9344235340004,2265.9344235340004,2265.9344235340004,2265.9344235340004,2265.9344235340004,2265.9344235340004,2265.9344235340004,1,1,azul,0,['N_A'],2267.653296806,2267.653296806,2267.653296806,2267.653296806,2269.67099737,2269.67099737,2269.67099737,2269.67099737,2269.67099737,2269.67099737,2269.67099737,2269.67099737,2271.7073883929997,2271.7073883929997,2271.7073883929997,2271.7073883929997,,,,,,,,,,,,,,,,,,,,,,,,,,,,,,,,,,,,,,,06,005,2022-09-23_10h28.54.009,test2,2022.2.4,59.93341337840656,
0,0,0,0,165,0,165,0,2271.7073883929997,2271.7073883929997,2271.7073883929997,2271.7073883929997,2271.7073883929997,2271.7073883929997,2271.7073883929997,1,1,rojo,1,['N_A'],2274.0431864640004,2274.0431864640004,2274.0431864640004,2274.0431864640004,2276.0795489270004,2276.0795489270004,2276.0795489270004,2276.0795489270004,2276.0795489270004,2276.0795489270004,2276.0795489270004,2276.0795489270004,2278.1146832060003,2278.1146832060003,2278.1146832060003,2278.1146832060003,,,,,,,,,,,,,,,,,,,,,,,,,,,,,,,,,,,,,,,06,005,2022-09-23_10h28.54.009,test2,2022.2.4,59.93341337840656,
0,0,0,0,166,0,166,0,2278.1146832060003,2278.1146832060003,2278.1146832060003,2278.1146832060003,2278.1146832060003,2278.1146832060003,2278.1146832060003,-1,-1,azul,0,['N_B'],2279.46666489,2279.46666489,2279.46666489,2279.46666489,2281.5018772209996,2281.5018772209996,2281.5018772209996,2281.5018772209996,2281.5018772209996,2281.5018772209996,2281.5018772209996,2281.5018772209996,2283.5368796780003,2283.5368796780003,2283.5368796780003,2283.5368796780003,,,,,,,,,,,,,,,,,,,,,,,,,,,,,,,,,,,,,,,06,005,2022-09-23_10h28.54.009,test2,2022.2.4,59.93341337840656,
0,0,0,0,167,0,167,0,2283.5368796780003,2283.5368796780003,2283.5368796780003,2283.5368796780003,2283.5368796780003,2283.5368796780003,2283.5368796780003,-1,1,rojo,0,['N_A'],2285.189243207,2285.189243207,2285.189243207,2285.189243207,2287.2068504589997,2287.2068504589997,2287.2068504589997,2287.2068504589997,2287.2068504589997,2287.2068504589997,2287.2068504589997,2287.2068504589997,2289.243501189,2289.243501189,2289.243501189,2289.243501189,,,,,,,,,,,,,,,,,,,,,,,,,,,,,,,,,,,,,,,06,005,2022-09-23_10h28.54.009,test2,2022.2.4,59.93341337840656,
0,0,0,0,168,0,168,0,2289.243501189,2289.243501189,2289.243501189,2289.243501189,2289.243501189,2289.243501189,2289.243501189,-1,1,azul,1,['N_A'],2290.8952681789997,2290.8952681789997,2290.8952681789997,2290.8952681789997,2292.9314480089997,2292.9314480089997,2292.9314480089997,2292.9314480089997,2292.9314480089997,2292.9314480089997,2292.9314480089997,2292.9314480089997,2294.967317113,2294.967317113,2294.967317113,2294.967317113,,,,,,,,,,,,,,,,,,,,,,,,,,,,,,,,,,,,,,,06,005,2022-09-23_10h28.54.009,test2,2022.2.4,59.93341337840656,
0,0,0,0,169,0,169,0,2294.967317113,2294.967317113,2294.967317113,2294.967317113,2294.967317113,2294.967317113,2294.967317113,1,-1,rojo,0,['N_B'],2296.551224586,2296.551224586,2296.551224586,2296.551224586,2298.5875950990003,2298.5875950990003,2298.5875950990003,2298.5875950990003,2298.5875950990003,2298.5875950990003,2298.5875950990003,2298.5875950990003,2300.622486567,2300.622486567,2300.622486567,2300.622486567,,,,,,,,,,,,,,,,,,,,,,,,,,,,,,,,,,,,,,,06,005,2022-09-23_10h28.54.009,test2,2022.2.4,59.93341337840656,
0,0,0,0,170,0,170,0,2300.622486567,2300.622486567,2300.622486567,2300.622486567,2300.622486567,2300.622486567,2300.622486567,1,-1,azul,1,['N_B'],2302.0411303479996,2302.0411303479996,2302.0411303479996,2302.0411303479996,2304.0765265170003,2304.0765265170003,2304.0765265170003,2304.0765265170003,2304.0765265170003,2304.0765265170003,2304.0765265170003,2304.0765265170003,2306.112973104,2306.112973104,2306.112973104,2306.112973104,,,,,,,,,,,,,,,,,,,,,,,,,,,,,,,,,,,,,,,06,005,2022-09-23_10h28.54.009,test2,2022.2.4,59.93341337840656,
0,0,0,0,171,0,171,0,2306.112973104,2306.112973104,2306.112973104,2306.112973104,2306.112973104,2306.112973104,2306.112973104,1,-1,azul,1,['N_B'],2308.031339964,2308.031339964,2308.031339964,2308.031339964,2310.066258172,2310.066258172,2310.066258172,2310.066258172,2310.066258172,2310.066258172,2310.066258172,2310.066258172,2312.1020835159998,2312.1020835159998,2312.1020835159998,2312.1020835159998,,,,,,,,,,,,,,,,,,,,,,,,,,,,,,,,,,,,,,,06,005,2022-09-23_10h28.54.009,test2,2022.2.4,59.93341337840656,
0,0,0,0,172,0,172,0,2312.1020835159998,2312.1020835159998,2312.1020835159998,2312.1020835159998,2312.1020835159998,2312.1020835159998,2312.1020835159998,1,1,azul,0,['N_A'],2313.670523875,2313.670523875,2313.670523875,2313.670523875,2315.689567003,2315.689567003,2315.689567003,2315.689567003,2315.689567003,2315.689567003,2315.689567003,2315.689567003,2317.7247469759996,2317.7247469759996,2317.7247469759996,2317.7247469759996,,,,,,,,,,,,,,,,,,,,,,,,,,,,,,,,,,,,,,,06,005,2022-09-23_10h28.54.009,test2,2022.2.4,59.93341337840656,
0,0,0,0,173,0,173,0,2317.7247469759996,2317.7247469759996,2317.7247469759996,2317.7247469759996,2317.7247469759996,2317.7247469759996,2317.7247469759996,1,1,rojo,1,['N_A'],2319.510043362,2319.510043362,2319.510043362,2319.510043362,2321.5280708500004,2321.5280708500004,2321.5280708500004,2321.5280708500004,2321.5280708500004,2321.5280708500004,2321.5280708500004,2321.5280708500004,2323.5644651109997,2323.5644651109997,2323.5644651109997,2323.5644651109997,,,,,,,,,,,,,,,,,,,,,,,,,,,,,,,,,,,,,,,06,005,2022-09-23_10h28.54.009,test2,2022.2.4,59.93341337840656,
0,0,0,0,174,0,174,0,2323.5644651109997,2323.5644651109997,2323.5644651109997,2323.5644651109997,2323.5644651109997,2323.5644651109997,2323.5644651109997,1,1,rojo,1,['N_A'],2325.1998185949997,2325.1998185949997,2325.1998185949997,2325.1998185949997,2327.236011301,2327.236011301,2327.236011301,2327.236011301,2327.236011301,2327.236011301,2327.236011301,2327.236011301,2329.271418046,2329.271418046,2329.271418046,2329.271418046,,,,,,,,,,,,,,,,,,,,,,,,,,,,,,,,,,,,,,,06,005,2022-09-23_10h28.54.009,test2,2022.2.4,59.93341337840656,
0,0,0,0,175,0,175,0,2329.271418046,2329.271418046,2329.271418046,2329.271418046,2329.271418046,2329.271418046,2329.271418046,-1,-1,azul,1,['N_A'],2330.873137283,2330.873137283,2330.873137283,2330.873137283,2332.909130293,2332.909130293,2332.909130293,2332.909130293,2332.909130293,2332.909130293,2332.909130293,2332.909130293,2334.9440499849998,2334.9440499849998,2334.9440499849998,2334.9440499849998,,,,,,,,,,,,,,,,,,,,,,,,,,,,,,,,,,,,,,,06,005,2022-09-23_10h28.54.009,test2,2022.2.4,59.93341337840656,
0,0,0,0,176,0,176,0,2334.9440499849998,2334.9440499849998,2334.9440499849998,2334.9440499849998,2334.9440499849998,2334.9440499849998,2334.9440499849998,1,1,rojo,1,['N_A'],2336.512600909,2336.512600909,2336.512600909,2336.512600909,2338.5315332460004,2338.5315332460004,2338.5315332460004,2338.5315332460004,2338.5315332460004,2338.5315332460004,2338.5315332460004,2338.5315332460004,2340.5672792140003,2340.5672792140003,2340.5672792140003,2340.5672792140003,,,,,,,,,,,,,,,,,,,,,,,,,,,,,,,,,,,,,,,06,005,2022-09-23_10h28.54.009,test2,2022.2.4,59.93341337840656,
0,0,0,0,177,0,177,0,2340.5672792140003,2340.5672792140003,2340.5672792140003,2340.5672792140003,2340.5672792140003,2340.5672792140003,2340.5672792140003,-1,1,azul,0,['N_B'],2342.2858358080002,2342.2858358080002,2342.2858358080002,2342.2858358080002,2344.3210321710003,2344.3210321710003,2344.3210321710003,2344.3210321710003,2344.3210321710003,2344.3210321710003,2344.3210321710003,2344.3210321710003,2346.357058885,2346.357058885,2346.357058885,2346.357058885,,,,,,,,,,,,,,,,,,,,,,,,,,,,,,,,,,,,,,,06,005,2022-09-23_10h28.54.009,test2,2022.2.4,59.93341337840656,
0,0,0,0,178,0,178,0,2346.357058885,2346.357058885,2346.357058885,2346.357058885,2346.357058885,2346.357058885,2346.357058885,1,-1,azul,1,['N_B'],2349.5598598059996,2349.5598598059996,2349.5598598059996,2349.5598598059996,2351.5958313439996,2351.5958313439996,2351.5958313439996,2351.5958313439996,2351.5958313439996,2351.5958313439996,2351.5958313439996,2351.5958313439996,2353.6317268479997,2353.6317268479997,2353.6317268479997,2353.6317268479997,,,,,,,,,,,,,,,,,,,,,,,,,,,,,,,,,,,,,,,06,005,2022-09-23_10h28.54.009,test2,2022.2.4,59.93341337840656,
0,0,0,0,179,0,179,0,2353.6317268479997,2353.6317268479997,2353.6317268479997,2353.6317268479997,2353.6317268479997,2353.6317268479997,2353.6317268479997,-1,1,rojo,0,['N_A'],2355.7499724150002,2355.7499724150002,2355.7499724150002,2355.7499724150002,2357.7862239099995,2357.7862239099995,2357.7862239099995,2357.7862239099995,2357.7862239099995,2357.7862239099995,2357.7862239099995,2357.7862239099995,2359.8216161339997,2359.8216161339997,2359.8216161339997,2359.8216161339997,,,,,,,,,,,,,,,,,,,,,,,,,,,,,,,,,,,,,,,06,005,2022-09-23_10h28.54.009,test2,2022.2.4,59.93341337840656,
0,0,0,0,180,0,180,0,2359.8216161339997,2359.8216161339997,2359.8216161339997,2359.8216161339997,2359.8216161339997,2359.8216161339997,2359.8216161339997,-1,-1,azul,1,['N_A'],2361.290085681,2361.290085681,2361.290085681,2361.290085681,2363.3254601749995,2363.3254601749995,2363.3254601749995,2363.3254601749995,2363.3254601749995,2363.3254601749995,2363.3254601749995,2363.3254601749995,2365.3613305110002,2365.3613305110002,2365.3613305110002,2365.3613305110002,,,,,,,,,,,,,,,,,,,,,,,,,,,,,,,,,,,,,,,06,005,2022-09-23_10h28.54.009,test2,2022.2.4,59.93341337840656,
0,0,0,0,181,0,181,0,2365.3613305110002,2365.3613305110002,2365.3613305110002,2365.3613305110002,2365.3613305110002,2365.3613305110002,2365.3613305110002,1,1,rojo,1,['N_A'],2366.8960204759996,2366.8960204759996,2366.8960204759996,2366.8960204759996,2368.913634511,2368.913634511,2368.913634511,2368.913634511,2368.913634511,2368.913634511,2368.913634511,2368.913634511,2370.950338269,2370.950338269,2370.950338269,2370.950338269,,,,,,,,,,,,,,,,,,,,,,,,,,,,,,,,,,,,,,,06,005,2022-09-23_10h28.54.009,test2,2022.2.4,59.93341337840656,
0,0,0,0,182,0,182,0,2370.950338269,2370.950338269,2370.950338269,2370.950338269,2370.950338269,2370.950338269,2370.950338269,1,1,rojo,1,['N_A'],2372.402155385,2372.402155385,2372.402155385,2372.402155385,2374.438070088,2374.438070088,2374.438070088,2374.438070088,2374.438070088,2374.438070088,2374.438070088,2374.438070088,2376.473384733,2376.473384733,2376.473384733,2376.473384733,,,,,,,,,,,,,,,,,,,,,,,,,,,,,,,,,,,,,,,06,005,2022-09-23_10h28.54.009,test2,2022.2.4,59.93341337840656,
0,0,0,0,183,0,183,0,2376.473384733,2376.473384733,2376.473384733,2376.473384733,2376.473384733,2376.473384733,2376.473384733,-1,-1,azul,1,['N_A'],2378.893139916,2378.893139916,2378.893139916,2378.893139916,2380.9284997040004,2380.9284997040004,2380.9284997040004,2380.9284997040004,2380.9284997040004,2380.9284997040004,2380.9284997040004,2380.9284997040004,2382.963085892,2382.963085892,2382.963085892,2382.963085892,,,,,,,,,,,,,,,,,,,,,,,,,,,,,,,,,,,,,,,06,005,2022-09-23_10h28.54.009,test2,2022.2.4,59.93341337840656,
0,0,0,0,184,0,184,0,2382.963085892,2382.963085892,2382.963085892,2382.963085892,2382.963085892,2382.963085892,2382.963085892,1,1,rojo,1,['N_A'],2384.615807051,2384.615807051,2384.615807051,2384.615807051,2386.6332644579998,2386.6332644579998,2386.6332644579998,2386.6332644579998,2386.6332644579998,2386.6332644579998,2386.6332644579998,2386.6332644579998,2388.67005357,2388.67005357,2388.67005357,2388.67005357,,,,,,,,,,,,,,,,,,,,,,,,,,,,,,,,,,,,,,,06,005,2022-09-23_10h28.54.009,test2,2022.2.4,59.93341337840656,
