trials_2.thisRepN,trials_2.thisTrialN,trials_2.thisN,trials_2.thisIndex,trials.thisRepN,trials.thisTrialN,trials.thisN,trials.thisIndex,Instrucción2.started,N_A_4.started,N_B_4.started,Exitos_3.started,Dias_3.started,Stimuli_1.started,Stimuli_2.started,Transitions,Rewards,Mode,Stay,Neighbour,Stimuli_3.started,Modo.started,Dias2.started,Exitos2.started,Stimuli_3.stopped,Modo.stopped,Dias2.stopped,Exitos2.stopped,Reward.started,Stimuli_reward.started,Exitos3.started,Dias3.started,Reward.stopped,Stimuli_reward.stopped,Exitos3.stopped,Dias3.stopped,Cue_text.started,Stimuli_4.started,Exitos4.started,Dias4.started,Stimuli_3_3.started,Stimuli_2_3.started,Instrucción.started,N_A.started,N_B.started,N_C.started,Exitos_2.started,Dias_2.started,Stimuli_1_3.started,Stimuli_3_2.started,Stimuli_2_2.started,Pregunta.started,N_A_2.started,N_B_2.started,N_C_2.started,Exitos5.started,Dias5.started,Stimuli_1_2.started,Resp_final_1,Modo2.started,Modo1.started,Pregunta_4.started,Modo3.started,Exitos7.started,Dias6.started,Resp_final_2,Modo1_2.started,Pregunta_3.started,Modo2_2.started,Exitos8.started,Dias7.started,Resp_final_3,Mensaje_Final2.started,Exitos6.started,participant,session,date,expName,psychopyVersion,frameRate,
0,0,0,0,0,0,0,0,376.42808513899945,376.42808513899945,376.42808513899945,376.42808513899945,376.42808513899945,376.42808513899945,376.42808513899945,0,0,0,0,['N_A'],384.72178369499943,384.72178369499943,384.72178369499943,384.72178369499943,386.75720654699944,386.75720654699944,386.75720654699944,386.75720654699944,386.75720654699944,386.75720654699944,386.75720654699944,386.75720654699944,388.7921496839999,388.7921496839999,388.7921496839999,388.7921496839999,,,,,,,,,,,,,,,,,,,,,,,,,,,,,,,,,,,,,,,06,006,2022-09-23_11h44.52.745,test2,2022.2.4,59.92488571391989,
0,0,0,0,1,0,1,0,388.7921496839999,388.7921496839999,388.7921496839999,388.7921496839999,388.7921496839999,388.7921496839999,388.7921496839999,1,-1,rojo,0,['N_B'],395.149018223,395.149018223,395.149018223,395.149018223,397.1852867439993,397.1852867439993,397.1852867439993,397.1852867439993,397.1852867439993,397.1852867439993,397.1852867439993,397.1852867439993,399.2207637929996,399.2207637929996,399.2207637929996,399.2207637929996,,,,,,,,,,,,,,,,,,,,,,,,,,,,,,,,,,,,,,,06,006,2022-09-23_11h44.52.745,test2,2022.2.4,59.92488571391989,
0,0,0,0,2,0,2,0,399.2207637929996,399.2207637929996,399.2207637929996,399.2207637929996,399.2207637929996,399.2207637929996,399.2207637929996,1,1,azul,1,['N_B'],402.1407766120001,402.1407766120001,402.1407766120001,402.1407766120001,404.1595960349996,404.1595960349996,404.1595960349996,404.1595960349996,404.1595960349996,404.1595960349996,404.1595960349996,404.1595960349996,406.1954119719994,406.1954119719994,406.1954119719994,406.1954119719994,,,,,,,,,,,,,,,,,,,,,,,,,,,,,,,,,,,,,,,06,006,2022-09-23_11h44.52.745,test2,2022.2.4,59.92488571391989,
0,0,0,0,3,0,3,0,406.1954119719994,406.1954119719994,406.1954119719994,406.1954119719994,406.1954119719994,406.1954119719994,406.1954119719994,-1,1,rojo,1,['N_B'],408.4145969629999,408.4145969629999,408.4145969629999,408.4145969629999,410.449188349,410.449188349,410.449188349,410.449188349,410.449188349,410.449188349,410.449188349,410.449188349,412.48561777599934,412.48561777599934,412.48561777599934,412.48561777599934,,,,,,,,,,,,,,,,,,,,,,,,,,,,,,,,,,,,,,,06,006,2022-09-23_11h44.52.745,test2,2022.2.4,59.92488571391989,
0,0,0,0,4,0,4,0,412.48561777599934,412.48561777599934,412.48561777599934,412.48561777599934,412.48561777599934,412.48561777599934,412.48561777599934,1,-1,azul,0,['N_A'],420.62808111699997,420.62808111699997,420.62808111699997,420.62808111699997,422.6632927740002,422.6632927740002,422.6632927740002,422.6632927740002,422.6632927740002,422.6632927740002,422.6632927740002,422.6632927740002,424.69922662999943,424.69922662999943,424.69922662999943,424.69922662999943,,,,,,,,,,,,,,,,,,,,,,,,,,,,,,,,,,,,,,,06,006,2022-09-23_11h44.52.745,test2,2022.2.4,59.92488571391989,
0,0,0,0,5,0,5,0,424.69922662999943,424.69922662999943,424.69922662999943,424.69922662999943,424.69922662999943,424.69922662999943,424.69922662999943,1,1,rojo,1,['N_A'],429.98801456099955,429.98801456099955,429.98801456099955,429.98801456099955,432.005390411,432.005390411,432.005390411,432.005390411,432.005390411,432.005390411,432.005390411,432.005390411,434.04195637700013,434.04195637700013,434.04195637700013,434.04195637700013,,,,,,,,,,,,,,,,,,,,,,,,,,,,,,,,,,,,,,,06,006,2022-09-23_11h44.52.745,test2,2022.2.4,59.92488571391989,
0,0,0,0,6,0,6,0,434.04195637700013,434.04195637700013,434.04195637700013,434.04195637700013,434.04195637700013,434.04195637700013,434.04195637700013,1,1,rojo,1,['N_A'],437.1292570259993,437.1292570259993,437.1292570259993,437.1292570259993,439.1653459419995,439.1653459419995,439.1653459419995,439.1653459419995,439.1653459419995,439.1653459419995,439.1653459419995,439.1653459419995,441.2000603050001,441.2000603050001,441.2000603050001,441.2000603050001,,,,,,,,,,,,,,,,,,,,,,,,,,,,,,,,,,,,,,,06,006,2022-09-23_11h44.52.745,test2,2022.2.4,59.92488571391989,
0,0,0,0,7,0,7,0,441.2000603050001,441.2000603050001,441.2000603050001,441.2000603050001,441.2000603050001,441.2000603050001,441.2000603050001,1,-1,rojo,0,['N_B'],444.82055244599997,444.82055244599997,444.82055244599997,444.82055244599997,446.85630305799987,446.85630305799987,446.85630305799987,446.85630305799987,446.85630305799987,446.85630305799987,446.85630305799987,446.85630305799987,448.8924704159999,448.8924704159999,448.8924704159999,448.8924704159999,,,,,,,,,,,,,,,,,,,,,,,,,,,,,,,,,,,,,,,06,006,2022-09-23_11h44.52.745,test2,2022.2.4,59.92488571391989,
0,0,0,0,8,0,8,0,448.8924704159999,448.8924704159999,448.8924704159999,448.8924704159999,448.8924704159999,448.8924704159999,448.8924704159999,-1,-1,rojo,0,['N_A'],453.37975028799974,453.37975028799974,453.37975028799974,453.37975028799974,455.4157434079998,455.4157434079998,455.4157434079998,455.4157434079998,455.4157434079998,455.4157434079998,455.4157434079998,455.4157434079998,457.4513880019995,457.4513880019995,457.4513880019995,457.4513880019995,,,,,,,,,,,,,,,,,,,,,,,,,,,,,,,,,,,,,,,06,006,2022-09-23_11h44.52.745,test2,2022.2.4,59.92488571391989,
0,0,0,0,9,0,9,0,457.4513880019995,457.4513880019995,457.4513880019995,457.4513880019995,457.4513880019995,457.4513880019995,457.4513880019995,1,-1,rojo,0,['N_B'],459.70405687999937,459.70405687999937,459.70405687999937,459.70405687999937,461.73885977400005,461.73885977400005,461.73885977400005,461.73885977400005,461.73885977400005,461.73885977400005,461.73885977400005,461.73885977400005,463.7748490650001,463.7748490650001,463.7748490650001,463.7748490650001,,,,,,,,,,,,,,,,,,,,,,,,,,,,,,,,,,,,,,,06,006,2022-09-23_11h44.52.745,test2,2022.2.4,59.92488571391989,
0,0,0,0,10,0,10,0,463.7748490650001,463.7748490650001,463.7748490650001,463.7748490650001,463.7748490650001,463.7748490650001,463.7748490650001,1,-1,azul,1,['N_B'],465.6435866889997,465.6435866889997,465.6435866889997,465.6435866889997,467.6794531730002,467.6794531730002,467.6794531730002,467.6794531730002,467.6794531730002,467.6794531730002,467.6794531730002,467.6794531730002,469.71468221099985,469.71468221099985,469.71468221099985,469.71468221099985,,,,,,,,,,,,,,,,,,,,,,,,,,,,,,,,,,,,,,,06,006,2022-09-23_11h44.52.745,test2,2022.2.4,59.92488571391989,
0,0,0,0,11,0,11,0,469.71468221099985,469.71468221099985,469.71468221099985,469.71468221099985,469.71468221099985,469.71468221099985,469.71468221099985,1,-1,azul,0,['N_A'],474.6534602439997,474.6534602439997,474.6534602439997,474.6534602439997,476.6892484029995,476.6892484029995,476.6892484029995,476.6892484029995,476.6892484029995,476.6892484029995,476.6892484029995,476.6892484029995,478.7244228419995,478.7244228419995,478.7244228419995,478.7244228419995,,,,,,,,,,,,,,,,,,,,,,,,,,,,,,,,,,,,,,,06,006,2022-09-23_11h44.52.745,test2,2022.2.4,59.92488571391989,
0,0,0,0,12,0,12,0,478.7244228419995,478.7244228419995,478.7244228419995,478.7244228419995,478.7244228419995,478.7244228419995,478.7244228419995,-1,-1,azul,1,['N_A'],485.4162167889999,485.4162167889999,485.4162167889999,485.4162167889999,487.4509524799996,487.4509524799996,487.4509524799996,487.4509524799996,487.4509524799996,487.4509524799996,487.4509524799996,487.4509524799996,489.4872281099997,489.4872281099997,489.4872281099997,489.4872281099997,,,,,,,,,,,,,,,,,,,,,,,,,,,,,,,,,,,,,,,06,006,2022-09-23_11h44.52.745,test2,2022.2.4,59.92488571391989,
0,0,0,0,13,0,13,0,489.4872281099997,489.4872281099997,489.4872281099997,489.4872281099997,489.4872281099997,489.4872281099997,489.4872281099997,1,-1,rojo,1,['N_A'],492.1068300959996,492.1068300959996,492.1068300959996,492.1068300959996,494.1416969869997,494.1416969869997,494.1416969869997,494.1416969869997,494.1416969869997,494.1416969869997,494.1416969869997,494.1416969869997,496.177745252,496.177745252,496.177745252,496.177745252,,,,,,,,,,,,,,,,,,,,,,,,,,,,,,,,,,,,,,,06,006,2022-09-23_11h44.52.745,test2,2022.2.4,59.92488571391989,
0,0,0,0,14,0,14,0,496.177745252,496.177745252,496.177745252,496.177745252,496.177745252,496.177745252,496.177745252,1,-1,rojo,1,['N_A'],509.7422925619994,509.7422925619994,509.7422925619994,509.7422925619994,511.7784854679994,511.7784854679994,511.7784854679994,511.7784854679994,511.7784854679994,511.7784854679994,511.7784854679994,511.7784854679994,513.8130633800001,513.8130633800001,513.8130633800001,513.8130633800001,,,,,,,,,,,,,,,,,,,,,,,,,,,,,,,,,,,,,,,06,006,2022-09-23_11h44.52.745,test2,2022.2.4,59.92488571391989,
0,0,0,0,15,0,15,0,513.8130633800001,513.8130633800001,513.8130633800001,513.8130633800001,513.8130633800001,513.8130633800001,513.8130633800001,-1,-1,azul,1,['N_A'],516.4170879489993,516.4170879489993,516.4170879489993,516.4170879489993,518.4521983609993,518.4521983609993,518.4521983609993,518.4521983609993,518.4521983609993,518.4521983609993,518.4521983609993,518.4521983609993,520.4879111239998,520.4879111239998,520.4879111239998,520.4879111239998,,,,,,,,,,,,,,,,,,,,,,,,,,,,,,,,,,,,,,,06,006,2022-09-23_11h44.52.745,test2,2022.2.4,59.92488571391989,
0,0,0,0,16,0,16,0,520.4879111239998,520.4879111239998,520.4879111239998,520.4879111239998,520.4879111239998,520.4879111239998,520.4879111239998,1,-1,rojo,0,['N_B'],522.556395695,522.556395695,522.556395695,522.556395695,524.592085878,524.592085878,524.592085878,524.592085878,524.592085878,524.592085878,524.592085878,524.592085878,526.6273910499995,526.6273910499995,526.6273910499995,526.6273910499995,,,,,,,,,,,,,,,,,,,,,,,,,,,,,,,,,,,,,,,06,006,2022-09-23_11h44.52.745,test2,2022.2.4,59.92488571391989,
0,0,0,0,17,0,17,0,526.6273910499995,526.6273910499995,526.6273910499995,526.6273910499995,526.6273910499995,526.6273910499995,526.6273910499995,1,1,azul,1,['N_B'],528.8800566169994,528.8800566169994,528.8800566169994,528.8800566169994,530.898840631,530.898840631,530.898840631,530.898840631,530.898840631,530.898840631,530.898840631,530.898840631,532.9344581919995,532.9344581919995,532.9344581919995,532.9344581919995,,,,,,,,,,,,,,,,,,,,,,,,,,,,,,,,,,,,,,,06,006,2022-09-23_11h44.52.745,test2,2022.2.4,59.92488571391989,
0,0,0,0,18,0,18,0,532.9344581919995,532.9344581919995,532.9344581919995,532.9344581919995,532.9344581919995,532.9344581919995,532.9344581919995,1,1,azul,1,['N_B'],534.6538155489998,534.6538155489998,534.6538155489998,534.6538155489998,536.6725337029993,536.6725337029993,536.6725337029993,536.6725337029993,536.6725337029993,536.6725337029993,536.6725337029993,536.6725337029993,538.7074964019994,538.7074964019994,538.7074964019994,538.7074964019994,,,,,,,,,,,,,,,,,,,,,,,,,,,,,,,,,,,,,,,06,006,2022-09-23_11h44.52.745,test2,2022.2.4,59.92488571391989,
0,0,0,0,19,0,19,0,538.7074964019994,538.7074964019994,538.7074964019994,538.7074964019994,538.7074964019994,538.7074964019994,538.7074964019994,1,1,azul,1,['N_B'],543.8797763699995,543.8797763699995,543.8797763699995,543.8797763699995,545.8991536439999,545.8991536439999,545.8991536439999,545.8991536439999,545.8991536439999,545.8991536439999,545.8991536439999,545.8991536439999,547.934674477,547.934674477,547.934674477,547.934674477,,,,,,,,,,,,,,,,,,,,,,,,,,,,,,,,,,,,,,,06,006,2022-09-23_11h44.52.745,test2,2022.2.4,59.92488571391989,
0,0,0,0,20,0,20,0,547.934674477,547.934674477,547.934674477,547.934674477,547.934674477,547.934674477,547.934674477,-1,1,rojo,1,['N_B'],550.270985823,550.270985823,550.270985823,550.270985823,552.3066689050002,552.3066689050002,552.3066689050002,552.3066689050002,552.3066689050002,552.3066689050002,552.3066689050002,552.3066689050002,554.341291271,554.341291271,554.341291271,554.341291271,,,,,,,,,,,,,,,,,,,,,,,,,,,,,,,,,,,,,,,06,006,2022-09-23_11h44.52.745,test2,2022.2.4,59.92488571391989,
0,0,0,0,21,0,21,0,554.341291271,554.341291271,554.341291271,554.341291271,554.341291271,554.341291271,554.341291271,1,-1,azul,0,['N_A'],556.3609489479995,556.3609489479995,556.3609489479995,556.3609489479995,558.3968373669995,558.3968373669995,558.3968373669995,558.3968373669995,558.3968373669995,558.3968373669995,558.3968373669995,558.3968373669995,560.4323778620001,560.4323778620001,560.4323778620001,560.4323778620001,,,,,,,,,,,,,,,,,,,,,,,,,,,,,,,,,,,,,,,06,006,2022-09-23_11h44.52.745,test2,2022.2.4,59.92488571391989,
0,0,0,0,22,0,22,0,560.4323778620001,560.4323778620001,560.4323778620001,560.4323778620001,560.4323778620001,560.4323778620001,560.4323778620001,-1,-1,azul,0,['N_B'],562.1672484909996,562.1672484909996,562.1672484909996,562.1672484909996,564.2024730559997,564.2024730559997,564.2024730559997,564.2024730559997,564.2024730559997,564.2024730559997,564.2024730559997,564.2024730559997,566.2383826269997,566.2383826269997,566.2383826269997,566.2383826269997,,,,,,,,,,,,,,,,,,,,,,,,,,,,,,,,,,,,,,,06,006,2022-09-23_11h44.52.745,test2,2022.2.4,59.92488571391989,
0,0,0,0,23,0,23,0,566.2383826269997,566.2383826269997,566.2383826269997,566.2383826269997,566.2383826269997,566.2383826269997,566.2383826269997,1,-1,azul,1,['N_B'],568.7908848249999,568.7908848249999,568.7908848249999,568.7908848249999,570.8259815149995,570.8259815149995,570.8259815149995,570.8259815149995,570.8259815149995,570.8259815149995,570.8259815149995,570.8259815149995,572.8615302110002,572.8615302110002,572.8615302110002,572.8615302110002,,,,,,,,,,,,,,,,,,,,,,,,,,,,,,,,,,,,,,,06,006,2022-09-23_11h44.52.745,test2,2022.2.4,59.92488571391989,
0,0,0,0,24,0,24,0,572.8615302110002,572.8615302110002,572.8615302110002,572.8615302110002,572.8615302110002,572.8615302110002,572.8615302110002,1,-1,azul,1,['N_B'],576.1990005439993,576.1990005439993,576.1990005439993,576.1990005439993,578.2355314249999,578.2355314249999,578.2355314249999,578.2355314249999,578.2355314249999,578.2355314249999,578.2355314249999,578.2355314249999,580.2706137969999,580.2706137969999,580.2706137969999,580.2706137969999,,,,,,,,,,,,,,,,,,,,,,,,,,,,,,,,,,,,,,,06,006,2022-09-23_11h44.52.745,test2,2022.2.4,59.92488571391989,
0,0,0,0,25,0,25,0,580.2706137969999,580.2706137969999,580.2706137969999,580.2706137969999,580.2706137969999,580.2706137969999,580.2706137969999,-1,-1,rojo,1,['N_B'],581.9894314819994,581.9894314819994,581.9894314819994,581.9894314819994,584.0247777139994,584.0247777139994,584.0247777139994,584.0247777139994,584.0247777139994,584.0247777139994,584.0247777139994,584.0247777139994,586.0597563279998,586.0597563279998,586.0597563279998,586.0597563279998,,,,,,,,,,,,,,,,,,,,,,,,,,,,,,,,,,,,,,,06,006,2022-09-23_11h44.52.745,test2,2022.2.4,59.92488571391989,
0,0,0,0,26,0,26,0,586.0597563279998,586.0597563279998,586.0597563279998,586.0597563279998,586.0597563279998,586.0597563279998,586.0597563279998,1,1,azul,1,['N_B'],588.2291065290001,588.2291065290001,588.2291065290001,588.2291065290001,590.2648418239996,590.2648418239996,590.2648418239996,590.2648418239996,590.2648418239996,590.2648418239996,590.2648418239996,590.2648418239996,592.300692588,592.300692588,592.300692588,592.300692588,,,,,,,,,,,,,,,,,,,,,,,,,,,,,,,,,,,,,,,06,006,2022-09-23_11h44.52.745,test2,2022.2.4,59.92488571391989,
0,0,0,0,27,0,27,0,592.300692588,592.300692588,592.300692588,592.300692588,592.300692588,592.300692588,592.300692588,1,-1,azul,0,['N_A'],595.4866618369997,595.4866618369997,595.4866618369997,595.4866618369997,597.5227286039999,597.5227286039999,597.5227286039999,597.5227286039999,597.5227286039999,597.5227286039999,597.5227286039999,597.5227286039999,599.5581269529994,599.5581269529994,599.5581269529994,599.5581269529994,,,,,,,,,,,,,,,,,,,,,,,,,,,,,,,,,,,,,,,06,006,2022-09-23_11h44.52.745,test2,2022.2.4,59.92488571391989,
0,0,0,0,28,0,28,0,599.5581269529994,599.5581269529994,599.5581269529994,599.5581269529994,599.5581269529994,599.5581269529994,599.5581269529994,-1,-1,azul,1,['N_A'],602.2610597619996,602.2610597619996,602.2610597619996,602.2610597619996,604.2969037769999,604.2969037769999,604.2969037769999,604.2969037769999,604.2969037769999,604.2969037769999,604.2969037769999,604.2969037769999,606.3325503309998,606.3325503309998,606.3325503309998,606.3325503309998,,,,,,,,,,,,,,,,,,,,,,,,,,,,,,,,,,,,,,,06,006,2022-09-23_11h44.52.745,test2,2022.2.4,59.92488571391989,
0,0,0,0,29,0,29,0,606.3325503309998,606.3325503309998,606.3325503309998,606.3325503309998,606.3325503309998,606.3325503309998,606.3325503309998,-1,-1,azul,0,['N_B'],608.852362691,608.852362691,608.852362691,608.852362691,610.887572957,610.887572957,610.887572957,610.887572957,610.887572957,610.887572957,610.887572957,610.887572957,612.9237177979994,612.9237177979994,612.9237177979994,612.9237177979994,,,,,,,,,,,,,,,,,,,,,,,,,,,,,,,,,,,,,,,06,006,2022-09-23_11h44.52.745,test2,2022.2.4,59.92488571391989,
0,0,0,0,30,0,30,0,612.9237177979994,612.9237177979994,612.9237177979994,612.9237177979994,612.9237177979994,612.9237177979994,612.9237177979994,1,-1,azul,1,['N_B'],616.8445264949996,616.8445264949996,616.8445264949996,616.8445264949996,618.8794106340001,618.8794106340001,618.8794106340001,618.8794106340001,618.8794106340001,618.8794106340001,618.8794106340001,618.8794106340001,620.9149679749999,620.9149679749999,620.9149679749999,620.9149679749999,,,,,,,,,,,,,,,,,,,,,,,,,,,,,,,,,,,,,,,06,006,2022-09-23_11h44.52.745,test2,2022.2.4,59.92488571391989,
0,0,0,0,31,0,31,0,620.9149679749999,620.9149679749999,620.9149679749999,620.9149679749999,620.9149679749999,620.9149679749999,620.9149679749999,1,1,azul,1,['N_B'],626.9220366379996,626.9220366379996,626.9220366379996,626.9220366379996,628.9573631650001,628.9573631650001,628.9573631650001,628.9573631650001,628.9573631650001,628.9573631650001,628.9573631650001,628.9573631650001,630.9934852830002,630.9934852830002,630.9934852830002,630.9934852830002,,,,,,,,,,,,,,,,,,,,,,,,,,,,,,,,,,,,,,,06,006,2022-09-23_11h44.52.745,test2,2022.2.4,59.92488571391989,
0,0,0,0,32,0,32,0,630.9934852830002,630.9934852830002,630.9934852830002,630.9934852830002,630.9934852830002,630.9934852830002,630.9934852830002,1,-1,azul,1,['N_B'],634.2132766609993,634.2132766609993,634.2132766609993,634.2132766609993,636.2490114849998,636.2490114849998,636.2490114849998,636.2490114849998,636.2490114849998,636.2490114849998,636.2490114849998,636.2490114849998,638.2838225810001,638.2838225810001,638.2838225810001,638.2838225810001,,,,,,,,,,,,,,,,,,,,,,,,,,,,,,,,,,,,,,,06,006,2022-09-23_11h44.52.745,test2,2022.2.4,59.92488571391989,
0,0,0,0,33,0,33,0,638.2838225810001,638.2838225810001,638.2838225810001,638.2838225810001,638.2838225810001,638.2838225810001,638.2838225810001,-1,1,rojo,1,['N_B'],642.8398962499996,642.8398962499996,642.8398962499996,642.8398962499996,644.8744986259999,644.8744986259999,644.8744986259999,644.8744986259999,644.8744986259999,644.8744986259999,644.8744986259999,644.8744986259999,646.910186137,646.910186137,646.910186137,646.910186137,,,,,,,,,,,,,,,,,,,,,,,,,,,,,,,,,,,,,,,06,006,2022-09-23_11h44.52.745,test2,2022.2.4,59.92488571391989,
0,0,0,0,34,0,34,0,646.910186137,646.910186137,646.910186137,646.910186137,646.910186137,646.910186137,646.910186137,1,-1,azul,1,['N_B'],648.7294656479999,648.7294656479999,648.7294656479999,648.7294656479999,650.7648880289998,650.7648880289998,650.7648880289998,650.7648880289998,650.7648880289998,650.7648880289998,650.7648880289998,650.7648880289998,652.7999605599998,652.7999605599998,652.7999605599998,652.7999605599998,,,,,,,,,,,,,,,,,,,,,,,,,,,,,,,,,,,,,,,06,006,2022-09-23_11h44.52.745,test2,2022.2.4,59.92488571391989,
0,0,0,0,35,0,35,0,652.7999605599998,652.7999605599998,652.7999605599998,652.7999605599998,652.7999605599998,652.7999605599998,652.7999605599998,-1,1,rojo,1,['N_B'],654.619498952,654.619498952,654.619498952,654.619498952,656.6546520080001,656.6546520080001,656.6546520080001,656.6546520080001,656.6546520080001,656.6546520080001,656.6546520080001,656.6546520080001,658.6905952329998,658.6905952329998,658.6905952329998,658.6905952329998,,,,,,,,,,,,,,,,,,,,,,,,,,,,,,,,,,,,,,,06,006,2022-09-23_11h44.52.745,test2,2022.2.4,59.92488571391989,
0,0,0,0,36,0,36,0,658.6905952329998,658.6905952329998,658.6905952329998,658.6905952329998,658.6905952329998,658.6905952329998,658.6905952329998,1,-1,azul,1,['N_B'],660.8430626680001,660.8430626680001,660.8430626680001,660.8430626680001,662.8778340029994,662.8778340029994,662.8778340029994,662.8778340029994,662.8778340029994,662.8778340029994,662.8778340029994,662.8778340029994,664.9135692330001,664.9135692330001,664.9135692330001,664.9135692330001,,,,,,,,,,,,,,,,,,,,,,,,,,,,,,,,,,,,,,,06,006,2022-09-23_11h44.52.745,test2,2022.2.4,59.92488571391989,
0,0,0,0,37,0,37,0,664.9135692330001,664.9135692330001,664.9135692330001,664.9135692330001,664.9135692330001,664.9135692330001,664.9135692330001,1,-1,azul,0,['N_A'],666.3314252119999,666.3314252119999,666.3314252119999,666.3314252119999,668.3680408780001,668.3680408780001,668.3680408780001,668.3680408780001,668.3680408780001,668.3680408780001,668.3680408780001,668.3680408780001,670.4030791229998,670.4030791229998,670.4030791229998,670.4030791229998,,,,,,,,,,,,,,,,,,,,,,,,,,,,,,,,,,,,,,,06,006,2022-09-23_11h44.52.745,test2,2022.2.4,59.92488571391989,
0,0,0,0,38,0,38,0,670.4030791229998,670.4030791229998,670.4030791229998,670.4030791229998,670.4030791229998,670.4030791229998,670.4030791229998,1,-1,rojo,1,['N_A'],671.871992288,671.871992288,671.871992288,671.871992288,673.9073656740002,673.9073656740002,673.9073656740002,673.9073656740002,673.9073656740002,673.9073656740002,673.9073656740002,673.9073656740002,675.9419281619994,675.9419281619994,675.9419281619994,675.9419281619994,,,,,,,,,,,,,,,,,,,,,,,,,,,,,,,,,,,,,,,06,006,2022-09-23_11h44.52.745,test2,2022.2.4,59.92488571391989,
0,0,0,0,39,0,39,0,675.9419281619994,675.9419281619994,675.9419281619994,675.9419281619994,675.9419281619994,675.9419281619994,675.9419281619994,-1,-1,azul,0,['N_B'],677.6106726669996,677.6106726669996,677.6106726669996,677.6106726669996,679.6467948190002,679.6467948190002,679.6467948190002,679.6467948190002,679.6467948190002,679.6467948190002,679.6467948190002,679.6467948190002,681.6827902089999,681.6827902089999,681.6827902089999,681.6827902089999,,,,,,,,,,,,,,,,,,,,,,,,,,,,,,,,,,,,,,,06,006,2022-09-23_11h44.52.745,test2,2022.2.4,59.92488571391989,
0,0,0,0,40,0,40,0,681.6827902089999,681.6827902089999,681.6827902089999,681.6827902089999,681.6827902089999,681.6827902089999,681.6827902089999,1,-1,azul,0,['N_A'],687.8056454629996,687.8056454629996,687.8056454629996,687.8056454629996,689.8415298209993,689.8415298209993,689.8415298209993,689.8415298209993,689.8415298209993,689.8415298209993,689.8415298209993,689.8415298209993,691.8769079220001,691.8769079220001,691.8769079220001,691.8769079220001,,,,,,,,,,,,,,,,,,,,,,,,,,,,,,,,,,,,,,,06,006,2022-09-23_11h44.52.745,test2,2022.2.4,59.92488571391989,
0,0,0,0,41,0,41,0,691.8769079220001,691.8769079220001,691.8769079220001,691.8769079220001,691.8769079220001,691.8769079220001,691.8769079220001,-1,-1,azul,0,['N_B'],693.345059837,693.345059837,693.345059837,693.345059837,695.3808846430002,695.3808846430002,695.3808846430002,695.3808846430002,695.3808846430002,695.3808846430002,695.3808846430002,695.3808846430002,697.4164987679997,697.4164987679997,697.4164987679997,697.4164987679997,,,,,,,,,,,,,,,,,,,,,,,,,,,,,,,,,,,,,,,06,006,2022-09-23_11h44.52.745,test2,2022.2.4,59.92488571391989,
0,0,0,0,42,0,42,0,697.4164987679997,697.4164987679997,697.4164987679997,697.4164987679997,697.4164987679997,697.4164987679997,697.4164987679997,-1,1,rojo,1,['N_B'],699.101423352,699.101423352,699.101423352,699.101423352,701.1378329259996,701.1378329259996,701.1378329259996,701.1378329259996,701.1378329259996,701.1378329259996,701.1378329259996,701.1378329259996,703.1731589279998,703.1731589279998,703.1731589279998,703.1731589279998,,,,,,,,,,,,,,,,,,,,,,,,,,,,,,,,,,,,,,,06,006,2022-09-23_11h44.52.745,test2,2022.2.4,59.92488571391989,
0,0,0,0,43,0,43,0,703.1731589279998,703.1731589279998,703.1731589279998,703.1731589279998,703.1731589279998,703.1731589279998,703.1731589279998,1,-1,azul,1,['N_B'],705.6753013879998,705.6753013879998,705.6753013879998,705.6753013879998,707.7110637730002,707.7110637730002,707.7110637730002,707.7110637730002,707.7110637730002,707.7110637730002,707.7110637730002,707.7110637730002,709.7464195739994,709.7464195739994,709.7464195739994,709.7464195739994,,,,,,,,,,,,,,,,,,,,,,,,,,,,,,,,,,,,,,,06,006,2022-09-23_11h44.52.745,test2,2022.2.4,59.92488571391989,
0,0,0,0,44,0,44,0,709.7464195739994,709.7464195739994,709.7464195739994,709.7464195739994,709.7464195739994,709.7464195739994,709.7464195739994,1,-1,azul,0,['N_A'],711.6651572559995,711.6651572559995,711.6651572559995,711.6651572559995,713.7014360160001,713.7014360160001,713.7014360160001,713.7014360160001,713.7014360160001,713.7014360160001,713.7014360160001,713.7014360160001,715.7370609019999,715.7370609019999,715.7370609019999,715.7370609019999,,,,,,,,,,,,,,,,,,,,,,,,,,,,,,,,,,,,,,,06,006,2022-09-23_11h44.52.745,test2,2022.2.4,59.92488571391989,
0,0,0,0,45,0,45,0,715.7370609019999,715.7370609019999,715.7370609019999,715.7370609019999,715.7370609019999,715.7370609019999,715.7370609019999,1,1,rojo,0,['N_B'],718.455842286,718.455842286,718.455842286,718.455842286,720.4746272619996,720.4746272619996,720.4746272619996,720.4746272619996,720.4746272619996,720.4746272619996,720.4746272619996,720.4746272619996,722.5107235679998,722.5107235679998,722.5107235679998,722.5107235679998,,,,,,,,,,,,,,,,,,,,,,,,,,,,,,,,,,,,,,,06,006,2022-09-23_11h44.52.745,test2,2022.2.4,59.92488571391989,
0,0,0,0,46,0,46,0,722.5107235679998,722.5107235679998,722.5107235679998,722.5107235679998,722.5107235679998,722.5107235679998,722.5107235679998,1,1,azul,0,['N_A'],724.8797700300001,724.8797700300001,724.8797700300001,724.8797700300001,726.8974001919996,726.8974001919996,726.8974001919996,726.8974001919996,726.8974001919996,726.8974001919996,726.8974001919996,726.8974001919996,728.9346529469994,728.9346529469994,728.9346529469994,728.9346529469994,,,,,,,,,,,,,,,,,,,,,,,,,,,,,,,,,,,,,,,06,006,2022-09-23_11h44.52.745,test2,2022.2.4,59.92488571391989,
0,0,0,0,47,0,47,0,728.9346529469994,728.9346529469994,728.9346529469994,728.9346529469994,728.9346529469994,728.9346529469994,728.9346529469994,1,1,rojo,0,['N_B'],730.9870668349995,730.9870668349995,730.9870668349995,730.9870668349995,733.0226112989994,733.0226112989994,733.0226112989994,733.0226112989994,733.0226112989994,733.0226112989994,733.0226112989994,733.0226112989994,735.0577901879997,735.0577901879997,735.0577901879997,735.0577901879997,,,,,,,,,,,,,,,,,,,,,,,,,,,,,,,,,,,,,,,06,006,2022-09-23_11h44.52.745,test2,2022.2.4,59.92488571391989,
0,0,0,0,48,0,48,0,735.0577901879997,735.0577901879997,735.0577901879997,735.0577901879997,735.0577901879997,735.0577901879997,735.0577901879997,-1,-1,rojo,0,['N_A'],736.5932677639994,736.5932677639994,736.5932677639994,736.5932677639994,738.6281585659999,738.6281585659999,738.6281585659999,738.6281585659999,738.6281585659999,738.6281585659999,738.6281585659999,738.6281585659999,740.664161398,740.664161398,740.664161398,740.664161398,,,,,,,,,,,,,,,,,,,,,,,,,,,,,,,,,,,,,,,06,006,2022-09-23_11h44.52.745,test2,2022.2.4,59.92488571391989,
0,0,0,0,49,0,49,0,740.664161398,740.664161398,740.664161398,740.664161398,740.664161398,740.664161398,740.664161398,1,-1,rojo,0,['N_B'],742.6159168009999,742.6159168009999,742.6159168009999,742.6159168009999,744.6518779839998,744.6518779839998,744.6518779839998,744.6518779839998,744.6518779839998,744.6518779839998,744.6518779839998,744.6518779839998,746.6866940559994,746.6866940559994,746.6866940559994,746.6866940559994,,,,,,,,,,,,,,,,,,,,,,,,,,,,,,,,,,,,,,,06,006,2022-09-23_11h44.52.745,test2,2022.2.4,59.92488571391989,
0,0,0,0,50,0,50,0,746.6866940559994,746.6866940559994,746.6866940559994,746.6866940559994,746.6866940559994,746.6866940559994,746.6866940559994,1,-1,azul,0,['N_A'],748.9394034019997,748.9394034019997,748.9394034019997,748.9394034019997,750.9753485249994,750.9753485249994,750.9753485249994,750.9753485249994,750.9753485249994,750.9753485249994,750.9753485249994,750.9753485249994,753.0108386390002,753.0108386390002,753.0108386390002,753.0108386390002,,,,,,,,,,,,,,,,,,,,,,,,,,,,,,,,,,,,,,,06,006,2022-09-23_11h44.52.745,test2,2022.2.4,59.92488571391989,
0,0,0,0,51,0,51,0,753.0108386390002,753.0108386390002,753.0108386390002,753.0108386390002,753.0108386390002,753.0108386390002,753.0108386390002,1,1,rojo,1,['N_A'],754.6626331560001,754.6626331560001,754.6626331560001,754.6626331560001,756.6986302649993,756.6986302649993,756.6986302649993,756.6986302649993,756.6986302649993,756.6986302649993,756.6986302649993,756.6986302649993,758.7333472,758.7333472,758.7333472,758.7333472,,,,,,,,,,,,,,,,,,,,,,,,,,,,,,,,,,,,,,,06,006,2022-09-23_11h44.52.745,test2,2022.2.4,59.92488571391989,
0,0,0,0,52,0,52,0,758.7333472,758.7333472,758.7333472,758.7333472,758.7333472,758.7333472,758.7333472,1,-1,rojo,1,['N_A'],760.186015405,760.186015405,760.186015405,760.186015405,762.2207994379996,762.2207994379996,762.2207994379996,762.2207994379996,762.2207994379996,762.2207994379996,762.2207994379996,762.2207994379996,764.2569450709998,764.2569450709998,764.2569450709998,764.2569450709998,,,,,,,,,,,,,,,,,,,,,,,,,,,,,,,,,,,,,,,06,006,2022-09-23_11h44.52.745,test2,2022.2.4,59.92488571391989,
0,0,0,0,53,0,53,0,764.2569450709998,764.2569450709998,764.2569450709998,764.2569450709998,764.2569450709998,764.2569450709998,764.2569450709998,-1,-1,azul,0,['N_B'],765.9412977369993,765.9412977369993,765.9412977369993,765.9412977369993,767.9771140900002,767.9771140900002,767.9771140900002,767.9771140900002,767.9771140900002,767.9771140900002,767.9771140900002,767.9771140900002,770.0127602570001,770.0127602570001,770.0127602570001,770.0127602570001,,,,,,,,,,,,,,,,,,,,,,,,,,,,,,,,,,,,,,,06,006,2022-09-23_11h44.52.745,test2,2022.2.4,59.92488571391989,
0,0,0,0,54,0,54,0,770.0127602570001,770.0127602570001,770.0127602570001,770.0127602570001,770.0127602570001,770.0127602570001,770.0127602570001,1,1,azul,0,['N_A'],771.4984931729996,771.4984931729996,771.4984931729996,771.4984931729996,773.5160542619997,773.5160542619997,773.5160542619997,773.5160542619997,773.5160542619997,773.5160542619997,773.5160542619997,773.5160542619997,775.5528918549999,775.5528918549999,775.5528918549999,775.5528918549999,,,,,,,,,,,,,,,,,,,,,,,,,,,,,,,,,,,,,,,06,006,2022-09-23_11h44.52.745,test2,2022.2.4,59.92488571391989,
0,0,0,0,55,0,55,0,775.5528918549999,775.5528918549999,775.5528918549999,775.5528918549999,775.5528918549999,775.5528918549999,775.5528918549999,1,1,rojo,0,['N_B'],778.4058649159997,778.4058649159997,778.4058649159997,778.4058649159997,780.4417735979996,780.4417735979996,780.4417735979996,780.4417735979996,780.4417735979996,780.4417735979996,780.4417735979996,780.4417735979996,782.4773126599994,782.4773126599994,782.4773126599994,782.4773126599994,,,,,,,,,,,,,,,,,,,,,,,,,,,,,,,,,,,,,,,06,006,2022-09-23_11h44.52.745,test2,2022.2.4,59.92488571391989,
0,0,0,0,56,0,56,0,782.4773126599994,782.4773126599994,782.4773126599994,782.4773126599994,782.4773126599994,782.4773126599994,782.4773126599994,1,-1,azul,0,['N_A'],784.6294849349997,784.6294849349997,784.6294849349997,784.6294849349997,786.6646938349995,786.6646938349995,786.6646938349995,786.6646938349995,786.6646938349995,786.6646938349995,786.6646938349995,786.6646938349995,788.6998889609995,788.6998889609995,788.6998889609995,788.6998889609995,,,,,,,,,,,,,,,,,,,,,,,,,,,,,,,,,,,,,,,06,006,2022-09-23_11h44.52.745,test2,2022.2.4,59.92488571391989,
0,0,0,0,57,0,57,0,788.6998889609995,788.6998889609995,788.6998889609995,788.6998889609995,788.6998889609995,788.6998889609995,788.6998889609995,1,-1,rojo,0,['N_B'],791.1700314259997,791.1700314259997,791.1700314259997,791.1700314259997,793.2050373719994,793.2050373719994,793.2050373719994,793.2050373719994,793.2050373719994,793.2050373719994,793.2050373719994,793.2050373719994,795.2404920609997,795.2404920609997,795.2404920609997,795.2404920609997,,,,,,,,,,,,,,,,,,,,,,,,,,,,,,,,,,,,,,,06,006,2022-09-23_11h44.52.745,test2,2022.2.4,59.92488571391989,
0,0,0,0,58,0,58,0,795.2404920609997,795.2404920609997,795.2404920609997,795.2404920609997,795.2404920609997,795.2404920609997,795.2404920609997,1,-1,azul,0,['N_A'],796.9262864960001,796.9262864960001,796.9262864960001,796.9262864960001,798.9622992619998,798.9622992619998,798.9622992619998,798.9622992619998,798.9622992619998,798.9622992619998,798.9622992619998,798.9622992619998,800.997653548,800.997653548,800.997653548,800.997653548,,,,,,,,,,,,,,,,,,,,,,,,,,,,,,,,,,,,,,,06,006,2022-09-23_11h44.52.745,test2,2022.2.4,59.92488571391989,
0,0,0,0,59,0,59,0,800.997653548,800.997653548,800.997653548,800.997653548,800.997653548,800.997653548,800.997653548,-1,-1,azul,1,['N_A'],803.4502302419996,803.4502302419996,803.4502302419996,803.4502302419996,805.4855493739997,805.4855493739997,805.4855493739997,805.4855493739997,805.4855493739997,805.4855493739997,805.4855493739997,805.4855493739997,807.5212320929995,807.5212320929995,807.5212320929995,807.5212320929995,,,,,,,,,,,,,,,,,,,,,,,,,,,,,,,,,,,,,,,06,006,2022-09-23_11h44.52.745,test2,2022.2.4,59.92488571391989,
0,0,0,0,60,0,60,0,807.5212320929995,807.5212320929995,807.5212320929995,807.5212320929995,807.5212320929995,807.5212320929995,807.5212320929995,1,1,rojo,1,['N_A'],809.7400353550001,809.7400353550001,809.7400353550001,809.7400353550001,811.7757004659998,811.7757004659998,811.7757004659998,811.7757004659998,811.7757004659998,811.7757004659998,811.7757004659998,811.7757004659998,813.8112080889996,813.8112080889996,813.8112080889996,813.8112080889996,,,,,,,,,,,,,,,,,,,,,,,,,,,,,,,,,,,,,,,06,006,2022-09-23_11h44.52.745,test2,2022.2.4,59.92488571391989,
0,0,0,0,61,0,61,0,813.8112080889996,813.8112080889996,813.8112080889996,813.8112080889996,813.8112080889996,813.8112080889996,813.8112080889996,1,-1,rojo,0,['N_B'],816.264518596,816.264518596,816.264518596,816.264518596,818.2995479410001,818.2995479410001,818.2995479410001,818.2995479410001,818.2995479410001,818.2995479410001,818.2995479410001,818.2995479410001,820.3355661659998,820.3355661659998,820.3355661659998,820.3355661659998,,,,,,,,,,,,,,,,,,,,,,,,,,,,,,,,,,,,,,,06,006,2022-09-23_11h44.52.745,test2,2022.2.4,59.92488571391989,
0,0,0,0,62,0,62,0,820.3355661659998,820.3355661659998,820.3355661659998,820.3355661659998,820.3355661659998,820.3355661659998,820.3355661659998,-1,1,rojo,0,['N_A'],824.8233316529995,824.8233316529995,824.8233316529995,824.8233316529995,826.8592326199996,826.8592326199996,826.8592326199996,826.8592326199996,826.8592326199996,826.8592326199996,826.8592326199996,826.8592326199996,828.8951848850002,828.8951848850002,828.8951848850002,828.8951848850002,,,,,,,,,,,,,,,,,,,,,,,,,,,,,,,,,,,,,,,06,006,2022-09-23_11h44.52.745,test2,2022.2.4,59.92488571391989,
0,0,0,0,63,0,63,0,828.8951848850002,828.8951848850002,828.8951848850002,828.8951848850002,828.8951848850002,828.8951848850002,828.8951848850002,-1,-1,azul,0,['N_B'],830.8970392399997,830.8970392399997,830.8970392399997,830.8970392399997,832.9327823670001,832.9327823670001,832.9327823670001,832.9327823670001,832.9327823670001,832.9327823670001,832.9327823670001,832.9327823670001,834.9674180759994,834.9674180759994,834.9674180759994,834.9674180759994,,,,,,,,,,,,,,,,,,,,,,,,,,,,,,,,,,,,,,,06,006,2022-09-23_11h44.52.745,test2,2022.2.4,59.92488571391989,
0,0,0,0,64,0,64,0,834.9674180759994,834.9674180759994,834.9674180759994,834.9674180759994,834.9674180759994,834.9674180759994,834.9674180759994,-1,1,rojo,1,['N_B'],836.4691880800001,836.4691880800001,836.4691880800001,836.4691880800001,838.5052656110001,838.5052656110001,838.5052656110001,838.5052656110001,838.5052656110001,838.5052656110001,838.5052656110001,838.5052656110001,840.5405548439994,840.5405548439994,840.5405548439994,840.5405548439994,,,,,,,,,,,,,,,,,,,,,,,,,,,,,,,,,,,,,,,06,006,2022-09-23_11h44.52.745,test2,2022.2.4,59.92488571391989,
0,0,0,0,65,0,65,0,840.5405548439994,840.5405548439994,840.5405548439994,840.5405548439994,840.5405548439994,840.5405548439994,840.5405548439994,1,-1,azul,1,['N_B'],841.959164201,841.959164201,841.959164201,841.959164201,843.9947611019998,843.9947611019998,843.9947611019998,843.9947611019998,843.9947611019998,843.9947611019998,843.9947611019998,843.9947611019998,846.0297364019998,846.0297364019998,846.0297364019998,846.0297364019998,,,,,,,,,,,,,,,,,,,,,,,,,,,,,,,,,,,,,,,06,006,2022-09-23_11h44.52.745,test2,2022.2.4,59.92488571391989,
0,0,0,0,66,0,66,0,846.0297364019998,846.0297364019998,846.0297364019998,846.0297364019998,846.0297364019998,846.0297364019998,846.0297364019998,-1,-1,rojo,0,['N_A'],847.5982099109997,847.5982099109997,847.5982099109997,847.5982099109997,849.6349175859996,849.6349175859996,849.6349175859996,849.6349175859996,849.6349175859996,849.6349175859996,849.6349175859996,849.6349175859996,851.6695024849996,851.6695024849996,851.6695024849996,851.6695024849996,,,,,,,,,,,,,,,,,,,,,,,,,,,,,,,,,,,,,,,06,006,2022-09-23_11h44.52.745,test2,2022.2.4,59.92488571391989,
0,0,0,0,67,0,67,0,851.6695024849996,851.6695024849996,851.6695024849996,851.6695024849996,851.6695024849996,851.6695024849996,851.6695024849996,1,-1,rojo,1,['N_A'],853.3886473519997,853.3886473519997,853.3886473519997,853.3886473519997,855.4236061080001,855.4236061080001,855.4236061080001,855.4236061080001,855.4236061080001,855.4236061080001,855.4236061080001,855.4236061080001,857.4599368909994,857.4599368909994,857.4599368909994,857.4599368909994,,,,,,,,,,,,,,,,,,,,,,,,,,,,,,,,,,,,,,,06,006,2022-09-23_11h44.52.745,test2,2022.2.4,59.92488571391989,
0,0,0,0,68,0,68,0,857.4599368909994,857.4599368909994,857.4599368909994,857.4599368909994,857.4599368909994,857.4599368909994,857.4599368909994,1,-1,rojo,1,['N_A'],858.944324518,858.944324518,858.944324518,858.944324518,860.9797764469995,860.9797764469995,860.9797764469995,860.9797764469995,860.9797764469995,860.9797764469995,860.9797764469995,860.9797764469995,863.0161429749996,863.0161429749996,863.0161429749996,863.0161429749996,,,,,,,,,,,,,,,,,,,,,,,,,,,,,,,,,,,,,,,06,006,2022-09-23_11h44.52.745,test2,2022.2.4,59.92488571391989,
0,0,0,0,69,0,69,0,863.0161429749996,863.0161429749996,863.0161429749996,863.0161429749996,863.0161429749996,863.0161429749996,863.0161429749996,1,1,rojo,1,['N_A'],864.8174607139999,864.8174607139999,864.8174607139999,864.8174607139999,866.8528549249995,866.8528549249995,866.8528549249995,866.8528549249995,866.8528549249995,866.8528549249995,866.8528549249995,866.8528549249995,868.8889874509996,868.8889874509996,868.8889874509996,868.8889874509996,,,,,,,,,,,,,,,,,,,,,,,,,,,,,,,,,,,,,,,06,006,2022-09-23_11h44.52.745,test2,2022.2.4,59.92488571391989,
0,0,0,0,70,0,70,0,868.8889874509996,868.8889874509996,868.8889874509996,868.8889874509996,868.8889874509996,868.8889874509996,868.8889874509996,-1,-1,azul,0,['N_B'],870.9915443109994,870.9915443109994,870.9915443109994,870.9915443109994,873.026258459,873.026258459,873.026258459,873.026258459,873.026258459,873.026258459,873.026258459,873.026258459,875.0618832569999,875.0618832569999,875.0618832569999,875.0618832569999,,,,,,,,,,,,,,,,,,,,,,,,,,,,,,,,,,,,,,,06,006,2022-09-23_11h44.52.745,test2,2022.2.4,59.92488571391989,
0,0,0,0,71,0,71,0,875.0618832569999,875.0618832569999,875.0618832569999,875.0618832569999,875.0618832569999,875.0618832569999,875.0618832569999,1,-1,azul,0,['N_A'],877.6149551139997,877.6149551139997,877.6149551139997,877.6149551139997,879.6510971110001,879.6510971110001,879.6510971110001,879.6510971110001,879.6510971110001,879.6510971110001,879.6510971110001,879.6510971110001,881.686658654,881.686658654,881.686658654,881.686658654,,,,,,,,,,,,,,,,,,,,,,,,,,,,,,,,,,,,,,,06,006,2022-09-23_11h44.52.745,test2,2022.2.4,59.92488571391989,
0,0,0,0,72,0,72,0,881.686658654,881.686658654,881.686658654,881.686658654,881.686658654,881.686658654,881.686658654,-1,-1,azul,0,['N_B'],884.1227982849996,884.1227982849996,884.1227982849996,884.1227982849996,886.158057822,886.158057822,886.158057822,886.158057822,886.158057822,886.158057822,886.158057822,886.158057822,888.1933026059996,888.1933026059996,888.1933026059996,888.1933026059996,,,,,,,,,,,,,,,,,,,,,,,,,,,,,,,,,,,,,,,06,006,2022-09-23_11h44.52.745,test2,2022.2.4,59.92488571391989,
0,0,0,0,73,0,73,0,888.1933026059996,888.1933026059996,888.1933026059996,888.1933026059996,888.1933026059996,888.1933026059996,888.1933026059996,1,-1,azul,0,['N_A'],891.3803242879994,891.3803242879994,891.3803242879994,891.3803242879994,893.4165275389996,893.4165275389996,893.4165275389996,893.4165275389996,893.4165275389996,893.4165275389996,893.4165275389996,893.4165275389996,895.451601541,895.451601541,895.451601541,895.451601541,,,,,,,,,,,,,,,,,,,,,,,,,,,,,,,,,,,,,,,06,006,2022-09-23_11h44.52.745,test2,2022.2.4,59.92488571391989,
0,0,0,0,74,0,74,0,895.451601541,895.451601541,895.451601541,895.451601541,895.451601541,895.451601541,895.451601541,-1,-1,azul,1,['N_A'],899.371952343,899.371952343,899.371952343,899.371952343,901.4078508809998,901.4078508809998,901.4078508809998,901.4078508809998,901.4078508809998,901.4078508809998,901.4078508809998,901.4078508809998,903.4441673559995,903.4441673559995,903.4441673559995,903.4441673559995,,,,,,,,,,,,,,,,,,,,,,,,,,,,,,,,,,,,,,,06,006,2022-09-23_11h44.52.745,test2,2022.2.4,59.92488571391989,
0,0,0,0,75,0,75,0,903.4441673559995,903.4441673559995,903.4441673559995,903.4441673559995,903.4441673559995,903.4441673559995,903.4441673559995,1,-1,rojo,1,['N_A'],905.0957131659998,905.0957131659998,905.0957131659998,905.0957131659998,907.1308433659997,907.1308433659997,907.1308433659997,907.1308433659997,907.1308433659997,907.1308433659997,907.1308433659997,907.1308433659997,909.1663234709995,909.1663234709995,909.1663234709995,909.1663234709995,,,,,,,,,,,,,,,,,,,,,,,,,,,,,,,,,,,,,,,06,006,2022-09-23_11h44.52.745,test2,2022.2.4,59.92488571391989,
0,0,0,0,76,0,76,0,909.1663234709995,909.1663234709995,909.1663234709995,909.1663234709995,909.1663234709995,909.1663234709995,909.1663234709995,-1,-1,azul,0,['N_B'],910.9514222389998,910.9514222389998,910.9514222389998,910.9514222389998,912.987301399,912.987301399,912.987301399,912.987301399,912.987301399,912.987301399,912.987301399,912.987301399,915.0231483050002,915.0231483050002,915.0231483050002,915.0231483050002,,,,,,,,,,,,,,,,,,,,,,,,,,,,,,,,,,,,,,,06,006,2022-09-23_11h44.52.745,test2,2022.2.4,59.92488571391989,
0,0,0,0,77,0,77,0,915.0231483050002,915.0231483050002,915.0231483050002,915.0231483050002,915.0231483050002,915.0231483050002,915.0231483050002,1,-1,azul,0,['N_A'],917.1422126309999,917.1422126309999,917.1422126309999,917.1422126309999,919.1773516309995,919.1773516309995,919.1773516309995,919.1773516309995,919.1773516309995,919.1773516309995,919.1773516309995,919.1773516309995,921.2128057909995,921.2128057909995,921.2128057909995,921.2128057909995,,,,,,,,,,,,,,,,,,,,,,,,,,,,,,,,,,,,,,,06,006,2022-09-23_11h44.52.745,test2,2022.2.4,59.92488571391989,
0,0,0,0,78,0,78,0,921.2128057909995,921.2128057909995,921.2128057909995,921.2128057909995,921.2128057909995,921.2128057909995,921.2128057909995,1,-1,rojo,0,['N_B'],923.3988597379994,923.3988597379994,923.3988597379994,923.3988597379994,925.4343394979996,925.4343394979996,925.4343394979996,925.4343394979996,925.4343394979996,925.4343394979996,925.4343394979996,925.4343394979996,927.4696664819994,927.4696664819994,927.4696664819994,927.4696664819994,,,,,,,,,,,,,,,,,,,,,,,,,,,,,,,,,,,,,,,06,006,2022-09-23_11h44.52.745,test2,2022.2.4,59.92488571391989,
0,0,0,0,79,0,79,0,927.4696664819994,927.4696664819994,927.4696664819994,927.4696664819994,927.4696664819994,927.4696664819994,927.4696664819994,1,-1,azul,0,['N_A'],929.4217482529994,929.4217482529994,929.4217482529994,929.4217482529994,931.4578273090001,931.4578273090001,931.4578273090001,931.4578273090001,931.4578273090001,931.4578273090001,931.4578273090001,931.4578273090001,933.4937567970001,933.4937567970001,933.4937567970001,933.4937567970001,,,,,,,,,,,,,,,,,,,,,,,,,,,,,,,,,,,,,,,06,006,2022-09-23_11h44.52.745,test2,2022.2.4,59.92488571391989,
0,0,0,0,80,0,80,0,933.4937567970001,933.4937567970001,933.4937567970001,933.4937567970001,933.4937567970001,933.4937567970001,933.4937567970001,1,1,rojo,1,['N_A'],937.197730635,937.197730635,937.197730635,937.197730635,939.2326214949999,939.2326214949999,939.2326214949999,939.2326214949999,939.2326214949999,939.2326214949999,939.2326214949999,939.2326214949999,941.2682236929995,941.2682236929995,941.2682236929995,941.2682236929995,,,,,,,,,,,,,,,,,,,,,,,,,,,,,,,,,,,,,,,06,006,2022-09-23_11h44.52.745,test2,2022.2.4,59.92488571391989,
0,0,0,0,81,0,81,0,941.2682236929995,941.2682236929995,941.2682236929995,941.2682236929995,941.2682236929995,941.2682236929995,941.2682236929995,-1,-1,azul,1,['N_A'],947.1916189550002,947.1916189550002,947.1916189550002,947.1916189550002,949.2279363520001,949.2279363520001,949.2279363520001,949.2279363520001,949.2279363520001,949.2279363520001,949.2279363520001,949.2279363520001,951.2628283499998,951.2628283499998,951.2628283499998,951.2628283499998,,,,,,,,,,,,,,,,,,,,,,,,,,,,,,,,,,,,,,,06,006,2022-09-23_11h44.52.745,test2,2022.2.4,59.92488571391989,
0,0,0,0,82,0,82,0,951.2628283499998,951.2628283499998,951.2628283499998,951.2628283499998,951.2628283499998,951.2628283499998,951.2628283499998,1,-1,rojo,0,['N_B'],952.7982778939995,952.7982778939995,952.7982778939995,952.7982778939995,954.8337488979996,954.8337488979996,954.8337488979996,954.8337488979996,954.8337488979996,954.8337488979996,954.8337488979996,954.8337488979996,956.8694045900002,956.8694045900002,956.8694045900002,956.8694045900002,,,,,,,,,,,,,,,,,,,,,,,,,,,,,,,,,,,,,,,06,006,2022-09-23_11h44.52.745,test2,2022.2.4,59.92488571391989,
0,0,0,0,83,0,83,0,956.8694045900002,956.8694045900002,956.8694045900002,956.8694045900002,956.8694045900002,956.8694045900002,956.8694045900002,-1,-1,rojo,0,['N_A'],960.9570113179998,960.9570113179998,960.9570113179998,960.9570113179998,962.9922424790002,962.9922424790002,962.9922424790002,962.9922424790002,962.9922424790002,962.9922424790002,962.9922424790002,962.9922424790002,965.0280186529999,965.0280186529999,965.0280186529999,965.0280186529999,,,,,,,,,,,,,,,,,,,,,,,,,,,,,,,,,,,,,,,06,006,2022-09-23_11h44.52.745,test2,2022.2.4,59.92488571391989,
0,0,0,0,84,0,84,0,965.0280186529999,965.0280186529999,965.0280186529999,965.0280186529999,965.0280186529999,965.0280186529999,965.0280186529999,-1,1,azul,1,['N_A'],967.8480426179995,967.8480426179995,967.8480426179995,967.8480426179995,969.8836055470001,969.8836055470001,969.8836055470001,969.8836055470001,969.8836055470001,969.8836055470001,969.8836055470001,969.8836055470001,971.9188145909993,971.9188145909993,971.9188145909993,971.9188145909993,,,,,,,,,,,,,,,,,,,,,,,,,,,,,,,,,,,,,,,06,006,2022-09-23_11h44.52.745,test2,2022.2.4,59.92488571391989,
0,0,0,0,85,0,85,0,971.9188145909993,971.9188145909993,971.9188145909993,971.9188145909993,971.9188145909993,971.9188145909993,971.9188145909993,1,-1,rojo,0,['N_B'],974.0376383089997,974.0376383089997,974.0376383089997,974.0376383089997,976.0734972979999,976.0734972979999,976.0734972979999,976.0734972979999,976.0734972979999,976.0734972979999,976.0734972979999,976.0734972979999,978.1093502929998,978.1093502929998,978.1093502929998,978.1093502929998,,,,,,,,,,,,,,,,,,,,,,,,,,,,,,,,,,,,,,,06,006,2022-09-23_11h44.52.745,test2,2022.2.4,59.92488571391989,
0,0,0,0,86,0,86,0,978.1093502929998,978.1093502929998,978.1093502929998,978.1093502929998,978.1093502929998,978.1093502929998,978.1093502929998,-1,-1,rojo,0,['N_A'],980.4953014269995,980.4953014269995,980.4953014269995,980.4953014269995,982.531368985,982.531368985,982.531368985,982.531368985,982.531368985,982.531368985,982.531368985,982.531368985,984.5668030659999,984.5668030659999,984.5668030659999,984.5668030659999,,,,,,,,,,,,,,,,,,,,,,,,,,,,,,,,,,,,,,,06,006,2022-09-23_11h44.52.745,test2,2022.2.4,59.92488571391989,
0,0,0,0,87,0,87,0,984.5668030659999,984.5668030659999,984.5668030659999,984.5668030659999,984.5668030659999,984.5668030659999,984.5668030659999,1,-1,rojo,1,['N_A'],986.602126023,986.602126023,986.602126023,986.602126023,988.6370271810001,988.6370271810001,988.6370271810001,988.6370271810001,988.6370271810001,988.6370271810001,988.6370271810001,988.6370271810001,990.6727005909997,990.6727005909997,990.6727005909997,990.6727005909997,,,,,,,,,,,,,,,,,,,,,,,,,,,,,,,,,,,,,,,06,006,2022-09-23_11h44.52.745,test2,2022.2.4,59.92488571391989,
0,0,0,0,88,0,88,0,990.6727005909997,990.6727005909997,990.6727005909997,990.6727005909997,990.6727005909997,990.6727005909997,990.6727005909997,1,1,rojo,1,['N_A'],993.9429677110002,993.9429677110002,993.9429677110002,993.9429677110002,995.9791272570001,995.9791272570001,995.9791272570001,995.9791272570001,995.9791272570001,995.9791272570001,995.9791272570001,995.9791272570001,998.014368096,998.014368096,998.014368096,998.014368096,,,,,,,,,,,,,,,,,,,,,,,,,,,,,,,,,,,,,,,06,006,2022-09-23_11h44.52.745,test2,2022.2.4,59.92488571391989,
0,0,0,0,89,0,89,0,998.014368096,998.014368096,998.014368096,998.014368096,998.014368096,998.014368096,998.014368096,1,-1,rojo,0,['N_B'],999.4997911829996,999.4997911829996,999.4997911829996,999.4997911829996,1001.5352837359997,1001.5352837359997,1001.5352837359997,1001.5352837359997,1001.5352837359997,1001.5352837359997,1001.5352837359997,1001.5352837359997,1003.5708440970002,1003.5708440970002,1003.5708440970002,1003.5708440970002,,,,,,,,,,,,,,,,,,,,,,,,,,,,,,,,,,,,,,,06,006,2022-09-23_11h44.52.745,test2,2022.2.4,59.92488571391989,
0,0,0,0,90,0,90,0,1003.5708440970002,1003.5708440970002,1003.5708440970002,1003.5708440970002,1003.5708440970002,1003.5708440970002,1003.5708440970002,1,1,azul,1,['N_B'],1005.3723082779998,1005.3723082779998,1005.3723082779998,1005.3723082779998,1007.40795437,1007.40795437,1007.40795437,1007.40795437,1007.40795437,1007.40795437,1007.40795437,1007.40795437,1009.4436237639993,1009.4436237639993,1009.4436237639993,1009.4436237639993,,,,,,,,,,,,,,,,,,,,,,,,,,,,,,,,,,,,,,,06,006,2022-09-23_11h44.52.745,test2,2022.2.4,59.92488571391989,
0,0,0,0,91,0,91,0,1009.4436237639993,1009.4436237639993,1009.4436237639993,1009.4436237639993,1009.4436237639993,1009.4436237639993,1009.4436237639993,-1,-1,rojo,1,['N_B'],1010.862309399,1010.862309399,1010.862309399,1010.862309399,1012.8974330969995,1012.8974330969995,1012.8974330969995,1012.8974330969995,1012.8974330969995,1012.8974330969995,1012.8974330969995,1012.8974330969995,1014.9328511719996,1014.9328511719996,1014.9328511719996,1014.9328511719996,,,,,,,,,,,,,,,,,,,,,,,,,,,,,,,,,,,,,,,06,006,2022-09-23_11h44.52.745,test2,2022.2.4,59.92488571391989,
0,0,0,0,92,0,92,0,1014.9328511719996,1014.9328511719996,1014.9328511719996,1014.9328511719996,1014.9328511719996,1014.9328511719996,1014.9328511719996,1,-1,azul,1,['N_B'],1016.6854738000002,1016.6854738000002,1016.6854738000002,1016.6854738000002,1018.7209224759999,1018.7209224759999,1018.7209224759999,1018.7209224759999,1018.7209224759999,1018.7209224759999,1018.7209224759999,1018.7209224759999,1020.7560007069997,1020.7560007069997,1020.7560007069997,1020.7560007069997,,,,,,,,,,,,,,,,,,,,,,,,,,,,,,,,,,,,,,,06,006,2022-09-23_11h44.52.745,test2,2022.2.4,59.92488571391989,
0,0,0,0,93,0,93,0,1020.7560007069997,1020.7560007069997,1020.7560007069997,1020.7560007069997,1020.7560007069997,1020.7560007069997,1020.7560007069997,1,-1,azul,1,['N_B'],1022.5916860520001,1022.5916860520001,1022.5916860520001,1022.5916860520001,1024.6272383649994,1024.6272383649994,1024.6272383649994,1024.6272383649994,1024.6272383649994,1024.6272383649994,1024.6272383649994,1024.6272383649994,1026.6631451049998,1026.6631451049998,1026.6631451049998,1026.6631451049998,,,,,,,,,,,,,,,,,,,,,,,,,,,,,,,,,,,,,,,06,006,2022-09-23_11h44.52.745,test2,2022.2.4,59.92488571391989,
0,0,0,0,94,0,94,0,1026.6631451049998,1026.6631451049998,1026.6631451049998,1026.6631451049998,1026.6631451049998,1026.6631451049998,1026.6631451049998,-1,-1,rojo,1,['N_B'],1028.3148085799994,1028.3148085799994,1028.3148085799994,1028.3148085799994,1030.3505581230002,1030.3505581230002,1030.3505581230002,1030.3505581230002,1030.3505581230002,1030.3505581230002,1030.3505581230002,1030.3505581230002,1032.3859246269994,1032.3859246269994,1032.3859246269994,1032.3859246269994,,,,,,,,,,,,,,,,,,,,,,,,,,,,,,,,,,,,,,,06,006,2022-09-23_11h44.52.745,test2,2022.2.4,59.92488571391989,
0,0,0,0,95,0,95,0,1032.3859246269994,1032.3859246269994,1032.3859246269994,1032.3859246269994,1032.3859246269994,1032.3859246269994,1032.3859246269994,-1,-1,rojo,1,['N_B'],1033.8704722739994,1033.8704722739994,1033.8704722739994,1033.8704722739994,1035.907019663,1035.907019663,1035.907019663,1035.907019663,1035.907019663,1035.907019663,1035.907019663,1035.907019663,1037.941459791,1037.941459791,1037.941459791,1037.941459791,,,,,,,,,,,,,,,,,,,,,,,,,,,,,,,,,,,,,,,06,006,2022-09-23_11h44.52.745,test2,2022.2.4,59.92488571391989,
0,0,0,0,96,0,96,0,1037.941459791,1037.941459791,1037.941459791,1037.941459791,1037.941459791,1037.941459791,1037.941459791,1,-1,azul,1,['N_B'],1039.3932436639998,1039.3932436639998,1039.3932436639998,1039.3932436639998,1041.4298232419997,1041.4298232419997,1041.4298232419997,1041.4298232419997,1041.4298232419997,1041.4298232419997,1041.4298232419997,1041.4298232419997,1043.4644791679993,1043.4644791679993,1043.4644791679993,1043.4644791679993,,,,,,,,,,,,,,,,,,,,,,,,,,,,,,,,,,,,,,,06,006,2022-09-23_11h44.52.745,test2,2022.2.4,59.92488571391989,
0,0,0,0,97,0,97,0,1043.4644791679993,1043.4644791679993,1043.4644791679993,1043.4644791679993,1043.4644791679993,1043.4644791679993,1043.4644791679993,1,-1,azul,1,['N_B'],1045.9668409349997,1045.9668409349997,1045.9668409349997,1045.9668409349997,1048.002889126,1048.002889126,1048.002889126,1048.002889126,1048.002889126,1048.002889126,1048.002889126,1048.002889126,1050.0380211029997,1050.0380211029997,1050.0380211029997,1050.0380211029997,,,,,,,,,,,,,,,,,,,,,,,,,,,,,,,,,,,,,,,06,006,2022-09-23_11h44.52.745,test2,2022.2.4,59.92488571391989,
0,0,0,0,98,0,98,0,1050.0380211029997,1050.0380211029997,1050.0380211029997,1050.0380211029997,1050.0380211029997,1050.0380211029997,1050.0380211029997,1,-1,azul,1,['N_B'],1057.897312905,1057.897312905,1057.897312905,1057.897312905,1059.9333108499995,1059.9333108499995,1059.9333108499995,1059.9333108499995,1059.9333108499995,1059.9333108499995,1059.9333108499995,1059.9333108499995,1061.968983789,1061.968983789,1061.968983789,1061.968983789,,,,,,,,,,,,,,,,,,,,,,,,,,,,,,,,,,,,,,,06,006,2022-09-23_11h44.52.745,test2,2022.2.4,59.92488571391989,
0,0,0,0,99,0,99,0,1061.968983789,1061.968983789,1061.968983789,1061.968983789,1061.968983789,1061.968983789,1061.968983789,1,-1,azul,1,['N_B'],1063.7040288429998,1063.7040288429998,1063.7040288429998,1063.7040288429998,1065.7397997059998,1065.7397997059998,1065.7397997059998,1065.7397997059998,1065.7397997059998,1065.7397997059998,1065.7397997059998,1065.7397997059998,1067.7747998859995,1067.7747998859995,1067.7747998859995,1067.7747998859995,,,,,,,,,,,,,,,,,,,,,,,,,,,,,,,,,,,,,,,06,006,2022-09-23_11h44.52.745,test2,2022.2.4,59.92488571391989,
0,0,0,0,100,0,100,0,1067.7747998859995,1067.7747998859995,1067.7747998859995,1067.7747998859995,1067.7747998859995,1067.7747998859995,1067.7747998859995,1,-1,azul,1,['N_B'],1069.4432909910001,1069.4432909910001,1069.4432909910001,1069.4432909910001,1071.4789289279997,1071.4789289279997,1071.4789289279997,1071.4789289279997,1071.4789289279997,1071.4789289279997,1071.4789289279997,1071.4789289279997,1073.515001615,1073.515001615,1073.515001615,1073.515001615,,,,,,,,,,,,,,,,,,,,,,,,,,,,,,,,,,,,,,,06,006,2022-09-23_11h44.52.745,test2,2022.2.4,59.92488571391989,
0,0,0,0,101,0,101,0,1073.515001615,1073.515001615,1073.515001615,1073.515001615,1073.515001615,1073.515001615,1073.515001615,1,-1,azul,1,['N_B'],1075.1993192769996,1075.1993192769996,1075.1993192769996,1075.1993192769996,1077.234909676,1077.234909676,1077.234909676,1077.234909676,1077.234909676,1077.234909676,1077.234909676,1077.234909676,1079.2705712030001,1079.2705712030001,1079.2705712030001,1079.2705712030001,,,,,,,,,,,,,,,,,,,,,,,,,,,,,,,,,,,,,,,06,006,2022-09-23_11h44.52.745,test2,2022.2.4,59.92488571391989,
0,0,0,0,102,0,102,0,1079.2705712030001,1079.2705712030001,1079.2705712030001,1079.2705712030001,1079.2705712030001,1079.2705712030001,1079.2705712030001,1,-1,azul,1,['N_B'],1081.0560057419998,1081.0560057419998,1081.0560057419998,1081.0560057419998,1083.092462275,1083.092462275,1083.092462275,1083.092462275,1083.092462275,1083.092462275,1083.092462275,1083.092462275,1085.127329416,1085.127329416,1085.127329416,1085.127329416,,,,,,,,,,,,,,,,,,,,,,,,,,,,,,,,,,,,,,,06,006,2022-09-23_11h44.52.745,test2,2022.2.4,59.92488571391989,
0,0,0,0,103,0,103,0,1085.127329416,1085.127329416,1085.127329416,1085.127329416,1085.127329416,1085.127329416,1085.127329416,1,-1,azul,1,['N_B'],1086.8791206449996,1086.8791206449996,1086.8791206449996,1086.8791206449996,1088.9147958469994,1088.9147958469994,1088.9147958469994,1088.9147958469994,1088.9147958469994,1088.9147958469994,1088.9147958469994,1088.9147958469994,1090.949929497,1090.949929497,1090.949929497,1090.949929497,,,,,,,,,,,,,,,,,,,,,,,,,,,,,,,,,,,,,,,06,006,2022-09-23_11h44.52.745,test2,2022.2.4,59.92488571391989,
0,0,0,0,104,0,104,0,1090.949929497,1090.949929497,1090.949929497,1090.949929497,1090.949929497,1090.949929497,1090.949929497,1,-1,azul,0,['N_A'],1092.8696184169994,1092.8696184169994,1092.8696184169994,1092.8696184169994,1094.9050201559994,1094.9050201559994,1094.9050201559994,1094.9050201559994,1094.9050201559994,1094.9050201559994,1094.9050201559994,1094.9050201559994,1096.9403608309995,1096.9403608309995,1096.9403608309995,1096.9403608309995,,,,,,,,,,,,,,,,,,,,,,,,,,,,,,,,,,,,,,,06,006,2022-09-23_11h44.52.745,test2,2022.2.4,59.92488571391989,
0,0,0,0,105,0,105,0,1096.9403608309995,1096.9403608309995,1096.9403608309995,1096.9403608309995,1096.9403608309995,1096.9403608309995,1096.9403608309995,1,-1,rojo,1,['N_A'],1098.6922557119997,1098.6922557119997,1098.6922557119997,1098.6922557119997,1100.7277391500002,1100.7277391500002,1100.7277391500002,1100.7277391500002,1100.7277391500002,1100.7277391500002,1100.7277391500002,1100.7277391500002,1102.7639470169997,1102.7639470169997,1102.7639470169997,1102.7639470169997,,,,,,,,,,,,,,,,,,,,,,,,,,,,,,,,,,,,,,,06,006,2022-09-23_11h44.52.745,test2,2022.2.4,59.92488571391989,
0,0,0,0,106,0,106,0,1102.7639470169997,1102.7639470169997,1102.7639470169997,1102.7639470169997,1102.7639470169997,1102.7639470169997,1102.7639470169997,1,1,rojo,1,['N_A'],1104.415640757,1104.415640757,1104.415640757,1104.415640757,1106.450667471,1106.450667471,1106.450667471,1106.450667471,1106.450667471,1106.450667471,1106.450667471,1106.450667471,1108.4861004599998,1108.4861004599998,1108.4861004599998,1108.4861004599998,,,,,,,,,,,,,,,,,,,,,,,,,,,,,,,,,,,,,,,06,006,2022-09-23_11h44.52.745,test2,2022.2.4,59.92488571391989,
0,0,0,0,107,0,107,0,1108.4861004599998,1108.4861004599998,1108.4861004599998,1108.4861004599998,1108.4861004599998,1108.4861004599998,1108.4861004599998,-1,-1,azul,1,['N_A'],1109.9215214509995,1109.9215214509995,1109.9215214509995,1109.9215214509995,1111.9569687209996,1111.9569687209996,1111.9569687209996,1111.9569687209996,1111.9569687209996,1111.9569687209996,1111.9569687209996,1111.9569687209996,1113.993021153,1113.993021153,1113.993021153,1113.993021153,,,,,,,,,,,,,,,,,,,,,,,,,,,,,,,,,,,,,,,06,006,2022-09-23_11h44.52.745,test2,2022.2.4,59.92488571391989,
0,0,0,0,108,0,108,0,1113.993021153,1113.993021153,1113.993021153,1113.993021153,1113.993021153,1113.993021153,1113.993021153,1,-1,rojo,1,['N_A'],1115.677471946,1115.677471946,1115.677471946,1115.677471946,1117.7137108179995,1117.7137108179995,1117.7137108179995,1117.7137108179995,1117.7137108179995,1117.7137108179995,1117.7137108179995,1117.7137108179995,1119.7490600889996,1119.7490600889996,1119.7490600889996,1119.7490600889996,,,,,,,,,,,,,,,,,,,,,,,,,,,,,,,,,,,,,,,06,006,2022-09-23_11h44.52.745,test2,2022.2.4,59.92488571391989,
0,0,0,0,109,0,109,0,1119.7490600889996,1119.7490600889996,1119.7490600889996,1119.7490600889996,1119.7490600889996,1119.7490600889996,1119.7490600889996,1,-1,rojo,0,['N_B'],1130.9616747700002,1130.9616747700002,1130.9616747700002,1130.9616747700002,1132.996992022,1132.996992022,1132.996992022,1132.996992022,1132.996992022,1132.996992022,1132.996992022,1132.996992022,1135.0324666199995,1135.0324666199995,1135.0324666199995,1135.0324666199995,,,,,,,,,,,,,,,,,,,,,,,,,,,,,,,,,,,,,,,06,006,2022-09-23_11h44.52.745,test2,2022.2.4,59.92488571391989,
0,0,0,0,110,0,110,0,1135.0324666199995,1135.0324666199995,1135.0324666199995,1135.0324666199995,1135.0324666199995,1135.0324666199995,1135.0324666199995,1,-1,azul,0,['N_A'],1137.752296603,1137.752296603,1137.752296603,1137.752296603,1139.787971369,1139.787971369,1139.787971369,1139.787971369,1139.787971369,1139.787971369,1139.787971369,1139.787971369,1141.8230244919996,1141.8230244919996,1141.8230244919996,1141.8230244919996,,,,,,,,,,,,,,,,,,,,,,,,,,,,,,,,,,,,,,,06,006,2022-09-23_11h44.52.745,test2,2022.2.4,59.92488571391989,
0,0,0,0,111,0,111,0,1141.8230244919996,1141.8230244919996,1141.8230244919996,1141.8230244919996,1141.8230244919996,1141.8230244919996,1141.8230244919996,1,-1,rojo,1,['N_A'],1144.977167612,1144.977167612,1144.977167612,1144.977167612,1147.012322652,1147.012322652,1147.012322652,1147.012322652,1147.012322652,1147.012322652,1147.012322652,1147.012322652,1149.0480467179996,1149.0480467179996,1149.0480467179996,1149.0480467179996,,,,,,,,,,,,,,,,,,,,,,,,,,,,,,,,,,,,,,,06,006,2022-09-23_11h44.52.745,test2,2022.2.4,59.92488571391989,
0,0,0,0,112,0,112,0,1149.0480467179996,1149.0480467179996,1149.0480467179996,1149.0480467179996,1149.0480467179996,1149.0480467179996,1149.0480467179996,-1,-1,azul,1,['N_A'],1150.933080115,1150.933080115,1150.933080115,1150.933080115,1152.9687340689998,1152.9687340689998,1152.9687340689998,1152.9687340689998,1152.9687340689998,1152.9687340689998,1152.9687340689998,1152.9687340689998,1155.0043283859995,1155.0043283859995,1155.0043283859995,1155.0043283859995,,,,,,,,,,,,,,,,,,,,,,,,,,,,,,,,,,,,,,,06,006,2022-09-23_11h44.52.745,test2,2022.2.4,59.92488571391989,
0,0,0,0,113,0,113,0,1155.0043283859995,1155.0043283859995,1155.0043283859995,1155.0043283859995,1155.0043283859995,1155.0043283859995,1155.0043283859995,-1,-1,azul,0,['N_B'],1156.6228965769997,1156.6228965769997,1156.6228965769997,1156.6228965769997,1158.659035005,1158.659035005,1158.659035005,1158.659035005,1158.659035005,1158.659035005,1158.659035005,1158.659035005,1160.693637894,1160.693637894,1160.693637894,1160.693637894,,,,,,,,,,,,,,,,,,,,,,,,,,,,,,,,,,,,,,,06,006,2022-09-23_11h44.52.745,test2,2022.2.4,59.92488571391989,
0,0,0,0,114,0,114,0,1160.693637894,1160.693637894,1160.693637894,1160.693637894,1160.693637894,1160.693637894,1160.693637894,-1,-1,rojo,0,['N_A'],1162.512937853,1162.512937853,1162.512937853,1162.512937853,1164.548419236,1164.548419236,1164.548419236,1164.548419236,1164.548419236,1164.548419236,1164.548419236,1164.548419236,1166.5839257469997,1166.5839257469997,1166.5839257469997,1166.5839257469997,,,,,,,,,,,,,,,,,,,,,,,,,,,,,,,,,,,,,,,06,006,2022-09-23_11h44.52.745,test2,2022.2.4,59.92488571391989,
0,0,0,0,115,0,115,0,1166.5839257469997,1166.5839257469997,1166.5839257469997,1166.5839257469997,1166.5839257469997,1166.5839257469997,1166.5839257469997,1,1,rojo,1,['N_A'],1169.003733568,1169.003733568,1169.003733568,1169.003733568,1171.038752298,1171.038752298,1171.038752298,1171.038752298,1171.038752298,1171.038752298,1171.038752298,1171.038752298,1173.0739466349996,1173.0739466349996,1173.0739466349996,1173.0739466349996,,,,,,,,,,,,,,,,,,,,,,,,,,,,,,,,,,,,,,,06,006,2022-09-23_11h44.52.745,test2,2022.2.4,59.92488571391989,
0,0,0,0,116,0,116,0,1173.0739466349996,1173.0739466349996,1173.0739466349996,1173.0739466349996,1173.0739466349996,1173.0739466349996,1173.0739466349996,1,-1,rojo,0,['N_B'],1175.827578546,1175.827578546,1175.827578546,1175.827578546,1177.8621183219993,1177.8621183219993,1177.8621183219993,1177.8621183219993,1177.8621183219993,1177.8621183219993,1177.8621183219993,1177.8621183219993,1179.8991675359994,1179.8991675359994,1179.8991675359994,1179.8991675359994,,,,,,,,,,,,,,,,,,,,,,,,,,,,,,,,,,,,,,,06,006,2022-09-23_11h44.52.745,test2,2022.2.4,59.92488571391989,
0,0,0,0,117,0,117,0,1179.8991675359994,1179.8991675359994,1179.8991675359994,1179.8991675359994,1179.8991675359994,1179.8991675359994,1179.8991675359994,1,-1,azul,0,['N_A'],1181.8837292930002,1181.8837292930002,1181.8837292930002,1181.8837292930002,1183.9196674169998,1183.9196674169998,1183.9196674169998,1183.9196674169998,1183.9196674169998,1183.9196674169998,1183.9196674169998,1183.9196674169998,1185.9546355109997,1185.9546355109997,1185.9546355109997,1185.9546355109997,,,,,,,,,,,,,,,,,,,,,,,,,,,,,,,,,,,,,,,06,006,2022-09-23_11h44.52.745,test2,2022.2.4,59.92488571391989,
0,0,0,0,118,0,118,0,1185.9546355109997,1185.9546355109997,1185.9546355109997,1185.9546355109997,1185.9546355109997,1185.9546355109997,1185.9546355109997,1,1,rojo,1,['N_A'],1187.4398115059994,1187.4398115059994,1187.4398115059994,1187.4398115059994,1189.4755070699994,1189.4755070699994,1189.4755070699994,1189.4755070699994,1189.4755070699994,1189.4755070699994,1189.4755070699994,1189.4755070699994,1191.5109951469994,1191.5109951469994,1191.5109951469994,1191.5109951469994,,,,,,,,,,,,,,,,,,,,,,,,,,,,,,,,,,,,,,,06,006,2022-09-23_11h44.52.745,test2,2022.2.4,59.92488571391989,
0,0,0,0,119,0,119,0,1191.5109951469994,1191.5109951469994,1191.5109951469994,1191.5109951469994,1191.5109951469994,1191.5109951469994,1191.5109951469994,1,-1,rojo,1,['N_A'],1192.9960256739996,1192.9960256739996,1192.9960256739996,1192.9960256739996,1195.0323228959996,1195.0323228959996,1195.0323228959996,1195.0323228959996,1195.0323228959996,1195.0323228959996,1195.0323228959996,1195.0323228959996,1197.066966837,1197.066966837,1197.066966837,1197.066966837,,,,,,,,,,,,,,,,,,,,,,,,,,,,,,,,,,,,,,,06,006,2022-09-23_11h44.52.745,test2,2022.2.4,59.92488571391989,
0,0,0,0,120,0,120,0,1197.066966837,1197.066966837,1197.066966837,1197.066966837,1197.066966837,1197.066966837,1197.066966837,1,-1,rojo,1,['N_A'],1199.0525081059996,1199.0525081059996,1199.0525081059996,1199.0525081059996,1201.0890093809994,1201.0890093809994,1201.0890093809994,1201.0890093809994,1201.0890093809994,1201.0890093809994,1201.0890093809994,1201.0890093809994,1203.1237785269996,1203.1237785269996,1203.1237785269996,1203.1237785269996,,,,,,,,,,,,,,,,,,,,,,,,,,,,,,,,,,,,,,,06,006,2022-09-23_11h44.52.745,test2,2022.2.4,59.92488571391989,
0,0,0,0,121,0,121,0,1203.1237785269996,1203.1237785269996,1203.1237785269996,1203.1237785269996,1203.1237785269996,1203.1237785269996,1203.1237785269996,-1,-1,azul,0,['N_B'],1205.6106467979998,1205.6106467979998,1205.6106467979998,1205.6106467979998,1207.64566767,1207.64566767,1207.64566767,1207.64566767,1207.64566767,1207.64566767,1207.64566767,1207.64566767,1209.6813353849993,1209.6813353849993,1209.6813353849993,1209.6813353849993,,,,,,,,,,,,,,,,,,,,,,,,,,,,,,,,,,,,,,,06,006,2022-09-23_11h44.52.745,test2,2022.2.4,59.92488571391989,
0,0,0,0,122,0,122,0,1209.6813353849993,1209.6813353849993,1209.6813353849993,1209.6813353849993,1209.6813353849993,1209.6813353849993,1209.6813353849993,1,-1,azul,0,['N_A'],1211.2666152209995,1211.2666152209995,1211.2666152209995,1211.2666152209995,1213.3024140480002,1213.3024140480002,1213.3024140480002,1213.3024140480002,1213.3024140480002,1213.3024140480002,1213.3024140480002,1213.3024140480002,1215.337032765,1215.337032765,1215.337032765,1215.337032765,,,,,,,,,,,,,,,,,,,,,,,,,,,,,,,,,,,,,,,06,006,2022-09-23_11h44.52.745,test2,2022.2.4,59.92488571391989,
0,0,0,0,123,0,123,0,1215.337032765,1215.337032765,1215.337032765,1215.337032765,1215.337032765,1215.337032765,1215.337032765,1,-1,rojo,1,['N_A'],1216.922586691,1216.922586691,1216.922586691,1216.922586691,1218.95847391,1218.95847391,1218.95847391,1218.95847391,1218.95847391,1218.95847391,1218.95847391,1218.95847391,1220.993514891,1220.993514891,1220.993514891,1220.993514891,,,,,,,,,,,,,,,,,,,,,,,,,,,,,,,,,,,,,,,06,006,2022-09-23_11h44.52.745,test2,2022.2.4,59.92488571391989,
0,0,0,0,124,0,124,0,1220.993514891,1220.993514891,1220.993514891,1220.993514891,1220.993514891,1220.993514891,1220.993514891,-1,-1,azul,1,['N_A'],1222.5788296599994,1222.5788296599994,1222.5788296599994,1222.5788296599994,1224.6149593549999,1224.6149593549999,1224.6149593549999,1224.6149593549999,1224.6149593549999,1224.6149593549999,1224.6149593549999,1224.6149593549999,1226.6500108310001,1226.6500108310001,1226.6500108310001,1226.6500108310001,,,,,,,,,,,,,,,,,,,,,,,,,,,,,,,,,,,,,,,06,006,2022-09-23_11h44.52.745,test2,2022.2.4,59.92488571391989,
0,0,0,0,125,0,125,0,1226.6500108310001,1226.6500108310001,1226.6500108310001,1226.6500108310001,1226.6500108310001,1226.6500108310001,1226.6500108310001,-1,-1,azul,1,['N_A'],1228.435527515,1228.435527515,1228.435527515,1228.435527515,1230.4704401259996,1230.4704401259996,1230.4704401259996,1230.4704401259996,1230.4704401259996,1230.4704401259996,1230.4704401259996,1230.4704401259996,1232.506157576,1232.506157576,1232.506157576,1232.506157576,,,,,,,,,,,,,,,,,,,,,,,,,,,,,,,,,,,,,,,06,006,2022-09-23_11h44.52.745,test2,2022.2.4,59.92488571391989,
0,0,0,0,126,0,126,0,1232.506157576,1232.506157576,1232.506157576,1232.506157576,1232.506157576,1232.506157576,1232.506157576,1,-1,rojo,1,['N_A'],1234.8927683679995,1234.8927683679995,1234.8927683679995,1234.8927683679995,1236.928650406,1236.928650406,1236.928650406,1236.928650406,1236.928650406,1236.928650406,1236.928650406,1236.928650406,1238.9634550689998,1238.9634550689998,1238.9634550689998,1238.9634550689998,,,,,,,,,,,,,,,,,,,,,,,,,,,,,,,,,,,,,,,06,006,2022-09-23_11h44.52.745,test2,2022.2.4,59.92488571391989,
0,0,0,0,127,0,127,0,1238.9634550689998,1238.9634550689998,1238.9634550689998,1238.9634550689998,1238.9634550689998,1238.9634550689998,1238.9634550689998,-1,-1,azul,0,['N_B'],1240.5153058199994,1240.5153058199994,1240.5153058199994,1240.5153058199994,1242.5515029990001,1242.5515029990001,1242.5515029990001,1242.5515029990001,1242.5515029990001,1242.5515029990001,1242.5515029990001,1242.5515029990001,1244.5861026339999,1244.5861026339999,1244.5861026339999,1244.5861026339999,,,,,,,,,,,,,,,,,,,,,,,,,,,,,,,,,,,,,,,06,006,2022-09-23_11h44.52.745,test2,2022.2.4,59.92488571391989,
0,0,0,0,128,0,128,0,1244.5861026339999,1244.5861026339999,1244.5861026339999,1244.5861026339999,1244.5861026339999,1244.5861026339999,1244.5861026339999,-1,-1,rojo,0,['N_A'],1246.4386387369996,1246.4386387369996,1246.4386387369996,1246.4386387369996,1248.474472076,1248.474472076,1248.474472076,1248.474472076,1248.474472076,1248.474472076,1248.474472076,1248.474472076,1250.5095684059997,1250.5095684059997,1250.5095684059997,1250.5095684059997,,,,,,,,,,,,,,,,,,,,,,,,,,,,,,,,,,,,,,,06,006,2022-09-23_11h44.52.745,test2,2022.2.4,59.92488571391989,
0,0,0,0,129,0,129,0,1250.5095684059997,1250.5095684059997,1250.5095684059997,1250.5095684059997,1250.5095684059997,1250.5095684059997,1250.5095684059997,1,-1,rojo,0,['N_B'],1251.9611568609998,1251.9611568609998,1251.9611568609998,1251.9611568609998,1253.9969800109993,1253.9969800109993,1253.9969800109993,1253.9969800109993,1253.9969800109993,1253.9969800109993,1253.9969800109993,1253.9969800109993,1256.0325474539995,1256.0325474539995,1256.0325474539995,1256.0325474539995,,,,,,,,,,,,,,,,,,,,,,,,,,,,,,,,,,,,,,,06,006,2022-09-23_11h44.52.745,test2,2022.2.4,59.92488571391989,
0,0,0,0,130,0,130,0,1256.0325474539995,1256.0325474539995,1256.0325474539995,1256.0325474539995,1256.0325474539995,1256.0325474539995,1256.0325474539995,-1,1,rojo,1,['N_B'],1257.9344158039994,1257.9344158039994,1257.9344158039994,1257.9344158039994,1259.9704615179999,1259.9704615179999,1259.9704615179999,1259.9704615179999,1259.9704615179999,1259.9704615179999,1259.9704615179999,1259.9704615179999,1262.0053231129996,1262.0053231129996,1262.0053231129996,1262.0053231129996,,,,,,,,,,,,,,,,,,,,,,,,,,,,,,,,,,,,,,,06,006,2022-09-23_11h44.52.745,test2,2022.2.4,59.92488571391989,
0,0,0,0,131,0,131,0,1262.0053231129996,1262.0053231129996,1262.0053231129996,1262.0053231129996,1262.0053231129996,1262.0053231129996,1262.0053231129996,-1,-1,rojo,0,['N_A'],1265.159443859,1265.159443859,1265.159443859,1265.159443859,1267.1946404479995,1267.1946404479995,1267.1946404479995,1267.1946404479995,1267.1946404479995,1267.1946404479995,1267.1946404479995,1267.1946404479995,1269.2303472819995,1269.2303472819995,1269.2303472819995,1269.2303472819995,,,,,,,,,,,,,,,,,,,,,,,,,,,,,,,,,,,,,,,06,006,2022-09-23_11h44.52.745,test2,2022.2.4,59.92488571391989,
0,0,0,0,132,0,132,0,1269.2303472819995,1269.2303472819995,1269.2303472819995,1269.2303472819995,1269.2303472819995,1269.2303472819995,1269.2303472819995,1,-1,rojo,1,['N_A'],1271.2489099449995,1271.2489099449995,1271.2489099449995,1271.2489099449995,1273.2844409179997,1273.2844409179997,1273.2844409179997,1273.2844409179997,1273.2844409179997,1273.2844409179997,1273.2844409179997,1273.2844409179997,1275.3201757289999,1275.3201757289999,1275.3201757289999,1275.3201757289999,,,,,,,,,,,,,,,,,,,,,,,,,,,,,,,,,,,,,,,06,006,2022-09-23_11h44.52.745,test2,2022.2.4,59.92488571391989,
0,0,0,0,133,0,133,0,1275.3201757289999,1275.3201757289999,1275.3201757289999,1275.3201757289999,1275.3201757289999,1275.3201757289999,1275.3201757289999,-1,-1,azul,0,['N_B'],1277.6728403039997,1277.6728403039997,1277.6728403039997,1277.6728403039997,1279.7089012469996,1279.7089012469996,1279.7089012469996,1279.7089012469996,1279.7089012469996,1279.7089012469996,1279.7089012469996,1279.7089012469996,1281.7439254249994,1281.7439254249994,1281.7439254249994,1281.7439254249994,,,,,,,,,,,,,,,,,,,,,,,,,,,,,,,,,,,,,,,06,006,2022-09-23_11h44.52.745,test2,2022.2.4,59.92488571391989,
0,0,0,0,134,0,134,0,1281.7439254249994,1281.7439254249994,1281.7439254249994,1281.7439254249994,1281.7439254249994,1281.7439254249994,1281.7439254249994,1,-1,azul,1,['N_B'],1286.4994332810002,1286.4994332810002,1286.4994332810002,1286.4994332810002,1288.5350927439995,1288.5350927439995,1288.5350927439995,1288.5350927439995,1288.5350927439995,1288.5350927439995,1288.5350927439995,1288.5350927439995,1290.5707089039997,1290.5707089039997,1290.5707089039997,1290.5707089039997,,,,,,,,,,,,,,,,,,,,,,,,,,,,,,,,,,,,,,,06,006,2022-09-23_11h44.52.745,test2,2022.2.4,59.92488571391989,
0,0,0,0,135,0,135,0,1290.5707089039997,1290.5707089039997,1290.5707089039997,1290.5707089039997,1290.5707089039997,1290.5707089039997,1290.5707089039997,-1,-1,rojo,1,['N_B'],1292.6227827789999,1292.6227827789999,1292.6227827789999,1292.6227827789999,1294.6580475909996,1294.6580475909996,1294.6580475909996,1294.6580475909996,1294.6580475909996,1294.6580475909996,1294.6580475909996,1294.6580475909996,1296.694057969,1296.694057969,1296.694057969,1296.694057969,,,,,,,,,,,,,,,,,,,,,,,,,,,,,,,,,,,,,,,06,006,2022-09-23_11h44.52.745,test2,2022.2.4,59.92488571391989,
0,0,0,0,136,0,136,0,1296.694057969,1296.694057969,1296.694057969,1296.694057969,1296.694057969,1296.694057969,1296.694057969,-1,1,rojo,1,['N_B'],1298.2791538769998,1298.2791538769998,1298.2791538769998,1298.2791538769998,1300.3152471169997,1300.3152471169997,1300.3152471169997,1300.3152471169997,1300.3152471169997,1300.3152471169997,1300.3152471169997,1300.3152471169997,1302.3503147789997,1302.3503147789997,1302.3503147789997,1302.3503147789997,,,,,,,,,,,,,,,,,,,,,,,,,,,,,,,,,,,,,,,06,006,2022-09-23_11h44.52.745,test2,2022.2.4,59.92488571391989,
0,0,0,0,137,0,137,0,1302.3503147789997,1302.3503147789997,1302.3503147789997,1302.3503147789997,1302.3503147789997,1302.3503147789997,1302.3503147789997,-1,-1,rojo,0,['N_A'],1304.702354221,1304.702354221,1304.702354221,1304.702354221,1306.7386736919998,1306.7386736919998,1306.7386736919998,1306.7386736919998,1306.7386736919998,1306.7386736919998,1306.7386736919998,1306.7386736919998,1308.773534172,1308.773534172,1308.773534172,1308.773534172,,,,,,,,,,,,,,,,,,,,,,,,,,,,,,,,,,,,,,,06,006,2022-09-23_11h44.52.745,test2,2022.2.4,59.92488571391989,
0,0,0,0,138,0,138,0,1308.773534172,1308.773534172,1308.773534172,1308.773534172,1308.773534172,1308.773534172,1308.773534172,1,-1,rojo,1,['N_A'],1310.8930644819993,1310.8930644819993,1310.8930644819993,1310.8930644819993,1312.9284698699994,1312.9284698699994,1312.9284698699994,1312.9284698699994,1312.9284698699994,1312.9284698699994,1312.9284698699994,1312.9284698699994,1314.9647201959997,1314.9647201959997,1314.9647201959997,1314.9647201959997,,,,,,,,,,,,,,,,,,,,,,,,,,,,,,,,,,,,,,,06,006,2022-09-23_11h44.52.745,test2,2022.2.4,59.92488571391989,
0,0,0,0,139,0,139,0,1314.9647201959997,1314.9647201959997,1314.9647201959997,1314.9647201959997,1314.9647201959997,1314.9647201959997,1314.9647201959997,-1,-1,azul,1,['N_A'],1316.4324086649995,1316.4324086649995,1316.4324086649995,1316.4324086649995,1318.4678704379994,1318.4678704379994,1318.4678704379994,1318.4678704379994,1318.4678704379994,1318.4678704379994,1318.4678704379994,1318.4678704379994,1320.5033487659994,1320.5033487659994,1320.5033487659994,1320.5033487659994,,,,,,,,,,,,,,,,,,,,,,,,,,,,,,,,,,,,,,,06,006,2022-09-23_11h44.52.745,test2,2022.2.4,59.92488571391989,
0,0,0,0,140,0,140,0,1320.5033487659994,1320.5033487659994,1320.5033487659994,1320.5033487659994,1320.5033487659994,1320.5033487659994,1320.5033487659994,1,-1,rojo,1,['N_A'],1322.1219202619995,1322.1219202619995,1322.1219202619995,1322.1219202619995,1324.1574904439994,1324.1574904439994,1324.1574904439994,1324.1574904439994,1324.1574904439994,1324.1574904439994,1324.1574904439994,1324.1574904439994,1326.1936972189997,1326.1936972189997,1326.1936972189997,1326.1936972189997,,,,,,,,,,,,,,,,,,,,,,,,,,,,,,,,,,,,,,,06,006,2022-09-23_11h44.52.745,test2,2022.2.4,59.92488571391989,
0,0,0,0,141,0,141,0,1326.1936972189997,1326.1936972189997,1326.1936972189997,1326.1936972189997,1326.1936972189997,1326.1936972189997,1326.1936972189997,-1,-1,azul,1,['N_A'],1327.844703009,1327.844703009,1327.844703009,1327.844703009,1329.8813139099993,1329.8813139099993,1329.8813139099993,1329.8813139099993,1329.8813139099993,1329.8813139099993,1329.8813139099993,1329.8813139099993,1331.9156257959994,1331.9156257959994,1331.9156257959994,1331.9156257959994,,,,,,,,,,,,,,,,,,,,,,,,,,,,,,,,,,,,,,,06,006,2022-09-23_11h44.52.745,test2,2022.2.4,59.92488571391989,
0,0,0,0,142,0,142,0,1331.9156257959994,1331.9156257959994,1331.9156257959994,1331.9156257959994,1331.9156257959994,1331.9156257959994,1331.9156257959994,-1,-1,azul,1,['N_A'],1333.5349443730001,1333.5349443730001,1333.5349443730001,1333.5349443730001,1335.5700577369998,1335.5700577369998,1335.5700577369998,1335.5700577369998,1335.5700577369998,1335.5700577369998,1335.5700577369998,1335.5700577369998,1337.6053962360002,1337.6053962360002,1337.6053962360002,1337.6053962360002,,,,,,,,,,,,,,,,,,,,,,,,,,,,,,,,,,,,,,,06,006,2022-09-23_11h44.52.745,test2,2022.2.4,59.92488571391989,
0,0,0,0,143,0,143,0,1337.6053962360002,1337.6053962360002,1337.6053962360002,1337.6053962360002,1337.6053962360002,1337.6053962360002,1337.6053962360002,-1,-1,azul,0,['N_B'],1339.1579787209994,1339.1579787209994,1339.1579787209994,1339.1579787209994,1341.1940421589998,1341.1940421589998,1341.1940421589998,1341.1940421589998,1341.1940421589998,1341.1940421589998,1341.1940421589998,1341.1940421589998,1343.2285965319998,1343.2285965319998,1343.2285965319998,1343.2285965319998,,,,,,,,,,,,,,,,,,,,,,,,,,,,,,,,,,,,,,,06,006,2022-09-23_11h44.52.745,test2,2022.2.4,59.92488571391989,
0,0,0,0,144,0,144,0,1343.2285965319998,1343.2285965319998,1343.2285965319998,1343.2285965319998,1343.2285965319998,1343.2285965319998,1343.2285965319998,1,-1,azul,1,['N_B'],1346.5654288649994,1346.5654288649994,1346.5654288649994,1346.5654288649994,1348.6020458379999,1348.6020458379999,1348.6020458379999,1348.6020458379999,1348.6020458379999,1348.6020458379999,1348.6020458379999,1348.6020458379999,1350.637842438,1350.637842438,1350.637842438,1350.637842438,,,,,,,,,,,,,,,,,,,,,,,,,,,,,,,,,,,,,,,06,006,2022-09-23_11h44.52.745,test2,2022.2.4,59.92488571391989,
0,0,0,0,145,0,145,0,1350.637842438,1350.637842438,1350.637842438,1350.637842438,1350.637842438,1350.637842438,1350.637842438,-1,-1,rojo,1,['N_B'],1353.5231349099995,1353.5231349099995,1353.5231349099995,1353.5231349099995,1355.559183415,1355.559183415,1355.559183415,1355.559183415,1355.559183415,1355.559183415,1355.559183415,1355.559183415,1357.5946867989996,1357.5946867989996,1357.5946867989996,1357.5946867989996,,,,,,,,,,,,,,,,,,,,,,,,,,,,,,,,,,,,,,,06,006,2022-09-23_11h44.52.745,test2,2022.2.4,59.92488571391989,
0,0,0,0,146,0,146,0,1357.5946867989996,1357.5946867989996,1357.5946867989996,1357.5946867989996,1357.5946867989996,1357.5946867989996,1357.5946867989996,1,-1,azul,1,['N_B'],1360.1802181980001,1360.1802181980001,1360.1802181980001,1360.1802181980001,1362.216858848,1362.216858848,1362.216858848,1362.216858848,1362.216858848,1362.216858848,1362.216858848,1362.216858848,1364.251898947,1364.251898947,1364.251898947,1364.251898947,,,,,,,,,,,,,,,,,,,,,,,,,,,,,,,,,,,,,,,06,006,2022-09-23_11h44.52.745,test2,2022.2.4,59.92488571391989,
0,0,0,0,147,0,147,0,1364.251898947,1364.251898947,1364.251898947,1364.251898947,1364.251898947,1364.251898947,1364.251898947,1,-1,azul,0,['N_A'],1367.1051670769994,1367.1051670769994,1367.1051670769994,1367.1051670769994,1369.1401929939993,1369.1401929939993,1369.1401929939993,1369.1401929939993,1369.1401929939993,1369.1401929939993,1369.1401929939993,1369.1401929939993,1371.1762199989998,1371.1762199989998,1371.1762199989998,1371.1762199989998,,,,,,,,,,,,,,,,,,,,,,,,,,,,,,,,,,,,,,,06,006,2022-09-23_11h44.52.745,test2,2022.2.4,59.92488571391989,
0,0,0,0,148,0,148,0,1371.1762199989998,1371.1762199989998,1371.1762199989998,1371.1762199989998,1371.1762199989998,1371.1762199989998,1371.1762199989998,1,1,rojo,1,['N_A'],1377.8334550640002,1377.8334550640002,1377.8334550640002,1377.8334550640002,1379.8531068559996,1379.8531068559996,1379.8531068559996,1379.8531068559996,1379.8531068559996,1379.8531068559996,1379.8531068559996,1379.8531068559996,1381.887591306,1381.887591306,1381.887591306,1381.887591306,,,,,,,,,,,,,,,,,,,,,,,,,,,,,,,,,,,,,,,06,006,2022-09-23_11h44.52.745,test2,2022.2.4,59.92488571391989,
0,0,0,0,149,0,149,0,1381.887591306,1381.887591306,1381.887591306,1381.887591306,1381.887591306,1381.887591306,1381.887591306,1,1,rojo,1,['N_A'],1384.4579962030002,1384.4579962030002,1384.4579962030002,1384.4579962030002,1386.4932218699996,1386.4932218699996,1386.4932218699996,1386.4932218699996,1386.4932218699996,1386.4932218699996,1386.4932218699996,1386.4932218699996,1388.5282373869995,1388.5282373869995,1388.5282373869995,1388.5282373869995,,,,,,,,,,,,,,,,,,,,,,,,,,,,,,,,,,,,,,,06,006,2022-09-23_11h44.52.745,test2,2022.2.4,59.92488571391989,
0,0,0,0,150,0,150,0,1388.5282373869995,1388.5282373869995,1388.5282373869995,1388.5282373869995,1388.5282373869995,1388.5282373869995,1388.5282373869995,1,-1,rojo,1,['N_A'],1392.4000560449995,1392.4000560449995,1392.4000560449995,1392.4000560449995,1394.4358166389993,1394.4358166389993,1394.4358166389993,1394.4358166389993,1394.4358166389993,1394.4358166389993,1394.4358166389993,1394.4358166389993,1396.4707592519999,1396.4707592519999,1396.4707592519999,1396.4707592519999,,,,,,,,,,,,,,,,,,,,,,,,,,,,,,,,,,,,,,,06,006,2022-09-23_11h44.52.745,test2,2022.2.4,59.92488571391989,
0,0,0,0,151,0,151,0,1396.4707592519999,1396.4707592519999,1396.4707592519999,1396.4707592519999,1396.4707592519999,1396.4707592519999,1396.4707592519999,-1,-1,azul,1,['N_A'],1402.6774042059997,1402.6774042059997,1402.6774042059997,1402.6774042059997,1404.7129195019997,1404.7129195019997,1404.7129195019997,1404.7129195019997,1404.7129195019997,1404.7129195019997,1404.7129195019997,1404.7129195019997,1406.7492107479993,1406.7492107479993,1406.7492107479993,1406.7492107479993,,,,,,,,,,,,,,,,,,,,,,,,,,,,,,,,,,,,,,,06,006,2022-09-23_11h44.52.745,test2,2022.2.4,59.92488571391989,
0,0,0,0,152,0,152,0,1406.7492107479993,1406.7492107479993,1406.7492107479993,1406.7492107479993,1406.7492107479993,1406.7492107479993,1406.7492107479993,1,1,rojo,1,['N_A'],1408.3005869439994,1408.3005869439994,1408.3005869439994,1408.3005869439994,1410.33599546,1410.33599546,1410.33599546,1410.33599546,1410.33599546,1410.33599546,1410.33599546,1410.33599546,1412.3711488769995,1412.3711488769995,1412.3711488769995,1412.3711488769995,,,,,,,,,,,,,,,,,,,,,,,,,,,,,,,,,,,,,,,06,006,2022-09-23_11h44.52.745,test2,2022.2.4,59.92488571391989,
0,0,0,0,153,0,153,0,1412.3711488769995,1412.3711488769995,1412.3711488769995,1412.3711488769995,1412.3711488769995,1412.3711488769995,1412.3711488769995,1,-1,rojo,1,['N_A'],1414.1741013559995,1414.1741013559995,1414.1741013559995,1414.1741013559995,1416.2089683739996,1416.2089683739996,1416.2089683739996,1416.2089683739996,1416.2089683739996,1416.2089683739996,1416.2089683739996,1416.2089683739996,1418.2445932209994,1418.2445932209994,1418.2445932209994,1418.2445932209994,,,,,,,,,,,,,,,,,,,,,,,,,,,,,,,,,,,,,,,06,006,2022-09-23_11h44.52.745,test2,2022.2.4,59.92488571391989,
0,0,0,0,154,0,154,0,1418.2445932209994,1418.2445932209994,1418.2445932209994,1418.2445932209994,1418.2445932209994,1418.2445932209994,1418.2445932209994,1,1,rojo,1,['N_A'],1419.9803252619995,1419.9803252619995,1419.9803252619995,1419.9803252619995,1422.015576666,1422.015576666,1422.015576666,1422.015576666,1422.015576666,1422.015576666,1422.015576666,1422.015576666,1424.051533148,1424.051533148,1424.051533148,1424.051533148,,,,,,,,,,,,,,,,,,,,,,,,,,,,,,,,,,,,,,,06,006,2022-09-23_11h44.52.745,test2,2022.2.4,59.92488571391989,
0,0,0,0,155,0,155,0,1424.051533148,1424.051533148,1424.051533148,1424.051533148,1424.051533148,1424.051533148,1424.051533148,1,-1,rojo,1,['N_A'],1425.5696799899997,1425.5696799899997,1425.5696799899997,1425.5696799899997,1427.6057794299995,1427.6057794299995,1427.6057794299995,1427.6057794299995,1427.6057794299995,1427.6057794299995,1427.6057794299995,1427.6057794299995,1429.6407681199998,1429.6407681199998,1429.6407681199998,1429.6407681199998,,,,,,,,,,,,,,,,,,,,,,,,,,,,,,,,,,,,,,,06,006,2022-09-23_11h44.52.745,test2,2022.2.4,59.92488571391989,
0,0,0,0,156,0,156,0,1429.6407681199998,1429.6407681199998,1429.6407681199998,1429.6407681199998,1429.6407681199998,1429.6407681199998,1429.6407681199998,1,-1,rojo,1,['N_A'],1431.6264869349998,1431.6264869349998,1431.6264869349998,1431.6264869349998,1433.6621375449995,1433.6621375449995,1433.6621375449995,1433.6621375449995,1433.6621375449995,1433.6621375449995,1433.6621375449995,1433.6621375449995,1435.6969790049998,1435.6969790049998,1435.6969790049998,1435.6969790049998,,,,,,,,,,,,,,,,,,,,,,,,,,,,,,,,,,,,,,,06,006,2022-09-23_11h44.52.745,test2,2022.2.4,59.92488571391989,
0,0,0,0,157,0,157,0,1435.6969790049998,1435.6969790049998,1435.6969790049998,1435.6969790049998,1435.6969790049998,1435.6969790049998,1435.6969790049998,1,-1,rojo,1,['N_A'],1437.3154015669998,1437.3154015669998,1437.3154015669998,1437.3154015669998,1439.3513521599998,1439.3513521599998,1439.3513521599998,1439.3513521599998,1439.3513521599998,1439.3513521599998,1439.3513521599998,1439.3513521599998,1441.3875834029996,1441.3875834029996,1441.3875834029996,1441.3875834029996,,,,,,,,,,,,,,,,,,,,,,,,,,,,,,,,,,,,,,,06,006,2022-09-23_11h44.52.745,test2,2022.2.4,59.92488571391989,
0,0,0,0,158,0,158,0,1441.3875834029996,1441.3875834029996,1441.3875834029996,1441.3875834029996,1441.3875834029996,1441.3875834029996,1441.3875834029996,1,1,rojo,0,['N_B'],1443.4057123229995,1443.4057123229995,1443.4057123229995,1443.4057123229995,1445.4417071429998,1445.4417071429998,1445.4417071429998,1445.4417071429998,1445.4417071429998,1445.4417071429998,1445.4417071429998,1445.4417071429998,1447.4774743819999,1447.4774743819999,1447.4774743819999,1447.4774743819999,,,,,,,,,,,,,,,,,,,,,,,,,,,,,,,,,,,,,,,06,006,2022-09-23_11h44.52.745,test2,2022.2.4,59.92488571391989,
0,0,0,0,159,0,159,0,1447.4774743819999,1447.4774743819999,1447.4774743819999,1447.4774743819999,1447.4774743819999,1447.4774743819999,1447.4774743819999,-1,-1,rojo,0,['N_A'],1449.5958555799998,1449.5958555799998,1449.5958555799998,1449.5958555799998,1451.6313004949998,1451.6313004949998,1451.6313004949998,1451.6313004949998,1451.6313004949998,1451.6313004949998,1451.6313004949998,1451.6313004949998,1453.6676694609996,1453.6676694609996,1453.6676694609996,1453.6676694609996,,,,,,,,,,,,,,,,,,,,,,,,,,,,,,,,,,,,,,,06,006,2022-09-23_11h44.52.745,test2,2022.2.4,59.92488571391989,
0,0,0,0,160,0,160,0,1453.6676694609996,1453.6676694609996,1453.6676694609996,1453.6676694609996,1453.6676694609996,1453.6676694609996,1453.6676694609996,1,-1,rojo,1,['N_A'],1455.2356994519996,1455.2356994519996,1455.2356994519996,1455.2356994519996,1457.2713897009999,1457.2713897009999,1457.2713897009999,1457.2713897009999,1457.2713897009999,1457.2713897009999,1457.2713897009999,1457.2713897009999,1459.3065159199996,1459.3065159199996,1459.3065159199996,1459.3065159199996,,,,,,,,,,,,,,,,,,,,,,,,,,,,,,,,,,,,,,,06,006,2022-09-23_11h44.52.745,test2,2022.2.4,59.92488571391989,
0,0,0,0,161,0,161,0,1459.3065159199996,1459.3065159199996,1459.3065159199996,1459.3065159199996,1459.3065159199996,1459.3065159199996,1459.3065159199996,1,-1,rojo,1,['N_A'],1460.92503976,1460.92503976,1460.92503976,1460.92503976,1462.9612008650001,1462.9612008650001,1462.9612008650001,1462.9612008650001,1462.9612008650001,1462.9612008650001,1462.9612008650001,1462.9612008650001,1464.9960877329995,1464.9960877329995,1464.9960877329995,1464.9960877329995,,,,,,,,,,,,,,,,,,,,,,,,,,,,,,,,,,,,,,,06,006,2022-09-23_11h44.52.745,test2,2022.2.4,59.92488571391989,
0,0,0,0,162,0,162,0,1464.9960877329995,1464.9960877329995,1464.9960877329995,1464.9960877329995,1464.9960877329995,1464.9960877329995,1464.9960877329995,1,-1,rojo,1,['N_A'],1466.514791736,1466.514791736,1466.514791736,1466.514791736,1468.550619748,1468.550619748,1468.550619748,1468.550619748,1468.550619748,1468.550619748,1468.550619748,1468.550619748,1470.5857040849996,1470.5857040849996,1470.5857040849996,1470.5857040849996,,,,,,,,,,,,,,,,,,,,,,,,,,,,,,,,,,,,,,,06,006,2022-09-23_11h44.52.745,test2,2022.2.4,59.92488571391989,
0,0,0,0,163,0,163,0,1470.5857040849996,1470.5857040849996,1470.5857040849996,1470.5857040849996,1470.5857040849996,1470.5857040849996,1470.5857040849996,1,-1,rojo,1,['N_A'],1472.1548127830001,1472.1548127830001,1472.1548127830001,1472.1548127830001,1474.1902859869997,1474.1902859869997,1474.1902859869997,1474.1902859869997,1474.1902859869997,1474.1902859869997,1474.1902859869997,1474.1902859869997,1476.225690618,1476.225690618,1476.225690618,1476.225690618,,,,,,,,,,,,,,,,,,,,,,,,,,,,,,,,,,,,,,,06,006,2022-09-23_11h44.52.745,test2,2022.2.4,59.92488571391989,
0,0,0,0,164,0,164,0,1476.225690618,1476.225690618,1476.225690618,1476.225690618,1476.225690618,1476.225690618,1476.225690618,1,-1,rojo,1,['N_A'],1478.2439621599997,1478.2439621599997,1478.2439621599997,1478.2439621599997,1480.279641559,1480.279641559,1480.279641559,1480.279641559,1480.279641559,1480.279641559,1480.279641559,1480.279641559,1482.315611522,1482.315611522,1482.315611522,1482.315611522,,,,,,,,,,,,,,,,,,,,,,,,,,,,,,,,,,,,,,,06,006,2022-09-23_11h44.52.745,test2,2022.2.4,59.92488571391989,
0,0,0,0,165,0,165,0,1482.315611522,1482.315611522,1482.315611522,1482.315611522,1482.315611522,1482.315611522,1482.315611522,-1,-1,azul,0,['N_B'],1484.1511526949998,1484.1511526949998,1484.1511526949998,1484.1511526949998,1486.1861253460002,1486.1861253460002,1486.1861253460002,1486.1861253460002,1486.1861253460002,1486.1861253460002,1486.1861253460002,1486.1861253460002,1488.2222046699999,1488.2222046699999,1488.2222046699999,1488.2222046699999,,,,,,,,,,,,,,,,,,,,,,,,,,,,,,,,,,,,,,,06,006,2022-09-23_11h44.52.745,test2,2022.2.4,59.92488571391989,
0,0,0,0,166,0,166,0,1488.2222046699999,1488.2222046699999,1488.2222046699999,1488.2222046699999,1488.2222046699999,1488.2222046699999,1488.2222046699999,1,-1,azul,1,['N_B'],1490.0407501339996,1490.0407501339996,1490.0407501339996,1490.0407501339996,1492.0769597919998,1492.0769597919998,1492.0769597919998,1492.0769597919998,1492.0769597919998,1492.0769597919998,1492.0769597919998,1492.0769597919998,1494.111749744,1494.111749744,1494.111749744,1494.111749744,,,,,,,,,,,,,,,,,,,,,,,,,,,,,,,,,,,,,,,06,006,2022-09-23_11h44.52.745,test2,2022.2.4,59.92488571391989,
0,0,0,0,167,0,167,0,1494.111749744,1494.111749744,1494.111749744,1494.111749744,1494.111749744,1494.111749744,1494.111749744,-1,-1,rojo,0,['N_A'],1495.8306269389996,1495.8306269389996,1495.8306269389996,1495.8306269389996,1497.8663229610002,1497.8663229610002,1497.8663229610002,1497.8663229610002,1497.8663229610002,1497.8663229610002,1497.8663229610002,1497.8663229610002,1499.9013936789997,1499.9013936789997,1499.9013936789997,1499.9013936789997,,,,,,,,,,,,,,,,,,,,,,,,,,,,,,,,,,,,,,,06,006,2022-09-23_11h44.52.745,test2,2022.2.4,59.92488571391989,
0,0,0,0,168,0,168,0,1499.9013936789997,1499.9013936789997,1499.9013936789997,1499.9013936789997,1499.9013936789997,1499.9013936789997,1499.9013936789997,1,-1,rojo,1,['N_A'],1501.4864507940001,1501.4864507940001,1501.4864507940001,1501.4864507940001,1503.5218668349999,1503.5218668349999,1503.5218668349999,1503.5218668349999,1503.5218668349999,1503.5218668349999,1503.5218668349999,1503.5218668349999,1505.5576426890002,1505.5576426890002,1505.5576426890002,1505.5576426890002,,,,,,,,,,,,,,,,,,,,,,,,,,,,,,,,,,,,,,,06,006,2022-09-23_11h44.52.745,test2,2022.2.4,59.92488571391989,
0,0,0,0,169,0,169,0,1505.5576426890002,1505.5576426890002,1505.5576426890002,1505.5576426890002,1505.5576426890002,1505.5576426890002,1505.5576426890002,1,1,rojo,1,['N_A'],1507.0590653529998,1507.0590653529998,1507.0590653529998,1507.0590653529998,1509.0947776989997,1509.0947776989997,1509.0947776989997,1509.0947776989997,1509.0947776989997,1509.0947776989997,1509.0947776989997,1509.0947776989997,1511.1305559089997,1511.1305559089997,1511.1305559089997,1511.1305559089997,,,,,,,,,,,,,,,,,,,,,,,,,,,,,,,,,,,,,,,06,006,2022-09-23_11h44.52.745,test2,2022.2.4,59.92488571391989,
0,0,0,0,170,0,170,0,1511.1305559089997,1511.1305559089997,1511.1305559089997,1511.1305559089997,1511.1305559089997,1511.1305559089997,1511.1305559089997,-1,-1,azul,1,['N_A'],1513.015691828,1513.015691828,1513.015691828,1513.015691828,1515.0518360810001,1515.0518360810001,1515.0518360810001,1515.0518360810001,1515.0518360810001,1515.0518360810001,1515.0518360810001,1515.0518360810001,1517.0870781949998,1517.0870781949998,1517.0870781949998,1517.0870781949998,,,,,,,,,,,,,,,,,,,,,,,,,,,,,,,,,,,,,,,06,006,2022-09-23_11h44.52.745,test2,2022.2.4,59.92488571391989,
0,0,0,0,171,0,171,0,1517.0870781949998,1517.0870781949998,1517.0870781949998,1517.0870781949998,1517.0870781949998,1517.0870781949998,1517.0870781949998,1,1,rojo,1,['N_A'],1518.738934514,1518.738934514,1518.738934514,1518.738934514,1520.7579439209994,1520.7579439209994,1520.7579439209994,1520.7579439209994,1520.7579439209994,1520.7579439209994,1520.7579439209994,1520.7579439209994,1522.793288541,1522.793288541,1522.793288541,1522.793288541,,,,,,,,,,,,,,,,,,,,,,,,,,,,,,,,,,,,,,,06,006,2022-09-23_11h44.52.745,test2,2022.2.4,59.92488571391989,
0,0,0,0,172,0,172,0,1522.793288541,1522.793288541,1522.793288541,1522.793288541,1522.793288541,1522.793288541,1522.793288541,1,1,rojo,1,['N_A'],1524.9630991309996,1524.9630991309996,1524.9630991309996,1524.9630991309996,1526.998703753,1526.998703753,1526.998703753,1526.998703753,1526.998703753,1526.998703753,1526.998703753,1526.998703753,1529.033630893,1529.033630893,1529.033630893,1529.033630893,,,,,,,,,,,,,,,,,,,,,,,,,,,,,,,,,,,,,,,06,006,2022-09-23_11h44.52.745,test2,2022.2.4,59.92488571391989,
0,0,0,0,173,0,173,0,1529.033630893,1529.033630893,1529.033630893,1529.033630893,1529.033630893,1529.033630893,1529.033630893,-1,-1,azul,1,['N_A'],1530.8194754320002,1530.8194754320002,1530.8194754320002,1530.8194754320002,1532.8547693969995,1532.8547693969995,1532.8547693969995,1532.8547693969995,1532.8547693969995,1532.8547693969995,1532.8547693969995,1532.8547693969995,1534.8899232059994,1534.8899232059994,1534.8899232059994,1534.8899232059994,,,,,,,,,,,,,,,,,,,,,,,,,,,,,,,,,,,,,,,06,006,2022-09-23_11h44.52.745,test2,2022.2.4,59.92488571391989,
0,0,0,0,174,0,174,0,1534.8899232059994,1534.8899232059994,1534.8899232059994,1534.8899232059994,1534.8899232059994,1534.8899232059994,1534.8899232059994,1,-1,rojo,1,['N_A'],1536.5424675180002,1536.5424675180002,1536.5424675180002,1536.5424675180002,1538.5780112490002,1538.5780112490002,1538.5780112490002,1538.5780112490002,1538.5780112490002,1538.5780112490002,1538.5780112490002,1538.5780112490002,1540.6132406669994,1540.6132406669994,1540.6132406669994,1540.6132406669994,,,,,,,,,,,,,,,,,,,,,,,,,,,,,,,,,,,,,,,06,006,2022-09-23_11h44.52.745,test2,2022.2.4,59.92488571391989,
0,0,0,0,175,0,175,0,1540.6132406669994,1540.6132406669994,1540.6132406669994,1540.6132406669994,1540.6132406669994,1540.6132406669994,1540.6132406669994,1,-1,rojo,1,['N_A'],1542.0316278310002,1542.0316278310002,1542.0316278310002,1542.0316278310002,1544.0677872609995,1544.0677872609995,1544.0677872609995,1544.0677872609995,1544.0677872609995,1544.0677872609995,1544.0677872609995,1544.0677872609995,1546.1021140419998,1546.1021140419998,1546.1021140419998,1546.1021140419998,,,,,,,,,,,,,,,,,,,,,,,,,,,,,,,,,,,,,,,06,006,2022-09-23_11h44.52.745,test2,2022.2.4,59.92488571391989,
0,0,0,0,176,0,176,0,1546.1021140419998,1546.1021140419998,1546.1021140419998,1546.1021140419998,1546.1021140419998,1546.1021140419998,1546.1021140419998,1,-1,rojo,1,['N_A'],1547.5538997639997,1547.5538997639997,1547.5538997639997,1547.5538997639997,1549.5897716179998,1549.5897716179998,1549.5897716179998,1549.5897716179998,1549.5897716179998,1549.5897716179998,1549.5897716179998,1549.5897716179998,1551.6260745419995,1551.6260745419995,1551.6260745419995,1551.6260745419995,,,,,,,,,,,,,,,,,,,,,,,,,,,,,,,,,,,,,,,06,006,2022-09-23_11h44.52.745,test2,2022.2.4,59.92488571391989,
0,0,0,0,177,0,177,0,1551.6260745419995,1551.6260745419995,1551.6260745419995,1551.6260745419995,1551.6260745419995,1551.6260745419995,1551.6260745419995,-1,-1,azul,1,['N_A'],1553.1608603269997,1553.1608603269997,1553.1608603269997,1553.1608603269997,1555.1953293420002,1555.1953293420002,1555.1953293420002,1555.1953293420002,1555.1953293420002,1555.1953293420002,1555.1953293420002,1555.1953293420002,1557.2309515529996,1557.2309515529996,1557.2309515529996,1557.2309515529996,,,,,,,,,,,,,,,,,,,,,,,,,,,,,,,,,,,,,,,06,006,2022-09-23_11h44.52.745,test2,2022.2.4,59.92488571391989,
0,0,0,0,178,0,178,0,1557.2309515529996,1557.2309515529996,1557.2309515529996,1557.2309515529996,1557.2309515529996,1557.2309515529996,1557.2309515529996,1,1,rojo,1,['N_A'],1558.950119403,1558.950119403,1558.950119403,1558.950119403,1560.968460825,1560.968460825,1560.968460825,1560.968460825,1560.968460825,1560.968460825,1560.968460825,1560.968460825,1563.0044585659998,1563.0044585659998,1563.0044585659998,1563.0044585659998,,,,,,,,,,,,,,,,,,,,,,,,,,,,,,,,,,,,,,,06,006,2022-09-23_11h44.52.745,test2,2022.2.4,59.92488571391989,
