trials_2.thisRepN,trials_2.thisTrialN,trials_2.thisN,trials_2.thisIndex,trials.thisRepN,trials.thisTrialN,trials.thisN,trials.thisIndex,Instrucción2.started,N_A_4.started,N_B_4.started,Exitos_3.started,Dias_3.started,Stimuli_1.started,Stimuli_2.started,Transitions,Rewards,Mode,Stay,Neighbour,Stimuli_3.started,Modo.started,Dias2.started,Exitos2.started,Stimuli_3.stopped,Modo.stopped,Dias2.stopped,Exitos2.stopped,Reward.started,Stimuli_reward.started,Exitos3.started,Dias3.started,Reward.stopped,Stimuli_reward.stopped,Exitos3.stopped,Dias3.stopped,Cue_text.started,Stimuli_4.started,Exitos4.started,Dias4.started,Stimuli_3_3.started,Stimuli_2_3.started,Instrucción.started,N_A.started,N_B.started,N_C.started,Exitos_2.started,Dias_2.started,Stimuli_1_3.started,Stimuli_3_2.started,Stimuli_2_2.started,Pregunta.started,N_A_2.started,N_B_2.started,N_C_2.started,Exitos5.started,Dias5.started,Stimuli_1_2.started,Resp_final_1,Modo2.started,Modo1.started,Pregunta_4.started,Modo3.started,Exitos7.started,Dias6.started,Resp_final_2,Modo1_2.started,Pregunta_3.started,Modo2_2.started,Exitos8.started,Dias7.started,Resp_final_3,Mensaje_Final2.started,Exitos6.started,participant,session,date,expName,psychopyVersion,frameRate,
0,0,0,0,0,0,0,0,34.955280627999855,34.955280627999855,34.955280627999855,34.955280627999855,34.955280627999855,34.955280627999855,34.955280627999855,0,0,0,0,['N_A'],43.014060999999856,43.014060999999856,43.014060999999856,43.014060999999856,45.049010206000276,45.049010206000276,45.049010206000276,45.049010206000276,45.049010206000276,45.049010206000276,45.049010206000276,45.049010206000276,47.08532412800014,47.08532412800014,47.08532412800014,47.08532412800014,,,,,,,,,,,,,,,,,,,,,,,,,,,,,,,,,,,,,,,06,010,2022-09-26_10h40.58.936,test2,2022.2.4,59.952487294108984,
0,0,0,0,1,0,1,0,47.08532412800014,47.08532412800014,47.08532412800014,47.08532412800014,47.08532412800014,47.08532412800014,47.08532412800014,1,1,rojo,1,['N_A'],53.54184328100018,53.54184328100018,53.54184328100018,53.54184328100018,55.577607575,55.577607575,55.577607575,55.577607575,55.577607575,55.577607575,55.577607575,55.577607575,57.61347014799958,57.61347014799958,57.61347014799958,57.61347014799958,,,,,,,,,,,,,,,,,,,,,,,,,,,,,,,,,,,,,,,06,010,2022-09-26_10h40.58.936,test2,2022.2.4,59.952487294108984,
0,0,0,0,2,0,2,0,57.61347014799958,57.61347014799958,57.61347014799958,57.61347014799958,57.61347014799958,57.61347014799958,57.61347014799958,1,-1,rojo,0,['N_B'],62.86869018299967,62.86869018299967,62.86869018299967,62.86869018299967,64.90480713600027,64.90480713600027,64.90480713600027,64.90480713600027,64.90480713600027,64.90480713600027,64.90480713600027,64.90480713600027,66.94051345600019,66.94051345600019,66.94051345600019,66.94051345600019,,,,,,,,,,,,,,,,,,,,,,,,,,,,,,,,,,,,,,,06,010,2022-09-26_10h40.58.936,test2,2022.2.4,59.952487294108984,
0,0,0,0,3,0,3,0,66.94051345600019,66.94051345600019,66.94051345600019,66.94051345600019,66.94051345600019,66.94051345600019,66.94051345600019,-1,-1,rojo,0,['N_A'],70.62672967900016,70.62672967900016,70.62672967900016,70.62672967900016,72.66353127299953,72.66353127299953,72.66353127299953,72.66353127299953,72.66353127299953,72.66353127299953,72.66353127299953,72.66353127299953,74.69823687499957,74.69823687499957,74.69823687499957,74.69823687499957,,,,,,,,,,,,,,,,,,,,,,,,,,,,,,,,,,,,,,,06,010,2022-09-26_10h40.58.936,test2,2022.2.4,59.952487294108984,
0,0,0,0,4,0,4,0,74.69823687499957,74.69823687499957,74.69823687499957,74.69823687499957,74.69823687499957,74.69823687499957,74.69823687499957,1,-1,rojo,1,['N_A'],77.28462196500004,77.28462196500004,77.28462196500004,77.28462196500004,79.32057661899944,79.32057661899944,79.32057661899944,79.32057661899944,79.32057661899944,79.32057661899944,79.32057661899944,79.32057661899944,81.35553187400001,81.35553187400001,81.35553187400001,81.35553187400001,,,,,,,,,,,,,,,,,,,,,,,,,,,,,,,,,,,,,,,06,010,2022-09-26_10h40.58.936,test2,2022.2.4,59.952487294108984,
0,0,0,0,5,0,5,0,81.35553187400001,81.35553187400001,81.35553187400001,81.35553187400001,81.35553187400001,81.35553187400001,81.35553187400001,-1,-1,azul,0,['N_B'],83.27455050899971,83.27455050899971,83.27455050899971,83.27455050899971,85.31079322999994,85.31079322999994,85.31079322999994,85.31079322999994,85.31079322999994,85.31079322999994,85.31079322999994,85.31079322999994,87.34554234200004,87.34554234200004,87.34554234200004,87.34554234200004,,,,,,,,,,,,,,,,,,,,,,,,,,,,,,,,,,,,,,,06,010,2022-09-26_10h40.58.936,test2,2022.2.4,59.952487294108984,
0,0,0,0,6,0,6,0,87.34554234200004,87.34554234200004,87.34554234200004,87.34554234200004,87.34554234200004,87.34554234200004,87.34554234200004,1,1,azul,1,['N_B'],89.68131039699983,89.68131039699983,89.68131039699983,89.68131039699983,91.71749214400006,91.71749214400006,91.71749214400006,91.71749214400006,91.71749214400006,91.71749214400006,91.71749214400006,91.71749214400006,93.7534727049997,93.7534727049997,93.7534727049997,93.7534727049997,,,,,,,,,,,,,,,,,,,,,,,,,,,,,,,,,,,,,,,06,010,2022-09-26_10h40.58.936,test2,2022.2.4,59.952487294108984,
0,0,0,0,7,0,7,0,93.7534727049997,93.7534727049997,93.7534727049997,93.7534727049997,93.7534727049997,93.7534727049997,93.7534727049997,-1,-1,rojo,1,['N_B'],96.22226306499942,96.22226306499942,96.22226306499942,96.22226306499942,98.25823357099944,98.25823357099944,98.25823357099944,98.25823357099944,98.25823357099944,98.25823357099944,98.25823357099944,98.25823357099944,100.29424803399979,100.29424803399979,100.29424803399979,100.29424803399979,,,,,,,,,,,,,,,,,,,,,,,,,,,,,,,,,,,,,,,06,010,2022-09-26_10h40.58.936,test2,2022.2.4,59.952487294108984,
0,0,0,0,8,0,8,0,100.29424803399979,100.29424803399979,100.29424803399979,100.29424803399979,100.29424803399979,100.29424803399979,100.29424803399979,1,1,azul,1,['N_B'],104.41422522499943,104.41422522499943,104.41422522499943,104.41422522499943,106.44994200000019,106.44994200000019,106.44994200000019,106.44994200000019,106.44994200000019,106.44994200000019,106.44994200000019,106.44994200000019,108.48614740499943,108.48614740499943,108.48614740499943,108.48614740499943,,,,,,,,,,,,,,,,,,,,,,,,,,,,,,,,,,,,,,,06,010,2022-09-26_10h40.58.936,test2,2022.2.4,59.952487294108984,
0,0,0,0,9,0,9,0,108.48614740499943,108.48614740499943,108.48614740499943,108.48614740499943,108.48614740499943,108.48614740499943,108.48614740499943,1,-1,azul,1,['N_B'],111.77303462999953,111.77303462999953,111.77303462999953,111.77303462999953,113.80854003799959,113.80854003799959,113.80854003799959,113.80854003799959,113.80854003799959,113.80854003799959,113.80854003799959,113.80854003799959,115.84442874700017,115.84442874700017,115.84442874700017,115.84442874700017,,,,,,,,,,,,,,,,,,,,,,,,,,,,,,,,,,,,,,,06,010,2022-09-26_10h40.58.936,test2,2022.2.4,59.952487294108984,
0,0,0,0,10,0,10,0,115.84442874700017,115.84442874700017,115.84442874700017,115.84442874700017,115.84442874700017,115.84442874700017,115.84442874700017,1,-1,azul,0,['N_A'],118.83045675899939,118.83045675899939,118.83045675899939,118.83045675899939,120.86631246399975,120.86631246399975,120.86631246399975,120.86631246399975,120.86631246399975,120.86631246399975,120.86631246399975,120.86631246399975,122.90130793099979,122.90130793099979,122.90130793099979,122.90130793099979,,,,,,,,,,,,,,,,,,,,,,,,,,,,,,,,,,,,,,,06,010,2022-09-26_10h40.58.936,test2,2022.2.4,59.952487294108984,
0,0,0,0,11,0,11,0,122.90130793099979,122.90130793099979,122.90130793099979,122.90130793099979,122.90130793099979,122.90130793099979,122.90130793099979,1,1,rojo,1,['N_A'],126.95674562600016,126.95674562600016,126.95674562600016,126.95674562600016,128.992199583,128.992199583,128.992199583,128.992199583,128.992199583,128.992199583,128.992199583,128.992199583,131.0272499069997,131.0272499069997,131.0272499069997,131.0272499069997,,,,,,,,,,,,,,,,,,,,,,,,,,,,,,,,,,,,,,,06,010,2022-09-26_10h40.58.936,test2,2022.2.4,59.952487294108984,
0,0,0,0,12,0,12,0,131.0272499069997,131.0272499069997,131.0272499069997,131.0272499069997,131.0272499069997,131.0272499069997,131.0272499069997,1,-1,rojo,1,['N_A'],133.91395568899952,133.91395568899952,133.91395568899952,133.91395568899952,135.9497754240001,135.9497754240001,135.9497754240001,135.9497754240001,135.9497754240001,135.9497754240001,135.9497754240001,135.9497754240001,137.98442283799977,137.98442283799977,137.98442283799977,137.98442283799977,,,,,,,,,,,,,,,,,,,,,,,,,,,,,,,,,,,,,,,06,010,2022-09-26_10h40.58.936,test2,2022.2.4,59.952487294108984,
0,0,0,0,13,0,13,0,137.98442283799977,137.98442283799977,137.98442283799977,137.98442283799977,137.98442283799977,137.98442283799977,137.98442283799977,-1,1,azul,1,['N_A'],140.370645385,140.370645385,140.370645385,140.370645385,142.40645281999969,142.40645281999969,142.40645281999969,142.40645281999969,142.40645281999969,142.40645281999969,142.40645281999969,142.40645281999969,144.44234013299956,144.44234013299956,144.44234013299956,144.44234013299956,,,,,,,,,,,,,,,,,,,,,,,,,,,,,,,,,,,,,,,06,010,2022-09-26_10h40.58.936,test2,2022.2.4,59.952487294108984,
0,0,0,0,14,0,14,0,144.44234013299956,144.44234013299956,144.44234013299956,144.44234013299956,144.44234013299956,144.44234013299956,144.44234013299956,1,-1,rojo,1,['N_A'],147.61208443800024,147.61208443800024,147.61208443800024,147.61208443800024,149.64756957600002,149.64756957600002,149.64756957600002,149.64756957600002,149.64756957600002,149.64756957600002,149.64756957600002,149.64756957600002,151.68336911499955,151.68336911499955,151.68336911499955,151.68336911499955,,,,,,,,,,,,,,,,,,,,,,,,,,,,,,,,,,,,,,,06,010,2022-09-26_10h40.58.936,test2,2022.2.4,59.952487294108984,
0,0,0,0,15,0,15,0,151.68336911499955,151.68336911499955,151.68336911499955,151.68336911499955,151.68336911499955,151.68336911499955,151.68336911499955,1,-1,rojo,0,['N_B'],155.1042553749994,155.1042553749994,155.1042553749994,155.1042553749994,157.13972697699955,157.13972697699955,157.13972697699955,157.13972697699955,157.13972697699955,157.13972697699955,157.13972697699955,157.13972697699955,159.17553805499938,159.17553805499938,159.17553805499938,159.17553805499938,,,,,,,,,,,,,,,,,,,,,,,,,,,,,,,,,,,,,,,06,010,2022-09-26_10h40.58.936,test2,2022.2.4,59.952487294108984,
0,0,0,0,16,0,16,0,159.17553805499938,159.17553805499938,159.17553805499938,159.17553805499938,159.17553805499938,159.17553805499938,159.17553805499938,-1,-1,rojo,1,['N_B'],161.2110200979996,161.2110200979996,161.2110200979996,161.2110200979996,163.2466384620002,163.2466384620002,163.2466384620002,163.2466384620002,163.2466384620002,163.2466384620002,163.2466384620002,163.2466384620002,165.2819219920002,165.2819219920002,165.2819219920002,165.2819219920002,,,,,,,,,,,,,,,,,,,,,,,,,,,,,,,,,,,,,,,06,010,2022-09-26_10h40.58.936,test2,2022.2.4,59.952487294108984,
0,0,0,0,17,0,17,0,165.2819219920002,165.2819219920002,165.2819219920002,165.2819219920002,165.2819219920002,165.2819219920002,165.2819219920002,-1,-1,rojo,1,['N_B'],167.2337832209996,167.2337832209996,167.2337832209996,167.2337832209996,169.26981616000012,169.26981616000012,169.26981616000012,169.26981616000012,169.26981616000012,169.26981616000012,169.26981616000012,169.26981616000012,171.3042557660001,171.3042557660001,171.3042557660001,171.3042557660001,,,,,,,,,,,,,,,,,,,,,,,,,,,,,,,,,,,,,,,06,010,2022-09-26_10h40.58.936,test2,2022.2.4,59.952487294108984,
0,0,0,0,18,0,18,0,171.3042557660001,171.3042557660001,171.3042557660001,171.3042557660001,171.3042557660001,171.3042557660001,171.3042557660001,-1,1,rojo,1,['N_B'],175.94366064599944,175.94366064599944,175.94366064599944,175.94366064599944,177.97916169899963,177.97916169899963,177.97916169899963,177.97916169899963,177.97916169899963,177.97916169899963,177.97916169899963,177.97916169899963,180.01423396799964,180.01423396799964,180.01423396799964,180.01423396799964,,,,,,,,,,,,,,,,,,,,,,,,,,,,,,,,,,,,,,,06,010,2022-09-26_10h40.58.936,test2,2022.2.4,59.952487294108984,
0,0,0,0,19,0,19,0,180.01423396799964,180.01423396799964,180.01423396799964,180.01423396799964,180.01423396799964,180.01423396799964,180.01423396799964,-1,-1,rojo,0,['N_A'],184.43601817499984,184.43601817499984,184.43601817499984,184.43601817499984,186.4705400140001,186.4705400140001,186.4705400140001,186.4705400140001,186.4705400140001,186.4705400140001,186.4705400140001,186.4705400140001,188.50744172600025,188.50744172600025,188.50744172600025,188.50744172600025,,,,,,,,,,,,,,,,,,,,,,,,,,,,,,,,,,,,,,,06,010,2022-09-26_10h40.58.936,test2,2022.2.4,59.952487294108984,
0,0,0,0,20,0,20,0,188.50744172600025,188.50744172600025,188.50744172600025,188.50744172600025,188.50744172600025,188.50744172600025,188.50744172600025,1,-1,rojo,1,['N_A'],189.75880536099976,189.75880536099976,189.75880536099976,189.75880536099976,191.79485636400022,191.79485636400022,191.79485636400022,191.79485636400022,191.79485636400022,191.79485636400022,191.79485636400022,191.79485636400022,193.8296743129995,193.8296743129995,193.8296743129995,193.8296743129995,,,,,,,,,,,,,,,,,,,,,,,,,,,,,,,,,,,,,,,06,010,2022-09-26_10h40.58.936,test2,2022.2.4,59.952487294108984,
0,0,0,0,21,0,21,0,193.8296743129995,193.8296743129995,193.8296743129995,193.8296743129995,193.8296743129995,193.8296743129995,193.8296743129995,1,-1,rojo,1,['N_A'],195.98247303900007,195.98247303900007,195.98247303900007,195.98247303900007,198.01820678500007,198.01820678500007,198.01820678500007,198.01820678500007,198.01820678500007,198.01820678500007,198.01820678500007,198.01820678500007,200.05380207399958,200.05380207399958,200.05380207399958,200.05380207399958,,,,,,,,,,,,,,,,,,,,,,,,,,,,,,,,,,,,,,,06,010,2022-09-26_10h40.58.936,test2,2022.2.4,59.952487294108984,
0,0,0,0,22,0,22,0,200.05380207399958,200.05380207399958,200.05380207399958,200.05380207399958,200.05380207399958,200.05380207399958,200.05380207399958,1,-1,rojo,1,['N_A'],202.37328817199977,202.37328817199977,202.37328817199977,202.37328817199977,204.40889195399996,204.40889195399996,204.40889195399996,204.40889195399996,204.40889195399996,204.40889195399996,204.40889195399996,204.40889195399996,206.44420474700019,206.44420474700019,206.44420474700019,206.44420474700019,,,,,,,,,,,,,,,,,,,,,,,,,,,,,,,,,,,,,,,06,010,2022-09-26_10h40.58.936,test2,2022.2.4,59.952487294108984,
0,0,0,0,23,0,23,0,206.44420474700019,206.44420474700019,206.44420474700019,206.44420474700019,206.44420474700019,206.44420474700019,206.44420474700019,-1,-1,azul,1,['N_A'],208.2299282670001,208.2299282670001,208.2299282670001,208.2299282670001,210.26495718000024,210.26495718000024,210.26495718000024,210.26495718000024,210.26495718000024,210.26495718000024,210.26495718000024,210.26495718000024,212.30069966999963,212.30069966999963,212.30069966999963,212.30069966999963,,,,,,,,,,,,,,,,,,,,,,,,,,,,,,,,,,,,,,,06,010,2022-09-26_10h40.58.936,test2,2022.2.4,59.952487294108984,
0,0,0,0,24,0,24,0,212.30069966999963,212.30069966999963,212.30069966999963,212.30069966999963,212.30069966999963,212.30069966999963,212.30069966999963,1,1,rojo,1,['N_A'],214.88629294600014,214.88629294600014,214.88629294600014,214.88629294600014,216.92242966499998,216.92242966499998,216.92242966499998,216.92242966499998,216.92242966499998,216.92242966499998,216.92242966499998,216.92242966499998,218.95733209699938,218.95733209699938,218.95733209699938,218.95733209699938,,,,,,,,,,,,,,,,,,,,,,,,,,,,,,,,,,,,,,,06,010,2022-09-26_10h40.58.936,test2,2022.2.4,59.952487294108984,
0,0,0,0,25,0,25,0,218.95733209699938,218.95733209699938,218.95733209699938,218.95733209699938,218.95733209699938,218.95733209699938,218.95733209699938,1,-1,rojo,0,['N_B'],220.35921893999966,220.35921893999966,220.35921893999966,220.35921893999966,222.3948482629994,222.3948482629994,222.3948482629994,222.3948482629994,222.3948482629994,222.3948482629994,222.3948482629994,222.3948482629994,224.43019850899964,224.43019850899964,224.43019850899964,224.43019850899964,,,,,,,,,,,,,,,,,,,,,,,,,,,,,,,,,,,,,,,06,010,2022-09-26_10h40.58.936,test2,2022.2.4,59.952487294108984,
0,0,0,0,26,0,26,0,224.43019850899964,224.43019850899964,224.43019850899964,224.43019850899964,224.43019850899964,224.43019850899964,224.43019850899964,1,-1,azul,1,['N_B'],226.71670415799963,226.71670415799963,226.71670415799963,226.71670415799963,228.75175830399985,228.75175830399985,228.75175830399985,228.75175830399985,228.75175830399985,228.75175830399985,228.75175830399985,228.75175830399985,230.78767923299984,230.78767923299984,230.78767923299984,230.78767923299984,,,,,,,,,,,,,,,,,,,,,,,,,,,,,,,,,,,,,,,06,010,2022-09-26_10h40.58.936,test2,2022.2.4,59.952487294108984,
0,0,0,0,27,0,27,0,230.78767923299984,230.78767923299984,230.78767923299984,230.78767923299984,230.78767923299984,230.78767923299984,230.78767923299984,1,-1,azul,1,['N_B'],232.77324786899953,232.77324786899953,232.77324786899953,232.77324786899953,234.80807959399954,234.80807959399954,234.80807959399954,234.80807959399954,234.80807959399954,234.80807959399954,234.80807959399954,234.80807959399954,236.84395437999956,236.84395437999956,236.84395437999956,236.84395437999956,,,,,,,,,,,,,,,,,,,,,,,,,,,,,,,,,,,,,,,06,010,2022-09-26_10h40.58.936,test2,2022.2.4,59.952487294108984,
0,0,0,0,28,0,28,0,236.84395437999956,236.84395437999956,236.84395437999956,236.84395437999956,236.84395437999956,236.84395437999956,236.84395437999956,1,-1,azul,1,['N_B'],239.81441508700027,239.81441508700027,239.81441508700027,239.81441508700027,241.85020390599948,241.85020390599948,241.85020390599948,241.85020390599948,241.85020390599948,241.85020390599948,241.85020390599948,241.85020390599948,243.8854180520002,243.8854180520002,243.8854180520002,243.8854180520002,,,,,,,,,,,,,,,,,,,,,,,,,,,,,,,,,,,,,,,06,010,2022-09-26_10h40.58.936,test2,2022.2.4,59.952487294108984,
0,0,0,0,29,0,29,0,243.8854180520002,243.8854180520002,243.8854180520002,243.8854180520002,243.8854180520002,243.8854180520002,243.8854180520002,1,-1,azul,1,['N_B'],246.2378497919999,246.2378497919999,246.2378497919999,246.2378497919999,248.2739360179994,248.2739360179994,248.2739360179994,248.2739360179994,248.2739360179994,248.2739360179994,248.2739360179994,248.2739360179994,250.3085793199998,250.3085793199998,250.3085793199998,250.3085793199998,,,,,,,,,,,,,,,,,,,,,,,,,,,,,,,,,,,,,,,06,010,2022-09-26_10h40.58.936,test2,2022.2.4,59.952487294108984,
0,0,0,0,30,0,30,0,250.3085793199998,250.3085793199998,250.3085793199998,250.3085793199998,250.3085793199998,250.3085793199998,250.3085793199998,-1,1,rojo,1,['N_B'],252.84550987199964,252.84550987199964,252.84550987199964,252.84550987199964,254.88003691499944,254.88003691499944,254.88003691499944,254.88003691499944,254.88003691499944,254.88003691499944,254.88003691499944,254.88003691499944,256.91580314600014,256.91580314600014,256.91580314600014,256.91580314600014,,,,,,,,,,,,,,,,,,,,,,,,,,,,,,,,,,,,,,,06,010,2022-09-26_10h40.58.936,test2,2022.2.4,59.952487294108984,
0,0,0,0,31,0,31,0,256.91580314600014,256.91580314600014,256.91580314600014,256.91580314600014,256.91580314600014,256.91580314600014,256.91580314600014,1,-1,azul,1,['N_B'],258.86807782399956,258.86807782399956,258.86807782399956,258.86807782399956,260.9036077840001,260.9036077840001,260.9036077840001,260.9036077840001,260.9036077840001,260.9036077840001,260.9036077840001,260.9036077840001,262.9396748849995,262.9396748849995,262.9396748849995,262.9396748849995,,,,,,,,,,,,,,,,,,,,,,,,,,,,,,,,,,,,,,,06,010,2022-09-26_10h40.58.936,test2,2022.2.4,59.952487294108984,
0,0,0,0,32,0,32,0,262.9396748849995,262.9396748849995,262.9396748849995,262.9396748849995,262.9396748849995,262.9396748849995,262.9396748849995,-1,-1,rojo,1,['N_B'],264.29059494299963,264.29059494299963,264.29059494299963,264.29059494299963,266.32652777899966,266.32652777899966,266.32652777899966,266.32652777899966,266.32652777899966,266.32652777899966,266.32652777899966,266.32652777899966,268.36238023999977,268.36238023999977,268.36238023999977,268.36238023999977,,,,,,,,,,,,,,,,,,,,,,,,,,,,,,,,,,,,,,,06,010,2022-09-26_10h40.58.936,test2,2022.2.4,59.952487294108984,
0,0,0,0,33,0,33,0,268.36238023999977,268.36238023999977,268.36238023999977,268.36238023999977,268.36238023999977,268.36238023999977,268.36238023999977,1,1,azul,1,['N_B'],270.5976368339998,270.5976368339998,270.5976368339998,270.5976368339998,272.6332949769994,272.6332949769994,272.6332949769994,272.6332949769994,272.6332949769994,272.6332949769994,272.6332949769994,272.6332949769994,274.6688232209999,274.6688232209999,274.6688232209999,274.6688232209999,,,,,,,,,,,,,,,,,,,,,,,,,,,,,,,,,,,,,,,06,010,2022-09-26_10h40.58.936,test2,2022.2.4,59.952487294108984,
0,0,0,0,34,0,34,0,274.6688232209999,274.6688232209999,274.6688232209999,274.6688232209999,274.6688232209999,274.6688232209999,274.6688232209999,1,-1,azul,1,['N_B'],275.87028100099997,275.87028100099997,275.87028100099997,275.87028100099997,277.90625095299947,277.90625095299947,277.90625095299947,277.90625095299947,277.90625095299947,277.90625095299947,277.90625095299947,277.90625095299947,279.94164054199973,279.94164054199973,279.94164054199973,279.94164054199973,,,,,,,,,,,,,,,,,,,,,,,,,,,,,,,,,,,,,,,06,010,2022-09-26_10h40.58.936,test2,2022.2.4,59.952487294108984,
0,0,0,0,35,0,35,0,279.94164054199973,279.94164054199973,279.94164054199973,279.94164054199973,279.94164054199973,279.94164054199973,279.94164054199973,1,1,azul,1,['N_B'],282.0446860989996,282.0446860989996,282.0446860989996,282.0446860989996,284.07894688800025,284.07894688800025,284.07894688800025,284.07894688800025,284.07894688800025,284.07894688800025,284.07894688800025,284.07894688800025,286.1149751490002,286.1149751490002,286.1149751490002,286.1149751490002,,,,,,,,,,,,,,,,,,,,,,,,,,,,,,,,,,,,,,,06,010,2022-09-26_10h40.58.936,test2,2022.2.4,59.952487294108984,
0,0,0,0,36,0,36,0,286.1149751490002,286.1149751490002,286.1149751490002,286.1149751490002,286.1149751490002,286.1149751490002,286.1149751490002,-1,-1,rojo,1,['N_B'],287.9504359829998,287.9504359829998,287.9504359829998,287.9504359829998,289.9864280490001,289.9864280490001,289.9864280490001,289.9864280490001,289.9864280490001,289.9864280490001,289.9864280490001,289.9864280490001,292.0216692739996,292.0216692739996,292.0216692739996,292.0216692739996,,,,,,,,,,,,,,,,,,,,,,,,,,,,,,,,,,,,,,,06,010,2022-09-26_10h40.58.936,test2,2022.2.4,59.952487294108984,
0,0,0,0,37,0,37,0,292.0216692739996,292.0216692739996,292.0216692739996,292.0216692739996,292.0216692739996,292.0216692739996,292.0216692739996,-1,-1,rojo,1,['N_B'],293.3397180860002,293.3397180860002,293.3397180860002,293.3397180860002,295.37551129799976,295.37551129799976,295.37551129799976,295.37551129799976,295.37551129799976,295.37551129799976,295.37551129799976,295.37551129799976,297.4106379879995,297.4106379879995,297.4106379879995,297.4106379879995,,,,,,,,,,,,,,,,,,,,,,,,,,,,,,,,,,,,,,,06,010,2022-09-26_10h40.58.936,test2,2022.2.4,59.952487294108984,
0,0,0,0,38,0,38,0,297.4106379879995,297.4106379879995,297.4106379879995,297.4106379879995,297.4106379879995,297.4106379879995,297.4106379879995,-1,1,rojo,1,['N_B'],299.2625148899997,299.2625148899997,299.2625148899997,299.2625148899997,301.28222602000005,301.28222602000005,301.28222602000005,301.28222602000005,301.28222602000005,301.28222602000005,301.28222602000005,301.28222602000005,303.3176932010001,303.3176932010001,303.3176932010001,303.3176932010001,,,,,,,,,,,,,,,,,,,,,,,,,,,,,,,,,,,,,,,06,010,2022-09-26_10h40.58.936,test2,2022.2.4,59.952487294108984,
0,0,0,0,39,0,39,0,303.3176932010001,303.3176932010001,303.3176932010001,303.3176932010001,303.3176932010001,303.3176932010001,303.3176932010001,1,1,azul,1,['N_B'],304.81961434999994,304.81961434999994,304.81961434999994,304.81961434999994,306.8545888359995,306.8545888359995,306.8545888359995,306.8545888359995,306.8545888359995,306.8545888359995,306.8545888359995,306.8545888359995,308.89059971999995,308.89059971999995,308.89059971999995,308.89059971999995,,,,,,,,,,,,,,,,,,,,,,,,,,,,,,,,,,,,,,,06,010,2022-09-26_10h40.58.936,test2,2022.2.4,59.952487294108984,
0,0,0,0,40,0,40,0,308.89059971999995,308.89059971999995,308.89059971999995,308.89059971999995,308.89059971999995,308.89059971999995,308.89059971999995,1,-1,azul,1,['N_B'],311.5763374959997,311.5763374959997,311.5763374959997,311.5763374959997,313.61191519800013,313.61191519800013,313.61191519800013,313.61191519800013,313.61191519800013,313.61191519800013,313.61191519800013,313.61191519800013,315.64716485200006,315.64716485200006,315.64716485200006,315.64716485200006,,,,,,,,,,,,,,,,,,,,,,,,,,,,,,,,,,,,,,,06,010,2022-09-26_10h40.58.936,test2,2022.2.4,59.952487294108984,
0,0,0,0,41,0,41,0,315.64716485200006,315.64716485200006,315.64716485200006,315.64716485200006,315.64716485200006,315.64716485200006,315.64716485200006,1,1,azul,1,['N_B'],318.96851204799987,318.96851204799987,318.96851204799987,318.96851204799987,321.004069566,321.004069566,321.004069566,321.004069566,321.004069566,321.004069566,321.004069566,321.004069566,323.03900927799987,323.03900927799987,323.03900927799987,323.03900927799987,,,,,,,,,,,,,,,,,,,,,,,,,,,,,,,,,,,,,,,06,010,2022-09-26_10h40.58.936,test2,2022.2.4,59.952487294108984,
0,0,0,0,42,0,42,0,323.03900927799987,323.03900927799987,323.03900927799987,323.03900927799987,323.03900927799987,323.03900927799987,323.03900927799987,1,-1,azul,1,['N_B'],325.6257528649994,325.6257528649994,325.6257528649994,325.6257528649994,327.66048140400017,327.66048140400017,327.66048140400017,327.66048140400017,327.66048140400017,327.66048140400017,327.66048140400017,327.66048140400017,329.69699100100024,329.69699100100024,329.69699100100024,329.69699100100024,,,,,,,,,,,,,,,,,,,,,,,,,,,,,,,,,,,,,,,06,010,2022-09-26_10h40.58.936,test2,2022.2.4,59.952487294108984,
0,0,0,0,43,0,43,0,329.69699100100024,329.69699100100024,329.69699100100024,329.69699100100024,329.69699100100024,329.69699100100024,329.69699100100024,1,1,azul,1,['N_B'],334.76871614099946,334.76871614099946,334.76871614099946,334.76871614099946,336.80454686099984,336.80454686099984,336.80454686099984,336.80454686099984,336.80454686099984,336.80454686099984,336.80454686099984,336.80454686099984,338.83958929799974,338.83958929799974,338.83958929799974,338.83958929799974,,,,,,,,,,,,,,,,,,,,,,,,,,,,,,,,,,,,,,,06,010,2022-09-26_10h40.58.936,test2,2022.2.4,59.952487294108984,
0,0,0,0,44,0,44,0,338.83958929799974,338.83958929799974,338.83958929799974,338.83958929799974,338.83958929799974,338.83958929799974,338.83958929799974,1,-1,azul,1,['N_B'],340.80899751000015,340.80899751000015,340.80899751000015,340.80899751000015,342.8443808869997,342.8443808869997,342.8443808869997,342.8443808869997,342.8443808869997,342.8443808869997,342.8443808869997,342.8443808869997,344.8802336439994,344.8802336439994,344.8802336439994,344.8802336439994,,,,,,,,,,,,,,,,,,,,,,,,,,,,,,,,,,,,,,,06,010,2022-09-26_10h40.58.936,test2,2022.2.4,59.952487294108984,
0,0,0,0,45,0,45,0,344.8802336439994,344.8802336439994,344.8802336439994,344.8802336439994,344.8802336439994,344.8802336439994,344.8802336439994,1,1,azul,1,['N_B'],348.03319577099955,348.03319577099955,348.03319577099955,348.03319577099955,350.0695788490002,350.0695788490002,350.0695788490002,350.0695788490002,350.0695788490002,350.0695788490002,350.0695788490002,350.0695788490002,352.1051784860001,352.1051784860001,352.1051784860001,352.1051784860001,,,,,,,,,,,,,,,,,,,,,,,,,,,,,,,,,,,,,,,06,010,2022-09-26_10h40.58.936,test2,2022.2.4,59.952487294108984,
0,0,0,0,46,0,46,0,352.1051784860001,352.1051784860001,352.1051784860001,352.1051784860001,352.1051784860001,352.1051784860001,352.1051784860001,1,-1,azul,1,['N_B'],353.62240724000003,353.62240724000003,353.62240724000003,353.62240724000003,355.6585240659997,355.6585240659997,355.6585240659997,355.6585240659997,355.6585240659997,355.6585240659997,355.6585240659997,355.6585240659997,357.6940957119996,357.6940957119996,357.6940957119996,357.6940957119996,,,,,,,,,,,,,,,,,,,,,,,,,,,,,,,,,,,,,,,06,010,2022-09-26_10h40.58.936,test2,2022.2.4,59.952487294108984,
0,0,0,0,47,0,47,0,357.6940957119996,357.6940957119996,357.6940957119996,357.6940957119996,357.6940957119996,357.6940957119996,357.6940957119996,1,1,azul,1,['N_B'],360.0464452010001,360.0464452010001,360.0464452010001,360.0464452010001,362.08254256799955,362.08254256799955,362.08254256799955,362.08254256799955,362.08254256799955,362.08254256799955,362.08254256799955,362.08254256799955,364.1181107530001,364.1181107530001,364.1181107530001,364.1181107530001,,,,,,,,,,,,,,,,,,,,,,,,,,,,,,,,,,,,,,,06,010,2022-09-26_10h40.58.936,test2,2022.2.4,59.952487294108984,
0,0,0,0,48,0,48,0,364.1181107530001,364.1181107530001,364.1181107530001,364.1181107530001,364.1181107530001,364.1181107530001,364.1181107530001,1,-1,azul,1,['N_B'],365.7693797969996,365.7693797969996,365.7693797969996,365.7693797969996,367.80502299699947,367.80502299699947,367.80502299699947,367.80502299699947,367.80502299699947,367.80502299699947,367.80502299699947,367.80502299699947,369.841064145,369.841064145,369.841064145,369.841064145,,,,,,,,,,,,,,,,,,,,,,,,,,,,,,,,,,,,,,,06,010,2022-09-26_10h40.58.936,test2,2022.2.4,59.952487294108984,
0,0,0,0,49,0,49,0,369.841064145,369.841064145,369.841064145,369.841064145,369.841064145,369.841064145,369.841064145,1,-1,azul,1,['N_B'],371.66019133400005,371.66019133400005,371.66019133400005,371.66019133400005,373.69547348499964,373.69547348499964,373.69547348499964,373.69547348499964,373.69547348499964,373.69547348499964,373.69547348499964,373.69547348499964,375.7306719440003,375.7306719440003,375.7306719440003,375.7306719440003,,,,,,,,,,,,,,,,,,,,,,,,,,,,,,,,,,,,,,,06,010,2022-09-26_10h40.58.936,test2,2022.2.4,59.952487294108984,
0,0,0,0,50,0,50,0,375.7306719440003,375.7306719440003,375.7306719440003,375.7306719440003,375.7306719440003,375.7306719440003,375.7306719440003,-1,1,rojo,1,['N_B'],377.66564903699964,377.66564903699964,377.66564903699964,377.66564903699964,379.70220497099945,379.70220497099945,379.70220497099945,379.70220497099945,379.70220497099945,379.70220497099945,379.70220497099945,379.70220497099945,381.7372512760003,381.7372512760003,381.7372512760003,381.7372512760003,,,,,,,,,,,,,,,,,,,,,,,,,,,,,,,,,,,,,,,06,010,2022-09-26_10h40.58.936,test2,2022.2.4,59.952487294108984,
0,0,0,0,51,0,51,0,381.7372512760003,381.7372512760003,381.7372512760003,381.7372512760003,381.7372512760003,381.7372512760003,381.7372512760003,1,-1,azul,1,['N_B'],384.8237063509996,384.8237063509996,384.8237063509996,384.8237063509996,386.8599234659996,386.8599234659996,386.8599234659996,386.8599234659996,386.8599234659996,386.8599234659996,386.8599234659996,386.8599234659996,388.8953592449998,388.8953592449998,388.8953592449998,388.8953592449998,,,,,,,,,,,,,,,,,,,,,,,,,,,,,,,,,,,,,,,06,010,2022-09-26_10h40.58.936,test2,2022.2.4,59.952487294108984,
0,0,0,0,52,0,52,0,388.8953592449998,388.8953592449998,388.8953592449998,388.8953592449998,388.8953592449998,388.8953592449998,388.8953592449998,1,1,azul,1,['N_B'],391.29741284400006,391.29741284400006,391.29741284400006,391.29741284400006,393.3331413249998,393.3331413249998,393.3331413249998,393.3331413249998,393.3331413249998,393.3331413249998,393.3331413249998,393.3331413249998,395.3691186139995,395.3691186139995,395.3691186139995,395.3691186139995,,,,,,,,,,,,,,,,,,,,,,,,,,,,,,,,,,,,,,,06,010,2022-09-26_10h40.58.936,test2,2022.2.4,59.952487294108984,
0,0,0,0,53,0,53,0,395.3691186139995,395.3691186139995,395.3691186139995,395.3691186139995,395.3691186139995,395.3691186139995,395.3691186139995,-1,-1,rojo,1,['N_B'],397.054528138,397.054528138,397.054528138,397.054528138,399.0894472330001,399.0894472330001,399.0894472330001,399.0894472330001,399.0894472330001,399.0894472330001,399.0894472330001,399.0894472330001,401.12551227199947,401.12551227199947,401.12551227199947,401.12551227199947,,,,,,,,,,,,,,,,,,,,,,,,,,,,,,,,,,,,,,,06,010,2022-09-26_10h40.58.936,test2,2022.2.4,59.952487294108984,
0,0,0,0,54,0,54,0,401.12551227199947,401.12551227199947,401.12551227199947,401.12551227199947,401.12551227199947,401.12551227199947,401.12551227199947,1,1,azul,1,['N_B'],402.31014321400016,402.31014321400016,402.31014321400016,402.31014321400016,404.3454911250001,404.3454911250001,404.3454911250001,404.3454911250001,404.3454911250001,404.3454911250001,404.3454911250001,404.3454911250001,406.3814442769999,406.3814442769999,406.3814442769999,406.3814442769999,,,,,,,,,,,,,,,,,,,,,,,,,,,,,,,,,,,,,,,06,010,2022-09-26_10h40.58.936,test2,2022.2.4,59.952487294108984,
0,0,0,0,55,0,55,0,406.3814442769999,406.3814442769999,406.3814442769999,406.3814442769999,406.3814442769999,406.3814442769999,406.3814442769999,1,-1,azul,1,['N_B'],407.9826087189995,407.9826087189995,407.9826087189995,407.9826087189995,410.01878837799995,410.01878837799995,410.01878837799995,410.01878837799995,410.01878837799995,410.01878837799995,410.01878837799995,410.01878837799995,412.0545233009998,412.0545233009998,412.0545233009998,412.0545233009998,,,,,,,,,,,,,,,,,,,,,,,,,,,,,,,,,,,,,,,06,010,2022-09-26_10h40.58.936,test2,2022.2.4,59.952487294108984,
0,0,0,0,56,0,56,0,412.0545233009998,412.0545233009998,412.0545233009998,412.0545233009998,412.0545233009998,412.0545233009998,412.0545233009998,-1,-1,rojo,1,['N_B'],413.77215165300004,413.77215165300004,413.77215165300004,413.77215165300004,415.80827476099967,415.80827476099967,415.80827476099967,415.80827476099967,415.80827476099967,415.80827476099967,415.80827476099967,415.80827476099967,417.84423777200027,417.84423777200027,417.84423777200027,417.84423777200027,,,,,,,,,,,,,,,,,,,,,,,,,,,,,,,,,,,,,,,06,010,2022-09-26_10h40.58.936,test2,2022.2.4,59.952487294108984,
0,0,0,0,57,0,57,0,417.84423777200027,417.84423777200027,417.84423777200027,417.84423777200027,417.84423777200027,417.84423777200027,417.84423777200027,1,1,azul,1,['N_B'],418.8612051,418.8612051,418.8612051,418.8612051,420.87994054499995,420.87994054499995,420.87994054499995,420.87994054499995,420.87994054499995,420.87994054499995,420.87994054499995,420.87994054499995,422.91625559600016,422.91625559600016,422.91625559600016,422.91625559600016,,,,,,,,,,,,,,,,,,,,,,,,,,,,,,,,,,,,,,,06,010,2022-09-26_10h40.58.936,test2,2022.2.4,59.952487294108984,
0,0,0,0,58,0,58,0,422.91625559600016,422.91625559600016,422.91625559600016,422.91625559600016,422.91625559600016,422.91625559600016,422.91625559600016,1,1,azul,1,['N_B'],424.3013344989995,424.3013344989995,424.3013344989995,424.3013344989995,426.3369977279999,426.3369977279999,426.3369977279999,426.3369977279999,426.3369977279999,426.3369977279999,426.3369977279999,426.3369977279999,428.3723700619994,428.3723700619994,428.3723700619994,428.3723700619994,,,,,,,,,,,,,,,,,,,,,,,,,,,,,,,,,,,,,,,06,010,2022-09-26_10h40.58.936,test2,2022.2.4,59.952487294108984,
0,0,0,0,59,0,59,0,428.3723700619994,428.3723700619994,428.3723700619994,428.3723700619994,428.3723700619994,428.3723700619994,428.3723700619994,1,-1,azul,1,['N_B'],431.65925980999964,431.65925980999964,431.65925980999964,431.65925980999964,433.6950444140002,433.6950444140002,433.6950444140002,433.6950444140002,433.6950444140002,433.6950444140002,433.6950444140002,433.6950444140002,435.7302151240001,435.7302151240001,435.7302151240001,435.7302151240001,,,,,,,,,,,,,,,,,,,,,,,,,,,,,,,,,,,,,,,06,010,2022-09-26_10h40.58.936,test2,2022.2.4,59.952487294108984,
0,0,0,0,60,0,60,0,435.7302151240001,435.7302151240001,435.7302151240001,435.7302151240001,435.7302151240001,435.7302151240001,435.7302151240001,1,-1,azul,1,['N_B'],437.66557841099984,437.66557841099984,437.66557841099984,437.66557841099984,439.7013792839998,439.7013792839998,439.7013792839998,439.7013792839998,439.7013792839998,439.7013792839998,439.7013792839998,439.7013792839998,441.73701148799955,441.73701148799955,441.73701148799955,441.73701148799955,,,,,,,,,,,,,,,,,,,,,,,,,,,,,,,,,,,,,,,06,010,2022-09-26_10h40.58.936,test2,2022.2.4,59.952487294108984,
0,0,0,0,61,0,61,0,441.73701148799955,441.73701148799955,441.73701148799955,441.73701148799955,441.73701148799955,441.73701148799955,441.73701148799955,1,1,azul,1,['N_B'],443.52198489700004,443.52198489700004,443.52198489700004,443.52198489700004,445.55789635699966,445.55789635699966,445.55789635699966,445.55789635699966,445.55789635699966,445.55789635699966,445.55789635699966,445.55789635699966,447.59338864799975,447.59338864799975,447.59338864799975,447.59338864799975,,,,,,,,,,,,,,,,,,,,,,,,,,,,,,,,,,,,,,,06,010,2022-09-26_10h40.58.936,test2,2022.2.4,59.952487294108984,
0,0,0,0,62,0,62,0,447.59338864799975,447.59338864799975,447.59338864799975,447.59338864799975,447.59338864799975,447.59338864799975,447.59338864799975,-1,-1,rojo,1,['N_B'],448.82834103299956,448.82834103299956,448.82834103299956,448.82834103299956,450.8640728849996,450.8640728849996,450.8640728849996,450.8640728849996,450.8640728849996,450.8640728849996,450.8640728849996,450.8640728849996,452.8990174319997,452.8990174319997,452.8990174319997,452.8990174319997,,,,,,,,,,,,,,,,,,,,,,,,,,,,,,,,,,,,,,,06,010,2022-09-26_10h40.58.936,test2,2022.2.4,59.952487294108984,
0,0,0,0,63,0,63,0,452.8990174319997,452.8990174319997,452.8990174319997,452.8990174319997,452.8990174319997,452.8990174319997,452.8990174319997,-1,-1,rojo,1,['N_B'],454.7843701029997,454.7843701029997,454.7843701029997,454.7843701029997,456.82010193099995,456.82010193099995,456.82010193099995,456.82010193099995,456.82010193099995,456.82010193099995,456.82010193099995,456.82010193099995,458.8555622849999,458.8555622849999,458.8555622849999,458.8555622849999,,,,,,,,,,,,,,,,,,,,,,,,,,,,,,,,,,,,,,,06,010,2022-09-26_10h40.58.936,test2,2022.2.4,59.952487294108984,
0,0,0,0,64,0,64,0,458.8555622849999,458.8555622849999,458.8555622849999,458.8555622849999,458.8555622849999,458.8555622849999,458.8555622849999,1,-1,azul,1,['N_B'],460.60791232300016,460.60791232300016,460.60791232300016,460.60791232300016,462.6431450250002,462.6431450250002,462.6431450250002,462.6431450250002,462.6431450250002,462.6431450250002,462.6431450250002,462.6431450250002,464.67841096699976,464.67841096699976,464.67841096699976,464.67841096699976,,,,,,,,,,,,,,,,,,,,,,,,,,,,,,,,,,,,,,,06,010,2022-09-26_10h40.58.936,test2,2022.2.4,59.952487294108984,
0,0,0,0,65,0,65,0,464.67841096699976,464.67841096699976,464.67841096699976,464.67841096699976,464.67841096699976,464.67841096699976,464.67841096699976,1,-1,azul,1,['N_B'],467.46535552099976,467.46535552099976,467.46535552099976,467.46535552099976,469.5009687259999,469.5009687259999,469.5009687259999,469.5009687259999,469.5009687259999,469.5009687259999,469.5009687259999,469.5009687259999,471.53612353599965,471.53612353599965,471.53612353599965,471.53612353599965,,,,,,,,,,,,,,,,,,,,,,,,,,,,,,,,,,,,,,,06,010,2022-09-26_10h40.58.936,test2,2022.2.4,59.952487294108984,
0,0,0,0,66,0,66,0,471.53612353599965,471.53612353599965,471.53612353599965,471.53612353599965,471.53612353599965,471.53612353599965,471.53612353599965,1,1,azul,1,['N_B'],474.49014577599974,474.49014577599974,474.49014577599974,474.49014577599974,476.5253307409994,476.5253307409994,476.5253307409994,476.5253307409994,476.5253307409994,476.5253307409994,476.5253307409994,476.5253307409994,478.5606159230001,478.5606159230001,478.5606159230001,478.5606159230001,,,,,,,,,,,,,,,,,,,,,,,,,,,,,,,,,,,,,,,06,010,2022-09-26_10h40.58.936,test2,2022.2.4,59.952487294108984,
0,0,0,0,67,0,67,0,478.5606159230001,478.5606159230001,478.5606159230001,478.5606159230001,478.5606159230001,478.5606159230001,478.5606159230001,-1,-1,rojo,1,['N_B'],482.1651047380001,482.1651047380001,482.1651047380001,482.1651047380001,484.2002711309997,484.2002711309997,484.2002711309997,484.2002711309997,484.2002711309997,484.2002711309997,484.2002711309997,484.2002711309997,486.23616551299983,486.23616551299983,486.23616551299983,486.23616551299983,,,,,,,,,,,,,,,,,,,,,,,,,,,,,,,,,,,,,,,06,010,2022-09-26_10h40.58.936,test2,2022.2.4,59.952487294108984,
0,0,0,0,68,0,68,0,486.23616551299983,486.23616551299983,486.23616551299983,486.23616551299983,486.23616551299983,486.23616551299983,486.23616551299983,1,-1,azul,1,['N_B'],489.20567601699986,489.20567601699986,489.20567601699986,489.20567601699986,491.24221100199975,491.24221100199975,491.24221100199975,491.24221100199975,491.24221100199975,491.24221100199975,491.24221100199975,491.24221100199975,493.27749219399993,493.27749219399993,493.27749219399993,493.27749219399993,,,,,,,,,,,,,,,,,,,,,,,,,,,,,,,,,,,,,,,06,010,2022-09-26_10h40.58.936,test2,2022.2.4,59.952487294108984,
0,0,0,0,69,0,69,0,493.27749219399993,493.27749219399993,493.27749219399993,493.27749219399993,493.27749219399993,493.27749219399993,493.27749219399993,1,-1,azul,1,['N_B'],494.9626058920003,494.9626058920003,494.9626058920003,494.9626058920003,496.998225411,496.998225411,496.998225411,496.998225411,496.998225411,496.998225411,496.998225411,496.998225411,499.03358666999975,499.03358666999975,499.03358666999975,499.03358666999975,,,,,,,,,,,,,,,,,,,,,,,,,,,,,,,,,,,,,,,06,010,2022-09-26_10h40.58.936,test2,2022.2.4,59.952487294108984,
0,0,0,0,70,0,70,0,499.03358666999975,499.03358666999975,499.03358666999975,499.03358666999975,499.03358666999975,499.03358666999975,499.03358666999975,-1,1,rojo,1,['N_B'],501.01895030499963,501.01895030499963,501.01895030499963,501.01895030499963,503.0381601379995,503.0381601379995,503.0381601379995,503.0381601379995,503.0381601379995,503.0381601379995,503.0381601379995,503.0381601379995,505.07342115400024,505.07342115400024,505.07342115400024,505.07342115400024,,,,,,,,,,,,,,,,,,,,,,,,,,,,,,,,,,,,,,,06,010,2022-09-26_10h40.58.936,test2,2022.2.4,59.952487294108984,
0,0,0,0,71,0,71,0,505.07342115400024,505.07342115400024,505.07342115400024,505.07342115400024,505.07342115400024,505.07342115400024,505.07342115400024,1,1,azul,1,['N_B'],507.79270612300024,507.79270612300024,507.79270612300024,507.79270612300024,509.81091871900026,509.81091871900026,509.81091871900026,509.81091871900026,509.81091871900026,509.81091871900026,509.81091871900026,509.81091871900026,511.8477666130002,511.8477666130002,511.8477666130002,511.8477666130002,,,,,,,,,,,,,,,,,,,,,,,,,,,,,,,,,,,,,,,06,010,2022-09-26_10h40.58.936,test2,2022.2.4,59.952487294108984,
0,0,0,0,72,0,72,0,511.8477666130002,511.8477666130002,511.8477666130002,511.8477666130002,511.8477666130002,511.8477666130002,511.8477666130002,1,1,azul,1,['N_B'],513.9327283359999,513.9327283359999,513.9327283359999,513.9327283359999,515.9682948199998,515.9682948199998,515.9682948199998,515.9682948199998,515.9682948199998,515.9682948199998,515.9682948199998,515.9682948199998,518.0046532979995,518.0046532979995,518.0046532979995,518.0046532979995,,,,,,,,,,,,,,,,,,,,,,,,,,,,,,,,,,,,,,,06,010,2022-09-26_10h40.58.936,test2,2022.2.4,59.952487294108984,
0,0,0,0,73,0,73,0,518.0046532979995,518.0046532979995,518.0046532979995,518.0046532979995,518.0046532979995,518.0046532979995,518.0046532979995,1,-1,azul,1,['N_B'],519.990195075,519.990195075,519.990195075,519.990195075,522.0253548069995,522.0253548069995,522.0253548069995,522.0253548069995,522.0253548069995,522.0253548069995,522.0253548069995,522.0253548069995,524.060821346,524.060821346,524.060821346,524.060821346,,,,,,,,,,,,,,,,,,,,,,,,,,,,,,,,,,,,,,,06,010,2022-09-26_10h40.58.936,test2,2022.2.4,59.952487294108984,
0,0,0,0,74,0,74,0,524.060821346,524.060821346,524.060821346,524.060821346,524.060821346,524.060821346,524.060821346,1,-1,azul,1,['N_B'],525.846107714,525.846107714,525.846107714,525.846107714,527.882274865,527.882274865,527.882274865,527.882274865,527.882274865,527.882274865,527.882274865,527.882274865,529.9175852509998,529.9175852509998,529.9175852509998,529.9175852509998,,,,,,,,,,,,,,,,,,,,,,,,,,,,,,,,,,,,,,,06,010,2022-09-26_10h40.58.936,test2,2022.2.4,59.952487294108984,
0,0,0,0,75,0,75,0,529.9175852509998,529.9175852509998,529.9175852509998,529.9175852509998,529.9175852509998,529.9175852509998,529.9175852509998,1,-1,azul,1,['N_B'],532.3866643399997,532.3866643399997,532.3866643399997,532.3866643399997,534.4231454869996,534.4231454869996,534.4231454869996,534.4231454869996,534.4231454869996,534.4231454869996,534.4231454869996,534.4231454869996,536.4579483990001,536.4579483990001,536.4579483990001,536.4579483990001,,,,,,,,,,,,,,,,,,,,,,,,,,,,,,,,,,,,,,,06,010,2022-09-26_10h40.58.936,test2,2022.2.4,59.952487294108984,
0,0,0,0,76,0,76,0,536.4579483990001,536.4579483990001,536.4579483990001,536.4579483990001,536.4579483990001,536.4579483990001,536.4579483990001,-1,-1,rojo,1,['N_B'],538.3104328069994,538.3104328069994,538.3104328069994,538.3104328069994,540.3454825909994,540.3454825909994,540.3454825909994,540.3454825909994,540.3454825909994,540.3454825909994,540.3454825909994,540.3454825909994,542.3808466290002,542.3808466290002,542.3808466290002,542.3808466290002,,,,,,,,,,,,,,,,,,,,,,,,,,,,,,,,,,,,,,,06,010,2022-09-26_10h40.58.936,test2,2022.2.4,59.952487294108984,
0,0,0,0,77,0,77,0,542.3808466290002,542.3808466290002,542.3808466290002,542.3808466290002,542.3808466290002,542.3808466290002,542.3808466290002,1,-1,azul,1,['N_B'],544.366142762,544.366142762,544.366142762,544.366142762,546.4022504509994,546.4022504509994,546.4022504509994,546.4022504509994,546.4022504509994,546.4022504509994,546.4022504509994,546.4022504509994,548.4383807919994,548.4383807919994,548.4383807919994,548.4383807919994,,,,,,,,,,,,,,,,,,,,,,,,,,,,,,,,,,,,,,,06,010,2022-09-26_10h40.58.936,test2,2022.2.4,59.952487294108984,
0,0,0,0,78,0,78,0,548.4383807919994,548.4383807919994,548.4383807919994,548.4383807919994,548.4383807919994,548.4383807919994,548.4383807919994,1,-1,azul,1,['N_B'],550.323214731,550.323214731,550.323214731,550.323214731,552.3593302569998,552.3593302569998,552.3593302569998,552.3593302569998,552.3593302569998,552.3593302569998,552.3593302569998,552.3593302569998,554.3944668439999,554.3944668439999,554.3944668439999,554.3944668439999,,,,,,,,,,,,,,,,,,,,,,,,,,,,,,,,,,,,,,,06,010,2022-09-26_10h40.58.936,test2,2022.2.4,59.952487294108984,
0,0,0,0,79,0,79,0,554.3944668439999,554.3944668439999,554.3944668439999,554.3944668439999,554.3944668439999,554.3944668439999,554.3944668439999,1,1,azul,1,['N_B'],556.8139867399996,556.8139867399996,556.8139867399996,556.8139867399996,558.8490367750001,558.8490367750001,558.8490367750001,558.8490367750001,558.8490367750001,558.8490367750001,558.8490367750001,558.8490367750001,560.8851107199998,560.8851107199998,560.8851107199998,560.8851107199998,,,,,,,,,,,,,,,,,,,,,,,,,,,,,,,,,,,,,,,06,010,2022-09-26_10h40.58.936,test2,2022.2.4,59.952487294108984,
0,0,0,0,80,0,80,0,560.8851107199998,560.8851107199998,560.8851107199998,560.8851107199998,560.8851107199998,560.8851107199998,560.8851107199998,1,-1,azul,1,['N_B'],563.3710923560002,563.3710923560002,563.3710923560002,563.3710923560002,565.4069923070001,565.4069923070001,565.4069923070001,565.4069923070001,565.4069923070001,565.4069923070001,565.4069923070001,565.4069923070001,567.4416020970002,567.4416020970002,567.4416020970002,567.4416020970002,,,,,,,,,,,,,,,,,,,,,,,,,,,,,,,,,,,,,,,06,010,2022-09-26_10h40.58.936,test2,2022.2.4,59.952487294108984,
0,0,0,0,81,0,81,0,567.4416020970002,567.4416020970002,567.4416020970002,567.4416020970002,567.4416020970002,567.4416020970002,567.4416020970002,1,1,azul,1,['N_B'],571.5302409939995,571.5302409939995,571.5302409939995,571.5302409939995,573.5652921390001,573.5652921390001,573.5652921390001,573.5652921390001,573.5652921390001,573.5652921390001,573.5652921390001,573.5652921390001,575.6012788130001,575.6012788130001,575.6012788130001,575.6012788130001,,,,,,,,,,,,,,,,,,,,,,,,,,,,,,,,,,,,,,,06,010,2022-09-26_10h40.58.936,test2,2022.2.4,59.952487294108984,
0,0,0,0,82,0,82,0,575.6012788130001,575.6012788130001,575.6012788130001,575.6012788130001,575.6012788130001,575.6012788130001,575.6012788130001,1,-1,azul,1,['N_B'],576.9689438799996,576.9689438799996,576.9689438799996,576.9689438799996,579.0048470719994,579.0048470719994,579.0048470719994,579.0048470719994,579.0048470719994,579.0048470719994,579.0048470719994,579.0048470719994,581.040033532,581.040033532,581.040033532,581.040033532,,,,,,,,,,,,,,,,,,,,,,,,,,,,,,,,,,,,,,,06,010,2022-09-26_10h40.58.936,test2,2022.2.4,59.952487294108984,
0,0,0,0,83,0,83,0,581.040033532,581.040033532,581.040033532,581.040033532,581.040033532,581.040033532,581.040033532,1,1,azul,1,['N_B'],582.7919365560001,582.7919365560001,582.7919365560001,582.7919365560001,584.828057744,584.828057744,584.828057744,584.828057744,584.828057744,584.828057744,584.828057744,584.828057744,586.8631274089994,586.8631274089994,586.8631274089994,586.8631274089994,,,,,,,,,,,,,,,,,,,,,,,,,,,,,,,,,,,,,,,06,010,2022-09-26_10h40.58.936,test2,2022.2.4,59.952487294108984,
0,0,0,0,84,0,84,0,586.8631274089994,586.8631274089994,586.8631274089994,586.8631274089994,586.8631274089994,586.8631274089994,586.8631274089994,-1,-1,rojo,1,['N_B'],588.2990017339998,588.2990017339998,588.2990017339998,588.2990017339998,590.3342226939994,590.3342226939994,590.3342226939994,590.3342226939994,590.3342226939994,590.3342226939994,590.3342226939994,590.3342226939994,592.3693803449996,592.3693803449996,592.3693803449996,592.3693803449996,,,,,,,,,,,,,,,,,,,,,,,,,,,,,,,,,,,,,,,06,010,2022-09-26_10h40.58.936,test2,2022.2.4,59.952487294108984,
0,0,0,0,85,0,85,0,592.3693803449996,592.3693803449996,592.3693803449996,592.3693803449996,592.3693803449996,592.3693803449996,592.3693803449996,1,-1,azul,1,['N_B'],594.1211547049998,594.1211547049998,594.1211547049998,594.1211547049998,596.15771356,596.15771356,596.15771356,596.15771356,596.15771356,596.15771356,596.15771356,596.15771356,598.1926572339999,598.1926572339999,598.1926572339999,598.1926572339999,,,,,,,,,,,,,,,,,,,,,,,,,,,,,,,,,,,,,,,06,010,2022-09-26_10h40.58.936,test2,2022.2.4,59.952487294108984,
0,0,0,0,86,0,86,0,598.1926572339999,598.1926572339999,598.1926572339999,598.1926572339999,598.1926572339999,598.1926572339999,598.1926572339999,1,-1,azul,1,['N_B'],599.627888686,599.627888686,599.627888686,599.627888686,601.6638133229999,601.6638133229999,601.6638133229999,601.6638133229999,601.6638133229999,601.6638133229999,601.6638133229999,601.6638133229999,603.6988225539999,603.6988225539999,603.6988225539999,603.6988225539999,,,,,,,,,,,,,,,,,,,,,,,,,,,,,,,,,,,,,,,06,010,2022-09-26_10h40.58.936,test2,2022.2.4,59.952487294108984,
0,0,0,0,87,0,87,0,603.6988225539999,603.6988225539999,603.6988225539999,603.6988225539999,603.6988225539999,603.6988225539999,603.6988225539999,1,-1,azul,1,['N_B'],605.1170669849998,605.1170669849998,605.1170669849998,605.1170669849998,607.1534161199997,607.1534161199997,607.1534161199997,607.1534161199997,607.1534161199997,607.1534161199997,607.1534161199997,607.1534161199997,609.1882072569997,609.1882072569997,609.1882072569997,609.1882072569997,,,,,,,,,,,,,,,,,,,,,,,,,,,,,,,,,,,,,,,06,010,2022-09-26_10h40.58.936,test2,2022.2.4,59.952487294108984,
0,0,0,0,88,0,88,0,609.1882072569997,609.1882072569997,609.1882072569997,609.1882072569997,609.1882072569997,609.1882072569997,609.1882072569997,1,-1,azul,1,['N_B'],610.6063170309999,610.6063170309999,610.6063170309999,610.6063170309999,612.6423686190001,612.6423686190001,612.6423686190001,612.6423686190001,612.6423686190001,612.6423686190001,612.6423686190001,612.6423686190001,614.6781429040002,614.6781429040002,614.6781429040002,614.6781429040002,,,,,,,,,,,,,,,,,,,,,,,,,,,,,,,,,,,,,,,06,010,2022-09-26_10h40.58.936,test2,2022.2.4,59.952487294108984,
0,0,0,0,89,0,89,0,614.6781429040002,614.6781429040002,614.6781429040002,614.6781429040002,614.6781429040002,614.6781429040002,614.6781429040002,1,1,azul,0,['N_A'],619.3492661969995,619.3492661969995,619.3492661969995,619.3492661969995,621.3855216209995,621.3855216209995,621.3855216209995,621.3855216209995,621.3855216209995,621.3855216209995,621.3855216209995,621.3855216209995,623.4205957869999,623.4205957869999,623.4205957869999,623.4205957869999,,,,,,,,,,,,,,,,,,,,,,,,,,,,,,,,,,,,,,,06,010,2022-09-26_10h40.58.936,test2,2022.2.4,59.952487294108984,
0,0,0,0,90,0,90,0,623.4205957869999,623.4205957869999,623.4205957869999,623.4205957869999,623.4205957869999,623.4205957869999,623.4205957869999,1,-1,rojo,1,['N_A'],624.955242518,624.955242518,624.955242518,624.955242518,626.991023044,626.991023044,626.991023044,626.991023044,626.991023044,626.991023044,626.991023044,626.991023044,629.0263220409997,629.0263220409997,629.0263220409997,629.0263220409997,,,,,,,,,,,,,,,,,,,,,,,,,,,,,,,,,,,,,,,06,010,2022-09-26_10h40.58.936,test2,2022.2.4,59.952487294108984,
0,0,0,0,91,0,91,0,629.0263220409997,629.0263220409997,629.0263220409997,629.0263220409997,629.0263220409997,629.0263220409997,629.0263220409997,1,-1,rojo,1,['N_A'],631.4296145210001,631.4296145210001,631.4296145210001,631.4296145210001,633.4652857029996,633.4652857029996,633.4652857029996,633.4652857029996,633.4652857029996,633.4652857029996,633.4652857029996,633.4652857029996,635.5009930589995,635.5009930589995,635.5009930589995,635.5009930589995,,,,,,,,,,,,,,,,,,,,,,,,,,,,,,,,,,,,,,,06,010,2022-09-26_10h40.58.936,test2,2022.2.4,59.952487294108984,
0,0,0,0,92,0,92,0,635.5009930589995,635.5009930589995,635.5009930589995,635.5009930589995,635.5009930589995,635.5009930589995,635.5009930589995,-1,1,azul,1,['N_A'],636.5184551470002,636.5184551470002,636.5184551470002,636.5184551470002,638.5537102549997,638.5537102549997,638.5537102549997,638.5537102549997,638.5537102549997,638.5537102549997,638.5537102549997,638.5537102549997,640.590045205,640.590045205,640.590045205,640.590045205,,,,,,,,,,,,,,,,,,,,,,,,,,,,,,,,,,,,,,,06,010,2022-09-26_10h40.58.936,test2,2022.2.4,59.952487294108984,
0,0,0,0,93,0,93,0,640.590045205,640.590045205,640.590045205,640.590045205,640.590045205,640.590045205,640.590045205,1,-1,rojo,1,['N_A'],642.0412153139996,642.0412153139996,642.0412153139996,642.0412153139996,644.0772475060003,644.0772475060003,644.0772475060003,644.0772475060003,644.0772475060003,644.0772475060003,644.0772475060003,644.0772475060003,646.1117281500001,646.1117281500001,646.1117281500001,646.1117281500001,,,,,,,,,,,,,,,,,,,,,,,,,,,,,,,,,,,,,,,06,010,2022-09-26_10h40.58.936,test2,2022.2.4,59.952487294108984,
0,0,0,0,94,0,94,0,646.1117281500001,646.1117281500001,646.1117281500001,646.1117281500001,646.1117281500001,646.1117281500001,646.1117281500001,1,-1,rojo,1,['N_A'],647.647223428,647.647223428,647.647223428,647.647223428,649.6830435399997,649.6830435399997,649.6830435399997,649.6830435399997,649.6830435399997,649.6830435399997,649.6830435399997,649.6830435399997,651.7185541389999,651.7185541389999,651.7185541389999,651.7185541389999,,,,,,,,,,,,,,,,,,,,,,,,,,,,,,,,,,,,,,,06,010,2022-09-26_10h40.58.936,test2,2022.2.4,59.952487294108984,
0,0,0,0,95,0,95,0,651.7185541389999,651.7185541389999,651.7185541389999,651.7185541389999,651.7185541389999,651.7185541389999,651.7185541389999,1,-1,rojo,1,['N_A'],653.8869913369999,653.8869913369999,653.8869913369999,653.8869913369999,655.9238531319997,655.9238531319997,655.9238531319997,655.9238531319997,655.9238531319997,655.9238531319997,655.9238531319997,655.9238531319997,657.9583837179998,657.9583837179998,657.9583837179998,657.9583837179998,,,,,,,,,,,,,,,,,,,,,,,,,,,,,,,,,,,,,,,06,010,2022-09-26_10h40.58.936,test2,2022.2.4,59.952487294108984,
0,0,0,0,96,0,96,0,657.9583837179998,657.9583837179998,657.9583837179998,657.9583837179998,657.9583837179998,657.9583837179998,657.9583837179998,1,-1,rojo,1,['N_A'],659.7943358920002,659.7943358920002,659.7943358920002,659.7943358920002,661.8297954059999,661.8297954059999,661.8297954059999,661.8297954059999,661.8297954059999,661.8297954059999,661.8297954059999,661.8297954059999,663.8648495709995,663.8648495709995,663.8648495709995,663.8648495709995,,,,,,,,,,,,,,,,,,,,,,,,,,,,,,,,,,,,,,,06,010,2022-09-26_10h40.58.936,test2,2022.2.4,59.952487294108984,
0,0,0,0,97,0,97,0,663.8648495709995,663.8648495709995,663.8648495709995,663.8648495709995,663.8648495709995,663.8648495709995,663.8648495709995,1,1,rojo,1,['N_A'],665.6503138440003,665.6503138440003,665.6503138440003,665.6503138440003,667.6685778219999,667.6685778219999,667.6685778219999,667.6685778219999,667.6685778219999,667.6685778219999,667.6685778219999,667.6685778219999,669.7046475340003,669.7046475340003,669.7046475340003,669.7046475340003,,,,,,,,,,,,,,,,,,,,,,,,,,,,,,,,,,,,,,,06,010,2022-09-26_10h40.58.936,test2,2022.2.4,59.952487294108984,
0,0,0,0,98,0,98,0,669.7046475340003,669.7046475340003,669.7046475340003,669.7046475340003,669.7046475340003,669.7046475340003,669.7046475340003,-1,1,azul,1,['N_A'],671.222917946,671.222917946,671.222917946,671.222917946,673.2588176210002,673.2588176210002,673.2588176210002,673.2588176210002,673.2588176210002,673.2588176210002,673.2588176210002,673.2588176210002,675.294413564,675.294413564,675.294413564,675.294413564,,,,,,,,,,,,,,,,,,,,,,,,,,,,,,,,,,,,,,,06,010,2022-09-26_10h40.58.936,test2,2022.2.4,59.952487294108984,
0,0,0,0,99,0,99,0,675.294413564,675.294413564,675.294413564,675.294413564,675.294413564,675.294413564,675.294413564,1,-1,rojo,1,['N_A'],677.1794268200001,677.1794268200001,677.1794268200001,677.1794268200001,679.2155171659997,679.2155171659997,679.2155171659997,679.2155171659997,679.2155171659997,679.2155171659997,679.2155171659997,679.2155171659997,681.2510454220001,681.2510454220001,681.2510454220001,681.2510454220001,,,,,,,,,,,,,,,,,,,,,,,,,,,,,,,,,,,,,,,06,010,2022-09-26_10h40.58.936,test2,2022.2.4,59.952487294108984,
0,0,0,0,100,0,100,0,681.2510454220001,681.2510454220001,681.2510454220001,681.2510454220001,681.2510454220001,681.2510454220001,681.2510454220001,1,1,rojo,1,['N_A'],682.6689806959994,682.6689806959994,682.6689806959994,682.6689806959994,684.7055701479994,684.7055701479994,684.7055701479994,684.7055701479994,684.7055701479994,684.7055701479994,684.7055701479994,684.7055701479994,686.7408873300001,686.7408873300001,686.7408873300001,686.7408873300001,,,,,,,,,,,,,,,,,,,,,,,,,,,,,,,,,,,,,,,06,010,2022-09-26_10h40.58.936,test2,2022.2.4,59.952487294108984,
0,0,0,0,101,0,101,0,686.7408873300001,686.7408873300001,686.7408873300001,686.7408873300001,686.7408873300001,686.7408873300001,686.7408873300001,-1,-1,azul,1,['N_A'],688.4922557529999,688.4922557529999,688.4922557529999,688.4922557529999,690.5283767559995,690.5283767559995,690.5283767559995,690.5283767559995,690.5283767559995,690.5283767559995,690.5283767559995,690.5283767559995,692.5636309820002,692.5636309820002,692.5636309820002,692.5636309820002,,,,,,,,,,,,,,,,,,,,,,,,,,,,,,,,,,,,,,,06,010,2022-09-26_10h40.58.936,test2,2022.2.4,59.952487294108984,
0,0,0,0,102,0,102,0,692.5636309820002,692.5636309820002,692.5636309820002,692.5636309820002,692.5636309820002,692.5636309820002,692.5636309820002,1,-1,rojo,1,['N_A'],694.2148438120003,694.2148438120003,694.2148438120003,694.2148438120003,696.2508885520001,696.2508885520001,696.2508885520001,696.2508885520001,696.2508885520001,696.2508885520001,696.2508885520001,696.2508885520001,698.2868285799996,698.2868285799996,698.2868285799996,698.2868285799996,,,,,,,,,,,,,,,,,,,,,,,,,,,,,,,,,,,,,,,06,010,2022-09-26_10h40.58.936,test2,2022.2.4,59.952487294108984,
0,0,0,0,103,0,103,0,698.2868285799996,698.2868285799996,698.2868285799996,698.2868285799996,698.2868285799996,698.2868285799996,698.2868285799996,1,-1,rojo,1,['N_A'],699.7387587029998,699.7387587029998,699.7387587029998,699.7387587029998,701.7741002499997,701.7741002499997,701.7741002499997,701.7741002499997,701.7741002499997,701.7741002499997,701.7741002499997,701.7741002499997,703.8096312789994,703.8096312789994,703.8096312789994,703.8096312789994,,,,,,,,,,,,,,,,,,,,,,,,,,,,,,,,,,,,,,,06,010,2022-09-26_10h40.58.936,test2,2022.2.4,59.952487294108984,
0,0,0,0,104,0,104,0,703.8096312789994,703.8096312789994,703.8096312789994,703.8096312789994,703.8096312789994,703.8096312789994,703.8096312789994,1,-1,rojo,1,['N_A'],705.428272569,705.428272569,705.428272569,705.428272569,707.4632883599998,707.4632883599998,707.4632883599998,707.4632883599998,707.4632883599998,707.4632883599998,707.4632883599998,707.4632883599998,709.4993370319999,709.4993370319999,709.4993370319999,709.4993370319999,,,,,,,,,,,,,,,,,,,,,,,,,,,,,,,,,,,,,,,06,010,2022-09-26_10h40.58.936,test2,2022.2.4,59.952487294108984,
0,0,0,0,105,0,105,0,709.4993370319999,709.4993370319999,709.4993370319999,709.4993370319999,709.4993370319999,709.4993370319999,709.4993370319999,-1,1,azul,1,['N_A'],710.5169690299999,710.5169690299999,710.5169690299999,710.5169690299999,712.5357386719998,712.5357386719998,712.5357386719998,712.5357386719998,712.5357386719998,712.5357386719998,712.5357386719998,712.5357386719998,714.5707550139996,714.5707550139996,714.5707550139996,714.5707550139996,,,,,,,,,,,,,,,,,,,,,,,,,,,,,,,,,,,,,,,06,010,2022-09-26_10h40.58.936,test2,2022.2.4,59.952487294108984,
0,0,0,0,106,0,106,0,714.5707550139996,714.5707550139996,714.5707550139996,714.5707550139996,714.5707550139996,714.5707550139996,714.5707550139996,1,1,rojo,1,['N_A'],715.5889222409996,715.5889222409996,715.5889222409996,715.5889222409996,717.6253088619997,717.6253088619997,717.6253088619997,717.6253088619997,717.6253088619997,717.6253088619997,717.6253088619997,717.6253088619997,719.6595738629994,719.6595738629994,719.6595738629994,719.6595738629994,,,,,,,,,,,,,,,,,,,,,,,,,,,,,,,,,,,,,,,06,010,2022-09-26_10h40.58.936,test2,2022.2.4,59.952487294108984,
0,0,0,0,107,0,107,0,719.6595738629994,719.6595738629994,719.6595738629994,719.6595738629994,719.6595738629994,719.6595738629994,719.6595738629994,1,-1,rojo,1,['N_A'],721.078367866,721.078367866,721.078367866,721.078367866,723.1144687790002,723.1144687790002,723.1144687790002,723.1144687790002,723.1144687790002,723.1144687790002,723.1144687790002,723.1144687790002,725.1489747629994,725.1489747629994,725.1489747629994,725.1489747629994,,,,,,,,,,,,,,,,,,,,,,,,,,,,,,,,,,,,,,,06,010,2022-09-26_10h40.58.936,test2,2022.2.4,59.952487294108984,
0,0,0,0,108,0,108,0,725.1489747629994,725.1489747629994,725.1489747629994,725.1489747629994,725.1489747629994,725.1489747629994,725.1489747629994,-1,1,azul,1,['N_A'],726.9014832579996,726.9014832579996,726.9014832579996,726.9014832579996,728.9367491160001,728.9367491160001,728.9367491160001,728.9367491160001,728.9367491160001,728.9367491160001,728.9367491160001,728.9367491160001,730.9722751929994,730.9722751929994,730.9722751929994,730.9722751929994,,,,,,,,,,,,,,,,,,,,,,,,,,,,,,,,,,,,,,,06,010,2022-09-26_10h40.58.936,test2,2022.2.4,59.952487294108984,
0,0,0,0,109,0,109,0,730.9722751929994,730.9722751929994,730.9722751929994,730.9722751929994,730.9722751929994,730.9722751929994,730.9722751929994,1,-1,rojo,1,['N_A'],732.4745947809997,732.4745947809997,732.4745947809997,732.4745947809997,734.5098464900002,734.5098464900002,734.5098464900002,734.5098464900002,734.5098464900002,734.5098464900002,734.5098464900002,734.5098464900002,736.5451219679999,736.5451219679999,736.5451219679999,736.5451219679999,,,,,,,,,,,,,,,,,,,,,,,,,,,,,,,,,,,,,,,06,010,2022-09-26_10h40.58.936,test2,2022.2.4,59.952487294108984,
0,0,0,0,110,0,110,0,736.5451219679999,736.5451219679999,736.5451219679999,736.5451219679999,736.5451219679999,736.5451219679999,736.5451219679999,1,1,rojo,1,['N_A'],737.7963928849995,737.7963928849995,737.7963928849995,737.7963928849995,739.8326176740002,739.8326176740002,739.8326176740002,739.8326176740002,739.8326176740002,739.8326176740002,739.8326176740002,739.8326176740002,741.868021796,741.868021796,741.868021796,741.868021796,,,,,,,,,,,,,,,,,,,,,,,,,,,,,,,,,,,,,,,06,010,2022-09-26_10h40.58.936,test2,2022.2.4,59.952487294108984,
0,0,0,0,111,0,111,0,741.868021796,741.868021796,741.868021796,741.868021796,741.868021796,741.868021796,741.868021796,1,-1,rojo,1,['N_A'],743.2698107549995,743.2698107549995,743.2698107549995,743.2698107549995,745.3050408829995,745.3050408829995,745.3050408829995,745.3050408829995,745.3050408829995,745.3050408829995,745.3050408829995,745.3050408829995,747.3409534980001,747.3409534980001,747.3409534980001,747.3409534980001,,,,,,,,,,,,,,,,,,,,,,,,,,,,,,,,,,,,,,,06,010,2022-09-26_10h40.58.936,test2,2022.2.4,59.952487294108984,
0,0,0,0,112,0,112,0,747.3409534980001,747.3409534980001,747.3409534980001,747.3409534980001,747.3409534980001,747.3409534980001,747.3409534980001,-1,1,azul,1,['N_A'],749.0927204310001,749.0927204310001,749.0927204310001,749.0927204310001,751.1103509639997,751.1103509639997,751.1103509639997,751.1103509639997,751.1103509639997,751.1103509639997,751.1103509639997,751.1103509639997,753.1475366739996,753.1475366739996,753.1475366739996,753.1475366739996,,,,,,,,,,,,,,,,,,,,,,,,,,,,,,,,,,,,,,,06,010,2022-09-26_10h40.58.936,test2,2022.2.4,59.952487294108984,
0,0,0,0,113,0,113,0,753.1475366739996,753.1475366739996,753.1475366739996,753.1475366739996,753.1475366739996,753.1475366739996,753.1475366739996,-1,1,azul,1,['N_A'],754.5989243889999,754.5989243889999,754.5989243889999,754.5989243889999,756.6174591359995,756.6174591359995,756.6174591359995,756.6174591359995,756.6174591359995,756.6174591359995,756.6174591359995,756.6174591359995,758.6533623549994,758.6533623549994,758.6533623549994,758.6533623549994,,,,,,,,,,,,,,,,,,,,,,,,,,,,,,,,,,,,,,,06,010,2022-09-26_10h40.58.936,test2,2022.2.4,59.952487294108984,
0,0,0,0,114,0,114,0,758.6533623549994,758.6533623549994,758.6533623549994,758.6533623549994,758.6533623549994,758.6533623549994,758.6533623549994,1,1,rojo,1,['N_A'],760.4883673269997,760.4883673269997,760.4883673269997,760.4883673269997,762.5245963429998,762.5245963429998,762.5245963429998,762.5245963429998,762.5245963429998,762.5245963429998,762.5245963429998,762.5245963429998,764.5598131739998,764.5598131739998,764.5598131739998,764.5598131739998,,,,,,,,,,,,,,,,,,,,,,,,,,,,,,,,,,,,,,,06,010,2022-09-26_10h40.58.936,test2,2022.2.4,59.952487294108984,
0,0,0,0,115,0,115,0,764.5598131739998,764.5598131739998,764.5598131739998,764.5598131739998,764.5598131739998,764.5598131739998,764.5598131739998,1,-1,rojo,1,['N_A'],765.9444534180002,765.9444534180002,765.9444534180002,765.9444534180002,767.9799496420001,767.9799496420001,767.9799496420001,767.9799496420001,767.9799496420001,767.9799496420001,767.9799496420001,767.9799496420001,770.0158456379995,770.0158456379995,770.0158456379995,770.0158456379995,,,,,,,,,,,,,,,,,,,,,,,,,,,,,,,,,,,,,,,06,010,2022-09-26_10h40.58.936,test2,2022.2.4,59.952487294108984,
0,0,0,0,116,0,116,0,770.0158456379995,770.0158456379995,770.0158456379995,770.0158456379995,770.0158456379995,770.0158456379995,770.0158456379995,1,-1,rojo,1,['N_A'],771.6337265559996,771.6337265559996,771.6337265559996,771.6337265559996,773.66977916,773.66977916,773.66977916,773.66977916,773.66977916,773.66977916,773.66977916,773.66977916,775.705503919,775.705503919,775.705503919,775.705503919,,,,,,,,,,,,,,,,,,,,,,,,,,,,,,,,,,,,,,,06,010,2022-09-26_10h40.58.936,test2,2022.2.4,59.952487294108984,
0,0,0,0,117,0,117,0,775.705503919,775.705503919,775.705503919,775.705503919,775.705503919,775.705503919,775.705503919,1,1,rojo,1,['N_A'],777.2732897269998,777.2732897269998,777.2732897269998,777.2732897269998,779.2922046469994,779.2922046469994,779.2922046469994,779.2922046469994,779.2922046469994,779.2922046469994,779.2922046469994,779.2922046469994,781.3281104509997,781.3281104509997,781.3281104509997,781.3281104509997,,,,,,,,,,,,,,,,,,,,,,,,,,,,,,,,,,,,,,,06,010,2022-09-26_10h40.58.936,test2,2022.2.4,59.952487294108984,
0,0,0,0,118,0,118,0,781.3281104509997,781.3281104509997,781.3281104509997,781.3281104509997,781.3281104509997,781.3281104509997,781.3281104509997,1,1,rojo,1,['N_A'],783.7648579159995,783.7648579159995,783.7648579159995,783.7648579159995,785.7827607459994,785.7827607459994,785.7827607459994,785.7827607459994,785.7827607459994,785.7827607459994,785.7827607459994,785.7827607459994,787.8189583799995,787.8189583799995,787.8189583799995,787.8189583799995,,,,,,,,,,,,,,,,,,,,,,,,,,,,,,,,,,,,,,,06,010,2022-09-26_10h40.58.936,test2,2022.2.4,59.952487294108984,
0,0,0,0,119,0,119,0,787.8189583799995,787.8189583799995,787.8189583799995,787.8189583799995,787.8189583799995,787.8189583799995,787.8189583799995,1,1,rojo,1,['N_A'],789.236813089,789.236813089,789.236813089,789.236813089,791.2729452799995,791.2729452799995,791.2729452799995,791.2729452799995,791.2729452799995,791.2729452799995,791.2729452799995,791.2729452799995,793.308408932,793.308408932,793.308408932,793.308408932,,,,,,,,,,,,,,,,,,,,,,,,,,,,,,,,,,,,,,,06,010,2022-09-26_10h40.58.936,test2,2022.2.4,59.952487294108984,
0,0,0,0,120,0,120,0,793.308408932,793.308408932,793.308408932,793.308408932,793.308408932,793.308408932,793.308408932,1,-1,rojo,1,['N_A'],795.043261844,795.043261844,795.043261844,795.043261844,797.0794775140002,797.0794775140002,797.0794775140002,797.0794775140002,797.0794775140002,797.0794775140002,797.0794775140002,797.0794775140002,799.1138848230003,799.1138848230003,799.1138848230003,799.1138848230003,,,,,,,,,,,,,,,,,,,,,,,,,,,,,,,,,,,,,,,06,010,2022-09-26_10h40.58.936,test2,2022.2.4,59.952487294108984,
0,0,0,0,121,0,121,0,799.1138848230003,799.1138848230003,799.1138848230003,799.1138848230003,799.1138848230003,799.1138848230003,799.1138848230003,1,-1,rojo,1,['N_A'],801.366377626,801.366377626,801.366377626,801.366377626,803.402581462,803.402581462,803.402581462,803.402581462,803.402581462,803.402581462,803.402581462,803.402581462,805.438385677,805.438385677,805.438385677,805.438385677,,,,,,,,,,,,,,,,,,,,,,,,,,,,,,,,,,,,,,,06,010,2022-09-26_10h40.58.936,test2,2022.2.4,59.952487294108984,
0,0,0,0,122,0,122,0,805.438385677,805.438385677,805.438385677,805.438385677,805.438385677,805.438385677,805.438385677,-1,1,azul,1,['N_A'],807.1572118280001,807.1572118280001,807.1572118280001,807.1572118280001,809.174445779,809.174445779,809.174445779,809.174445779,809.174445779,809.174445779,809.174445779,809.174445779,811.2104972070001,811.2104972070001,811.2104972070001,811.2104972070001,,,,,,,,,,,,,,,,,,,,,,,,,,,,,,,,,,,,,,,06,010,2022-09-26_10h40.58.936,test2,2022.2.4,59.952487294108984,
0,0,0,0,123,0,123,0,811.2104972070001,811.2104972070001,811.2104972070001,811.2104972070001,811.2104972070001,811.2104972070001,811.2104972070001,-1,1,azul,1,['N_A'],813.2631749020002,813.2631749020002,813.2631749020002,813.2631749020002,815.2824966649996,815.2824966649996,815.2824966649996,815.2824966649996,815.2824966649996,815.2824966649996,815.2824966649996,815.2824966649996,817.3180912090002,817.3180912090002,817.3180912090002,817.3180912090002,,,,,,,,,,,,,,,,,,,,,,,,,,,,,,,,,,,,,,,06,010,2022-09-26_10h40.58.936,test2,2022.2.4,59.952487294108984,
0,0,0,0,124,0,124,0,817.3180912090002,817.3180912090002,817.3180912090002,817.3180912090002,817.3180912090002,817.3180912090002,817.3180912090002,-1,1,azul,1,['N_A'],820.2377042809994,820.2377042809994,820.2377042809994,820.2377042809994,822.273224564,822.273224564,822.273224564,822.273224564,822.273224564,822.273224564,822.273224564,822.273224564,824.3088255829998,824.3088255829998,824.3088255829998,824.3088255829998,,,,,,,,,,,,,,,,,,,,,,,,,,,,,,,,,,,,,,,06,010,2022-09-26_10h40.58.936,test2,2022.2.4,59.952487294108984,
0,0,0,0,125,0,125,0,824.3088255829998,824.3088255829998,824.3088255829998,824.3088255829998,824.3088255829998,824.3088255829998,824.3088255829998,1,-1,rojo,1,['N_A'],826.2610506179999,826.2610506179999,826.2610506179999,826.2610506179999,828.2961999190002,828.2961999190002,828.2961999190002,828.2961999190002,828.2961999190002,828.2961999190002,828.2961999190002,828.2961999190002,830.3328643220002,830.3328643220002,830.3328643220002,830.3328643220002,,,,,,,,,,,,,,,,,,,,,,,,,,,,,,,,,,,,,,,06,010,2022-09-26_10h40.58.936,test2,2022.2.4,59.952487294108984,
0,0,0,0,126,0,126,0,830.3328643220002,830.3328643220002,830.3328643220002,830.3328643220002,830.3328643220002,830.3328643220002,830.3328643220002,1,-1,rojo,1,['N_A'],831.93352073,831.93352073,831.93352073,831.93352073,833.9699752469996,833.9699752469996,833.9699752469996,833.9699752469996,833.9699752469996,833.9699752469996,833.9699752469996,833.9699752469996,836.0055888529996,836.0055888529996,836.0055888529996,836.0055888529996,,,,,,,,,,,,,,,,,,,,,,,,,,,,,,,,,,,,,,,06,010,2022-09-26_10h40.58.936,test2,2022.2.4,59.952487294108984,
0,0,0,0,127,0,127,0,836.0055888529996,836.0055888529996,836.0055888529996,836.0055888529996,836.0055888529996,836.0055888529996,836.0055888529996,1,-1,rojo,1,['N_A'],837.57352825,837.57352825,837.57352825,837.57352825,839.6085948909995,839.6085948909995,839.6085948909995,839.6085948909995,839.6085948909995,839.6085948909995,839.6085948909995,839.6085948909995,841.6453498689998,841.6453498689998,841.6453498689998,841.6453498689998,,,,,,,,,,,,,,,,,,,,,,,,,,,,,,,,,,,,,,,06,010,2022-09-26_10h40.58.936,test2,2022.2.4,59.952487294108984,
0,0,0,0,128,0,128,0,841.6453498689998,841.6453498689998,841.6453498689998,841.6453498689998,841.6453498689998,841.6453498689998,841.6453498689998,1,-1,rojo,1,['N_A'],843.129750608,843.129750608,843.129750608,843.129750608,845.1651659179997,845.1651659179997,845.1651659179997,845.1651659179997,845.1651659179997,845.1651659179997,845.1651659179997,845.1651659179997,847.2009039069999,847.2009039069999,847.2009039069999,847.2009039069999,,,,,,,,,,,,,,,,,,,,,,,,,,,,,,,,,,,,,,,06,010,2022-09-26_10h40.58.936,test2,2022.2.4,59.952487294108984,
0,0,0,0,129,0,129,0,847.2009039069999,847.2009039069999,847.2009039069999,847.2009039069999,847.2009039069999,847.2009039069999,847.2009039069999,1,-1,rojo,1,['N_A'],849.1199792099997,849.1199792099997,849.1199792099997,849.1199792099997,851.1554976819998,851.1554976819998,851.1554976819998,851.1554976819998,851.1554976819998,851.1554976819998,851.1554976819998,851.1554976819998,853.1904055089999,853.1904055089999,853.1904055089999,853.1904055089999,,,,,,,,,,,,,,,,,,,,,,,,,,,,,,,,,,,,,,,06,010,2022-09-26_10h40.58.936,test2,2022.2.4,59.952487294108984,
0,0,0,0,130,0,130,0,853.1904055089999,853.1904055089999,853.1904055089999,853.1904055089999,853.1904055089999,853.1904055089999,853.1904055089999,-1,1,azul,1,['N_A'],855.0756015219995,855.0756015219995,855.0756015219995,855.0756015219995,857.111552632,857.111552632,857.111552632,857.111552632,857.111552632,857.111552632,857.111552632,857.111552632,859.1473813009998,859.1473813009998,859.1473813009998,859.1473813009998,,,,,,,,,,,,,,,,,,,,,,,,,,,,,,,,,,,,,,,06,010,2022-09-26_10h40.58.936,test2,2022.2.4,59.952487294108984,
0,0,0,0,131,0,131,0,859.1473813009998,859.1473813009998,859.1473813009998,859.1473813009998,859.1473813009998,859.1473813009998,859.1473813009998,1,-1,rojo,1,['N_A'],860.7822350759998,860.7822350759998,860.7822350759998,860.7822350759998,862.8184310380002,862.8184310380002,862.8184310380002,862.8184310380002,862.8184310380002,862.8184310380002,862.8184310380002,862.8184310380002,864.8538718339996,864.8538718339996,864.8538718339996,864.8538718339996,,,,,,,,,,,,,,,,,,,,,,,,,,,,,,,,,,,,,,,06,010,2022-09-26_10h40.58.936,test2,2022.2.4,59.952487294108984,
0,0,0,0,132,0,132,0,864.8538718339996,864.8538718339996,864.8538718339996,864.8538718339996,864.8538718339996,864.8538718339996,864.8538718339996,-1,1,azul,1,['N_A'],866.7391009900002,866.7391009900002,866.7391009900002,866.7391009900002,868.757889425,868.757889425,868.757889425,868.757889425,868.757889425,868.757889425,868.757889425,868.757889425,870.7936359710002,870.7936359710002,870.7936359710002,870.7936359710002,,,,,,,,,,,,,,,,,,,,,,,,,,,,,,,,,,,,,,,06,010,2022-09-26_10h40.58.936,test2,2022.2.4,59.952487294108984,
0,0,0,0,133,0,133,0,870.7936359710002,870.7936359710002,870.7936359710002,870.7936359710002,870.7936359710002,870.7936359710002,870.7936359710002,1,1,rojo,1,['N_A'],877.0508124789994,877.0508124789994,877.0508124789994,877.0508124789994,879.0863437950002,879.0863437950002,879.0863437950002,879.0863437950002,879.0863437950002,879.0863437950002,879.0863437950002,879.0863437950002,881.1211697680001,881.1211697680001,881.1211697680001,881.1211697680001,,,,,,,,,,,,,,,,,,,,,,,,,,,,,,,,,,,,,,,06,010,2022-09-26_10h40.58.936,test2,2022.2.4,59.952487294108984,
0,0,0,0,134,0,134,0,881.1211697680001,881.1211697680001,881.1211697680001,881.1211697680001,881.1211697680001,881.1211697680001,881.1211697680001,-1,-1,azul,1,['N_A'],883.3242676749996,883.3242676749996,883.3242676749996,883.3242676749996,885.3597157189997,885.3597157189997,885.3597157189997,885.3597157189997,885.3597157189997,885.3597157189997,885.3597157189997,885.3597157189997,887.3952904349999,887.3952904349999,887.3952904349999,887.3952904349999,,,,,,,,,,,,,,,,,,,,,,,,,,,,,,,,,,,,,,,06,010,2022-09-26_10h40.58.936,test2,2022.2.4,59.952487294108984,
0,0,0,0,135,0,135,0,887.3952904349999,887.3952904349999,887.3952904349999,887.3952904349999,887.3952904349999,887.3952904349999,887.3952904349999,-1,1,azul,1,['N_A'],889.6812059369995,889.6812059369995,889.6812059369995,889.6812059369995,891.7162918899994,891.7162918899994,891.7162918899994,891.7162918899994,891.7162918899994,891.7162918899994,891.7162918899994,891.7162918899994,893.7527386299998,893.7527386299998,893.7527386299998,893.7527386299998,,,,,,,,,,,,,,,,,,,,,,,,,,,,,,,,,,,,,,,06,010,2022-09-26_10h40.58.936,test2,2022.2.4,59.952487294108984,
0,0,0,0,136,0,136,0,893.7527386299998,893.7527386299998,893.7527386299998,893.7527386299998,893.7527386299998,893.7527386299998,893.7527386299998,1,-1,rojo,1,['N_A'],895.8874409529999,895.8874409529999,895.8874409529999,895.8874409529999,897.9241584419997,897.9241584419997,897.9241584419997,897.9241584419997,897.9241584419997,897.9241584419997,897.9241584419997,897.9241584419997,899.9584029420002,899.9584029420002,899.9584029420002,899.9584029420002,,,,,,,,,,,,,,,,,,,,,,,,,,,,,,,,,,,,,,,06,010,2022-09-26_10h40.58.936,test2,2022.2.4,59.952487294108984,
0,0,0,0,137,0,137,0,899.9584029420002,899.9584029420002,899.9584029420002,899.9584029420002,899.9584029420002,899.9584029420002,899.9584029420002,1,-1,rojo,1,['N_A'],901.6774596549994,901.6774596549994,901.6774596549994,901.6774596549994,903.7138126959999,903.7138126959999,903.7138126959999,903.7138126959999,903.7138126959999,903.7138126959999,903.7138126959999,903.7138126959999,905.7486923659999,905.7486923659999,905.7486923659999,905.7486923659999,,,,,,,,,,,,,,,,,,,,,,,,,,,,,,,,,,,,,,,06,010,2022-09-26_10h40.58.936,test2,2022.2.4,59.952487294108984,
0,0,0,0,138,0,138,0,905.7486923659999,905.7486923659999,905.7486923659999,905.7486923659999,905.7486923659999,905.7486923659999,905.7486923659999,1,-1,rojo,1,['N_A'],907.5005533659996,907.5005533659996,907.5005533659996,907.5005533659996,909.536644969,909.536644969,909.536644969,909.536644969,909.536644969,909.536644969,909.536644969,909.536644969,911.5722715780003,911.5722715780003,911.5722715780003,911.5722715780003,,,,,,,,,,,,,,,,,,,,,,,,,,,,,,,,,,,,,,,06,010,2022-09-26_10h40.58.936,test2,2022.2.4,59.952487294108984,
0,0,0,0,139,0,139,0,911.5722715780003,911.5722715780003,911.5722715780003,911.5722715780003,911.5722715780003,911.5722715780003,911.5722715780003,1,-1,rojo,1,['N_A'],913.1902179239996,913.1902179239996,913.1902179239996,913.1902179239996,915.226741384,915.226741384,915.226741384,915.226741384,915.226741384,915.226741384,915.226741384,915.226741384,917.2615603309996,917.2615603309996,917.2615603309996,917.2615603309996,,,,,,,,,,,,,,,,,,,,,,,,,,,,,,,,,,,,,,,06,010,2022-09-26_10h40.58.936,test2,2022.2.4,59.952487294108984,
0,0,0,0,140,0,140,0,917.2615603309996,917.2615603309996,917.2615603309996,917.2615603309996,917.2615603309996,917.2615603309996,917.2615603309996,1,-1,rojo,1,['N_A'],918.6810107479996,918.6810107479996,918.6810107479996,918.6810107479996,920.715776305,920.715776305,920.715776305,920.715776305,920.715776305,920.715776305,920.715776305,920.715776305,922.7501218899997,922.7501218899997,922.7501218899997,922.7501218899997,,,,,,,,,,,,,,,,,,,,,,,,,,,,,,,,,,,,,,,06,010,2022-09-26_10h40.58.936,test2,2022.2.4,59.952487294108984,
0,0,0,0,141,0,141,0,922.7501218899997,922.7501218899997,922.7501218899997,922.7501218899997,922.7501218899997,922.7501218899997,922.7501218899997,1,-1,rojo,1,['N_A'],924.8696903049995,924.8696903049995,924.8696903049995,924.8696903049995,926.9051632370001,926.9051632370001,926.9051632370001,926.9051632370001,926.9051632370001,926.9051632370001,926.9051632370001,926.9051632370001,928.9405112710001,928.9405112710001,928.9405112710001,928.9405112710001,,,,,,,,,,,,,,,,,,,,,,,,,,,,,,,,,,,,,,,06,010,2022-09-26_10h40.58.936,test2,2022.2.4,59.952487294108984,
0,0,0,0,142,0,142,0,928.9405112710001,928.9405112710001,928.9405112710001,928.9405112710001,928.9405112710001,928.9405112710001,928.9405112710001,1,-1,rojo,1,['N_A'],930.6929876280001,930.6929876280001,930.6929876280001,930.6929876280001,932.7278257979997,932.7278257979997,932.7278257979997,932.7278257979997,932.7278257979997,932.7278257979997,932.7278257979997,932.7278257979997,934.7642986109995,934.7642986109995,934.7642986109995,934.7642986109995,,,,,,,,,,,,,,,,,,,,,,,,,,,,,,,,,,,,,,,06,010,2022-09-26_10h40.58.936,test2,2022.2.4,59.952487294108984,
0,0,0,0,143,0,143,0,934.7642986109995,934.7642986109995,934.7642986109995,934.7642986109995,934.7642986109995,934.7642986109995,934.7642986109995,1,-1,rojo,1,['N_A'],936.7165430839996,936.7165430839996,936.7165430839996,936.7165430839996,938.7526856079994,938.7526856079994,938.7526856079994,938.7526856079994,938.7526856079994,938.7526856079994,938.7526856079994,938.7526856079994,940.7874541109995,940.7874541109995,940.7874541109995,940.7874541109995,,,,,,,,,,,,,,,,,,,,,,,,,,,,,,,,,,,,,,,06,010,2022-09-26_10h40.58.936,test2,2022.2.4,59.952487294108984,
0,0,0,0,144,0,144,0,940.7874541109995,940.7874541109995,940.7874541109995,940.7874541109995,940.7874541109995,940.7874541109995,940.7874541109995,1,-1,rojo,1,['N_A'],942.255203488,942.255203488,942.255203488,942.255203488,944.2910749779994,944.2910749779994,944.2910749779994,944.2910749779994,944.2910749779994,944.2910749779994,944.2910749779994,944.2910749779994,946.3263500319999,946.3263500319999,946.3263500319999,946.3263500319999,,,,,,,,,,,,,,,,,,,,,,,,,,,,,,,,,,,,,,,06,010,2022-09-26_10h40.58.936,test2,2022.2.4,59.952487294108984,
0,0,0,0,145,0,145,0,946.3263500319999,946.3263500319999,946.3263500319999,946.3263500319999,946.3263500319999,946.3263500319999,946.3263500319999,-1,1,azul,1,['N_A'],948.1953307060003,948.1953307060003,948.1953307060003,948.1953307060003,950.2312751210002,950.2312751210002,950.2312751210002,950.2312751210002,950.2312751210002,950.2312751210002,950.2312751210002,950.2312751210002,952.2664295089999,952.2664295089999,952.2664295089999,952.2664295089999,,,,,,,,,,,,,,,,,,,,,,,,,,,,,,,,,,,,,,,06,010,2022-09-26_10h40.58.936,test2,2022.2.4,59.952487294108984,
0,0,0,0,146,0,146,0,952.2664295089999,952.2664295089999,952.2664295089999,952.2664295089999,952.2664295089999,952.2664295089999,952.2664295089999,1,-1,rojo,1,['N_A'],953.7854420960002,953.7854420960002,953.7854420960002,953.7854420960002,955.8202851850001,955.8202851850001,955.8202851850001,955.8202851850001,955.8202851850001,955.8202851850001,955.8202851850001,955.8202851850001,957.8556917790002,957.8556917790002,957.8556917790002,957.8556917790002,,,,,,,,,,,,,,,,,,,,,,,,,,,,,,,,,,,,,,,06,010,2022-09-26_10h40.58.936,test2,2022.2.4,59.952487294108984,
0,0,0,0,147,0,147,0,957.8556917790002,957.8556917790002,957.8556917790002,957.8556917790002,957.8556917790002,957.8556917790002,957.8556917790002,-1,1,azul,1,['N_A'],960.9598544729997,960.9598544729997,960.9598544729997,960.9598544729997,962.9957497529995,962.9957497529995,962.9957497529995,962.9957497529995,962.9957497529995,962.9957497529995,962.9957497529995,962.9957497529995,965.0303225460002,965.0303225460002,965.0303225460002,965.0303225460002,,,,,,,,,,,,,,,,,,,,,,,,,,,,,,,,,,,,,,,06,010,2022-09-26_10h40.58.936,test2,2022.2.4,59.952487294108984,
0,0,0,0,148,0,148,0,965.0303225460002,965.0303225460002,965.0303225460002,965.0303225460002,965.0303225460002,965.0303225460002,965.0303225460002,1,-1,rojo,1,['N_A'],967.5340121009995,967.5340121009995,967.5340121009995,967.5340121009995,969.5691855859995,969.5691855859995,969.5691855859995,969.5691855859995,969.5691855859995,969.5691855859995,969.5691855859995,969.5691855859995,971.6048982279999,971.6048982279999,971.6048982279999,971.6048982279999,,,,,,,,,,,,,,,,,,,,,,,,,,,,,,,,,,,,,,,06,010,2022-09-26_10h40.58.936,test2,2022.2.4,59.952487294108984,
0,0,0,0,149,0,149,0,971.6048982279999,971.6048982279999,971.6048982279999,971.6048982279999,971.6048982279999,971.6048982279999,971.6048982279999,1,-1,rojo,1,['N_A'],973.9577712579994,973.9577712579994,973.9577712579994,973.9577712579994,975.9928159860001,975.9928159860001,975.9928159860001,975.9928159860001,975.9928159860001,975.9928159860001,975.9928159860001,975.9928159860001,978.0291340519998,978.0291340519998,978.0291340519998,978.0291340519998,,,,,,,,,,,,,,,,,,,,,,,,,,,,,,,,,,,,,,,06,010,2022-09-26_10h40.58.936,test2,2022.2.4,59.952487294108984,
0,0,0,0,150,0,150,0,978.0291340519998,978.0291340519998,978.0291340519998,978.0291340519998,978.0291340519998,978.0291340519998,978.0291340519998,1,-1,rojo,1,['N_A'],980.5147593829997,980.5147593829997,980.5147593829997,980.5147593829997,982.5500939470003,982.5500939470003,982.5500939470003,982.5500939470003,982.5500939470003,982.5500939470003,982.5500939470003,982.5500939470003,984.5854257179999,984.5854257179999,984.5854257179999,984.5854257179999,,,,,,,,,,,,,,,,,,,,,,,,,,,,,,,,,,,,,,,06,010,2022-09-26_10h40.58.936,test2,2022.2.4,59.952487294108984,
0,0,0,0,151,0,151,0,984.5854257179999,984.5854257179999,984.5854257179999,984.5854257179999,984.5854257179999,984.5854257179999,984.5854257179999,1,-1,rojo,1,['N_A'],986.5047295309996,986.5047295309996,986.5047295309996,986.5047295309996,988.54076833,988.54076833,988.54076833,988.54076833,988.54076833,988.54076833,988.54076833,988.54076833,990.5753615100002,990.5753615100002,990.5753615100002,990.5753615100002,,,,,,,,,,,,,,,,,,,,,,,,,,,,,,,,,,,,,,,06,010,2022-09-26_10h40.58.936,test2,2022.2.4,59.952487294108984,
0,0,0,0,152,0,152,0,990.5753615100002,990.5753615100002,990.5753615100002,990.5753615100002,990.5753615100002,990.5753615100002,990.5753615100002,1,-1,rojo,1,['N_A'],992.6111529,992.6111529,992.6111529,992.6111529,994.6472263999995,994.6472263999995,994.6472263999995,994.6472263999995,994.6472263999995,994.6472263999995,994.6472263999995,994.6472263999995,996.6824181969996,996.6824181969996,996.6824181969996,996.6824181969996,,,,,,,,,,,,,,,,,,,,,,,,,,,,,,,,,,,,,,,06,010,2022-09-26_10h40.58.936,test2,2022.2.4,59.952487294108984,
0,0,0,0,153,0,153,0,996.6824181969996,996.6824181969996,996.6824181969996,996.6824181969996,996.6824181969996,996.6824181969996,996.6824181969996,1,-1,rojo,0,['N_B'],998.0337445770001,998.0337445770001,998.0337445770001,998.0337445770001,1000.0693653939998,1000.0693653939998,1000.0693653939998,1000.0693653939998,1000.0693653939998,1000.0693653939998,1000.0693653939998,1000.0693653939998,1002.1054038109996,1002.1054038109996,1002.1054038109996,1002.1054038109996,,,,,,,,,,,,,,,,,,,,,,,,,,,,,,,,,,,,,,,06,010,2022-09-26_10h40.58.936,test2,2022.2.4,59.952487294108984,
0,0,0,0,154,0,154,0,1002.1054038109996,1002.1054038109996,1002.1054038109996,1002.1054038109996,1002.1054038109996,1002.1054038109996,1002.1054038109996,1,1,azul,1,['N_B'],1003.4895631459995,1003.4895631459995,1003.4895631459995,1003.4895631459995,1005.5078123409994,1005.5078123409994,1005.5078123409994,1005.5078123409994,1005.5078123409994,1005.5078123409994,1005.5078123409994,1005.5078123409994,1007.5445274429994,1007.5445274429994,1007.5445274429994,1007.5445274429994,,,,,,,,,,,,,,,,,,,,,,,,,,,,,,,,,,,,,,,06,010,2022-09-26_10h40.58.936,test2,2022.2.4,59.952487294108984,
0,0,0,0,155,0,155,0,1007.5445274429994,1007.5445274429994,1007.5445274429994,1007.5445274429994,1007.5445274429994,1007.5445274429994,1007.5445274429994,1,1,azul,1,['N_B'],1009.279527443,1009.279527443,1009.279527443,1009.279527443,1011.3155626429998,1011.3155626429998,1011.3155626429998,1011.3155626429998,1011.3155626429998,1011.3155626429998,1011.3155626429998,1011.3155626429998,1013.3502841589998,1013.3502841589998,1013.3502841589998,1013.3502841589998,,,,,,,,,,,,,,,,,,,,,,,,,,,,,,,,,,,,,,,06,010,2022-09-26_10h40.58.936,test2,2022.2.4,59.952487294108984,
0,0,0,0,156,0,156,0,1013.3502841589998,1013.3502841589998,1013.3502841589998,1013.3502841589998,1013.3502841589998,1013.3502841589998,1013.3502841589998,-1,-1,rojo,1,['N_B'],1015.2361738359996,1015.2361738359996,1015.2361738359996,1015.2361738359996,1017.2717083489997,1017.2717083489997,1017.2717083489997,1017.2717083489997,1017.2717083489997,1017.2717083489997,1017.2717083489997,1017.2717083489997,1019.3070087779997,1019.3070087779997,1019.3070087779997,1019.3070087779997,,,,,,,,,,,,,,,,,,,,,,,,,,,,,,,,,,,,,,,06,010,2022-09-26_10h40.58.936,test2,2022.2.4,59.952487294108984,
0,0,0,0,157,0,157,0,1019.3070087779997,1019.3070087779997,1019.3070087779997,1019.3070087779997,1019.3070087779997,1019.3070087779997,1019.3070087779997,-1,-1,rojo,1,['N_B'],1021.2264067269998,1021.2264067269998,1021.2264067269998,1021.2264067269998,1023.2622074800001,1023.2622074800001,1023.2622074800001,1023.2622074800001,1023.2622074800001,1023.2622074800001,1023.2622074800001,1023.2622074800001,1025.2972275049997,1025.2972275049997,1025.2972275049997,1025.2972275049997,,,,,,,,,,,,,,,,,,,,,,,,,,,,,,,,,,,,,,,06,010,2022-09-26_10h40.58.936,test2,2022.2.4,59.952487294108984,
0,0,0,0,158,0,158,0,1025.2972275049997,1025.2972275049997,1025.2972275049997,1025.2972275049997,1025.2972275049997,1025.2972275049997,1025.2972275049997,1,-1,azul,1,['N_B'],1027.1655332849996,1027.1655332849996,1027.1655332849996,1027.1655332849996,1029.2014065120002,1029.2014065120002,1029.2014065120002,1029.2014065120002,1029.2014065120002,1029.2014065120002,1029.2014065120002,1029.2014065120002,1031.237478139,1031.237478139,1031.237478139,1031.237478139,,,,,,,,,,,,,,,,,,,,,,,,,,,,,,,,,,,,,,,06,010,2022-09-26_10h40.58.936,test2,2022.2.4,59.952487294108984,
0,0,0,0,159,0,159,0,1031.237478139,1031.237478139,1031.237478139,1031.237478139,1031.237478139,1031.237478139,1031.237478139,1,1,azul,1,['N_B'],1033.756355044,1033.756355044,1033.756355044,1033.756355044,1035.7745969970001,1035.7745969970001,1035.7745969970001,1035.7745969970001,1035.7745969970001,1035.7745969970001,1035.7745969970001,1035.7745969970001,1037.8111787830003,1037.8111787830003,1037.8111787830003,1037.8111787830003,,,,,,,,,,,,,,,,,,,,,,,,,,,,,,,,,,,,,,,06,010,2022-09-26_10h40.58.936,test2,2022.2.4,59.952487294108984,
0,0,0,0,160,0,160,0,1037.8111787830003,1037.8111787830003,1037.8111787830003,1037.8111787830003,1037.8111787830003,1037.8111787830003,1037.8111787830003,1,1,azul,1,['N_B'],1040.096997054,1040.096997054,1040.096997054,1040.096997054,1042.132224252,1042.132224252,1042.132224252,1042.132224252,1042.132224252,1042.132224252,1042.132224252,1042.132224252,1044.1677796929998,1044.1677796929998,1044.1677796929998,1044.1677796929998,,,,,,,,,,,,,,,,,,,,,,,,,,,,,,,,,,,,,,,06,010,2022-09-26_10h40.58.936,test2,2022.2.4,59.952487294108984,
0,0,0,0,161,0,161,0,1044.1677796929998,1044.1677796929998,1044.1677796929998,1044.1677796929998,1044.1677796929998,1044.1677796929998,1044.1677796929998,-1,-1,rojo,1,['N_B'],1045.8201814459999,1045.8201814459999,1045.8201814459999,1045.8201814459999,1047.856260775,1047.856260775,1047.856260775,1047.856260775,1047.856260775,1047.856260775,1047.856260775,1047.856260775,1049.8909427119997,1049.8909427119997,1049.8909427119997,1049.8909427119997,,,,,,,,,,,,,,,,,,,,,,,,,,,,,,,,,,,,,,,06,010,2022-09-26_10h40.58.936,test2,2022.2.4,59.952487294108984,
0,0,0,0,162,0,162,0,1049.8909427119997,1049.8909427119997,1049.8909427119997,1049.8909427119997,1049.8909427119997,1049.8909427119997,1049.8909427119997,1,1,azul,1,['N_B'],1053.412092394,1053.412092394,1053.412092394,1053.412092394,1055.430765219,1055.430765219,1055.430765219,1055.430765219,1055.430765219,1055.430765219,1055.430765219,1055.430765219,1057.4659733879998,1057.4659733879998,1057.4659733879998,1057.4659733879998,,,,,,,,,,,,,,,,,,,,,,,,,,,,,,,,,,,,,,,06,010,2022-09-26_10h40.58.936,test2,2022.2.4,59.952487294108984,
0,0,0,0,163,0,163,0,1057.4659733879998,1057.4659733879998,1057.4659733879998,1057.4659733879998,1057.4659733879998,1057.4659733879998,1057.4659733879998,1,1,azul,1,['N_B'],1059.8859134169998,1059.8859134169998,1059.8859134169998,1059.8859134169998,1061.921109754,1061.921109754,1061.921109754,1061.921109754,1061.921109754,1061.921109754,1061.921109754,1061.921109754,1063.9566273359997,1063.9566273359997,1063.9566273359997,1063.9566273359997,,,,,,,,,,,,,,,,,,,,,,,,,,,,,,,,,,,,,,,06,010,2022-09-26_10h40.58.936,test2,2022.2.4,59.952487294108984,
0,0,0,0,164,0,164,0,1063.9566273359997,1063.9566273359997,1063.9566273359997,1063.9566273359997,1063.9566273359997,1063.9566273359997,1063.9566273359997,1,-1,azul,1,['N_B'],1066.075277776,1066.075277776,1066.075277776,1066.075277776,1068.1108383889996,1068.1108383889996,1068.1108383889996,1068.1108383889996,1068.1108383889996,1068.1108383889996,1068.1108383889996,1068.1108383889996,1070.1470049270001,1070.1470049270001,1070.1470049270001,1070.1470049270001,,,,,,,,,,,,,,,,,,,,,,,,,,,,,,,,,,,,,,,06,010,2022-09-26_10h40.58.936,test2,2022.2.4,59.952487294108984,
0,0,0,0,165,0,165,0,1070.1470049270001,1070.1470049270001,1070.1470049270001,1070.1470049270001,1070.1470049270001,1070.1470049270001,1070.1470049270001,1,1,azul,1,['N_B'],1073.8343478320003,1073.8343478320003,1073.8343478320003,1073.8343478320003,1075.8703156760002,1075.8703156760002,1075.8703156760002,1075.8703156760002,1075.8703156760002,1075.8703156760002,1075.8703156760002,1075.8703156760002,1077.9058872999994,1077.9058872999994,1077.9058872999994,1077.9058872999994,,,,,,,,,,,,,,,,,,,,,,,,,,,,,,,,,,,,,,,06,010,2022-09-26_10h40.58.936,test2,2022.2.4,59.952487294108984,
0,0,0,0,166,0,166,0,1077.9058872999994,1077.9058872999994,1077.9058872999994,1077.9058872999994,1077.9058872999994,1077.9058872999994,1077.9058872999994,-1,-1,rojo,1,['N_B'],1079.4901713339996,1079.4901713339996,1079.4901713339996,1079.4901713339996,1081.525970693,1081.525970693,1081.525970693,1081.525970693,1081.525970693,1081.525970693,1081.525970693,1081.525970693,1083.561842602,1083.561842602,1083.561842602,1083.561842602,,,,,,,,,,,,,,,,,,,,,,,,,,,,,,,,,,,,,,,06,010,2022-09-26_10h40.58.936,test2,2022.2.4,59.952487294108984,
0,0,0,0,167,0,167,0,1083.561842602,1083.561842602,1083.561842602,1083.561842602,1083.561842602,1083.561842602,1083.561842602,-1,-1,rojo,1,['N_B'],1085.2800696409995,1085.2800696409995,1085.2800696409995,1085.2800696409995,1087.3157320049995,1087.3157320049995,1087.3157320049995,1087.3157320049995,1087.3157320049995,1087.3157320049995,1087.3157320049995,1087.3157320049995,1089.3515704499996,1089.3515704499996,1089.3515704499996,1089.3515704499996,,,,,,,,,,,,,,,,,,,,,,,,,,,,,,,,,,,,,,,06,010,2022-09-26_10h40.58.936,test2,2022.2.4,59.952487294108984,
0,0,0,0,168,0,168,0,1089.3515704499996,1089.3515704499996,1089.3515704499996,1089.3515704499996,1089.3515704499996,1089.3515704499996,1089.3515704499996,1,-1,azul,1,['N_B'],1090.8866776409996,1090.8866776409996,1090.8866776409996,1090.8866776409996,1092.9224720860002,1092.9224720860002,1092.9224720860002,1092.9224720860002,1092.9224720860002,1092.9224720860002,1092.9224720860002,1092.9224720860002,1094.9572175349995,1094.9572175349995,1094.9572175349995,1094.9572175349995,,,,,,,,,,,,,,,,,,,,,,,,,,,,,,,,,,,,,,,06,010,2022-09-26_10h40.58.936,test2,2022.2.4,59.952487294108984,
0,0,0,0,169,0,169,0,1094.9572175349995,1094.9572175349995,1094.9572175349995,1094.9572175349995,1094.9572175349995,1094.9572175349995,1094.9572175349995,1,1,azul,1,['N_B'],1096.7429263759996,1096.7429263759996,1096.7429263759996,1096.7429263759996,1098.7608400509998,1098.7608400509998,1098.7608400509998,1098.7608400509998,1098.7608400509998,1098.7608400509998,1098.7608400509998,1098.7608400509998,1100.7976591179995,1100.7976591179995,1100.7976591179995,1100.7976591179995,,,,,,,,,,,,,,,,,,,,,,,,,,,,,,,,,,,,,,,06,010,2022-09-26_10h40.58.936,test2,2022.2.4,59.952487294108984,
0,0,0,0,170,0,170,0,1100.7976591179995,1100.7976591179995,1100.7976591179995,1100.7976591179995,1100.7976591179995,1100.7976591179995,1100.7976591179995,1,1,azul,1,['N_B'],1102.8831010909998,1102.8831010909998,1102.8831010909998,1102.8831010909998,1104.9188637870002,1104.9188637870002,1104.9188637870002,1104.9188637870002,1104.9188637870002,1104.9188637870002,1104.9188637870002,1104.9188637870002,1106.953481439,1106.953481439,1106.953481439,1106.953481439,,,,,,,,,,,,,,,,,,,,,,,,,,,,,,,,,,,,,,,06,010,2022-09-26_10h40.58.936,test2,2022.2.4,59.952487294108984,
0,0,0,0,171,0,171,0,1106.953481439,1106.953481439,1106.953481439,1106.953481439,1106.953481439,1106.953481439,1106.953481439,-1,-1,rojo,1,['N_B'],1108.9733898630002,1108.9733898630002,1108.9733898630002,1108.9733898630002,1111.0077939450002,1111.0077939450002,1111.0077939450002,1111.0077939450002,1111.0077939450002,1111.0077939450002,1111.0077939450002,1111.0077939450002,1113.0444921809994,1113.0444921809994,1113.0444921809994,1113.0444921809994,,,,,,,,,,,,,,,,,,,,,,,,,,,,,,,,,,,,,,,06,010,2022-09-26_10h40.58.936,test2,2022.2.4,59.952487294108984,
0,0,0,0,172,0,172,0,1113.0444921809994,1113.0444921809994,1113.0444921809994,1113.0444921809994,1113.0444921809994,1113.0444921809994,1113.0444921809994,1,-1,azul,1,['N_B'],1114.8291283859999,1114.8291283859999,1114.8291283859999,1114.8291283859999,1116.8655587900003,1116.8655587900003,1116.8655587900003,1116.8655587900003,1116.8655587900003,1116.8655587900003,1116.8655587900003,1116.8655587900003,1118.900531884,1118.900531884,1118.900531884,1118.900531884,,,,,,,,,,,,,,,,,,,,,,,,,,,,,,,,,,,,,,,06,010,2022-09-26_10h40.58.936,test2,2022.2.4,59.952487294108984,
0,0,0,0,173,0,173,0,1118.900531884,1118.900531884,1118.900531884,1118.900531884,1118.900531884,1118.900531884,1118.900531884,1,-1,azul,1,['N_B'],1120.3690219649998,1120.3690219649998,1120.3690219649998,1120.3690219649998,1122.404440837,1122.404440837,1122.404440837,1122.404440837,1122.404440837,1122.404440837,1122.404440837,1122.404440837,1124.4398805740002,1124.4398805740002,1124.4398805740002,1124.4398805740002,,,,,,,,,,,,,,,,,,,,,,,,,,,,,,,,,,,,,,,06,010,2022-09-26_10h40.58.936,test2,2022.2.4,59.952487294108984,
0,0,0,0,174,0,174,0,1124.4398805740002,1124.4398805740002,1124.4398805740002,1124.4398805740002,1124.4398805740002,1124.4398805740002,1124.4398805740002,1,1,azul,1,['N_B'],1125.4909301999996,1125.4909301999996,1125.4909301999996,1125.4909301999996,1127.508939069,1127.508939069,1127.508939069,1127.508939069,1127.508939069,1127.508939069,1127.508939069,1127.508939069,1129.5450236890001,1129.5450236890001,1129.5450236890001,1129.5450236890001,,,,,,,,,,,,,,,,,,,,,,,,,,,,,,,,,,,,,,,06,010,2022-09-26_10h40.58.936,test2,2022.2.4,59.952487294108984,
0,0,0,0,175,0,175,0,1129.5450236890001,1129.5450236890001,1129.5450236890001,1129.5450236890001,1129.5450236890001,1129.5450236890001,1129.5450236890001,1,1,azul,1,['N_B'],1131.5145852489995,1131.5145852489995,1131.5145852489995,1131.5145852489995,1133.5339237520002,1133.5339237520002,1133.5339237520002,1133.5339237520002,1133.5339237520002,1133.5339237520002,1133.5339237520002,1133.5339237520002,1135.568459993,1135.568459993,1135.568459993,1135.568459993,,,,,,,,,,,,,,,,,,,,,,,,,,,,,,,,,,,,,,,06,010,2022-09-26_10h40.58.936,test2,2022.2.4,59.952487294108984,
0,0,0,0,176,0,176,0,1135.568459993,1135.568459993,1135.568459993,1135.568459993,1135.568459993,1135.568459993,1135.568459993,1,1,azul,1,['N_B'],1137.7876115660001,1137.7876115660001,1137.7876115660001,1137.7876115660001,1139.8068401829996,1139.8068401829996,1139.8068401829996,1139.8068401829996,1139.8068401829996,1139.8068401829996,1139.8068401829996,1139.8068401829996,1141.8427967369998,1141.8427967369998,1141.8427967369998,1141.8427967369998,,,,,,,,,,,,,,,,,,,,,,,,,,,,,,,,,,,,,,,06,010,2022-09-26_10h40.58.936,test2,2022.2.4,59.952487294108984,
0,0,0,0,177,0,177,0,1141.8427967369998,1141.8427967369998,1141.8427967369998,1141.8427967369998,1141.8427967369998,1141.8427967369998,1141.8427967369998,1,1,azul,1,['N_B'],1147.0820512629998,1147.0820512629998,1147.0820512629998,1147.0820512629998,1149.1179260190002,1149.1179260190002,1149.1179260190002,1149.1179260190002,1149.1179260190002,1149.1179260190002,1149.1179260190002,1149.1179260190002,1151.1521608530002,1151.1521608530002,1151.1521608530002,1151.1521608530002,,,,,,,,,,,,,,,,,,,,,,,,,,,,,,,,,,,,,,,06,010,2022-09-26_10h40.58.936,test2,2022.2.4,59.952487294108984,
