trials_2.thisRepN,trials_2.thisTrialN,trials_2.thisN,trials_2.thisIndex,trials.thisRepN,trials.thisTrialN,trials.thisN,trials.thisIndex,Instrucción2.started,N_A_4.started,N_B_4.started,Exitos_3.started,Dias_3.started,Stimuli_1.started,Stimuli_2.started,Transitions,Rewards,Mode,Stay,Neighbour,Stimuli_3.started,Modo.started,Dias2.started,Exitos2.started,Stimuli_3.stopped,Modo.stopped,Dias2.stopped,Exitos2.stopped,Reward.started,Stimuli_reward.started,Exitos3.started,Dias3.started,Reward.stopped,Stimuli_reward.stopped,Exitos3.stopped,Dias3.stopped,Cue_text.started,Stimuli_4.started,Exitos4.started,Dias4.started,Stimuli_3_3.started,Stimuli_2_3.started,Instrucción.started,N_A.started,N_B.started,N_C.started,Exitos_2.started,Dias_2.started,Stimuli_1_3.started,Resp_final_1,Modo2.started,Modo1.started,Pregunta_4.started,Modo3.started,Exitos7.started,Dias6.started,Resp_final_2,Modo1_2.started,Pregunta_3.started,Modo2_2.started,Exitos8.started,Dias7.started,Resp_final_3,Mensaje_Final2.started,Exitos6.started,participant,session,date,expName,psychopyVersion,frameRate,
0,0,0,0,0,0,0,0,596.8662124959999,596.8662124959999,596.8662124959999,596.8662124959999,596.8662124959999,596.8662124959999,596.8662124959999,0,0,0,0,['N_A'],606.891453752,606.891453752,606.891453752,606.891453752,608.944163228,608.944163228,608.944163228,608.944163228,608.944163228,608.944163228,608.944163228,608.944163228,610.979195315,610.979195315,610.979195315,610.979195315,,,,,,,,,,,,,,,,,,,,,,,,,,,,,,06,008,2022-09-22_11h58.50.483,test2,2022.2.4,59.937249176505745,
0,0,0,0,1,0,1,0,610.979195315,610.979195315,610.979195315,610.979195315,610.979195315,610.979195315,610.979195315,1,-1,rojo,0,['N_B'],614.8336725459999,614.8336725459999,614.8336725459999,614.8336725459999,616.902962677,616.902962677,616.902962677,616.902962677,616.902962677,616.902962677,616.902962677,616.902962677,618.937901366,618.937901366,618.937901366,618.937901366,,,,,,,,,,,,,,,,,,,,,,,,,,,,,,06,008,2022-09-22_11h58.50.483,test2,2022.2.4,59.937249176505745,
0,0,0,0,2,0,2,0,618.937901366,618.937901366,618.937901366,618.937901366,618.937901366,618.937901366,618.937901366,1,1,azul,1,['N_B'],620.923681409,620.923681409,620.923681409,620.923681409,622.960830971,622.960830971,622.960830971,622.960830971,622.960830971,622.960830971,622.960830971,622.960830971,624.9952126829999,624.9952126829999,624.9952126829999,624.9952126829999,,,,,,,,,,,,,,,,,,,,,,,,,,,,,,06,008,2022-09-22_11h58.50.483,test2,2022.2.4,59.937249176505745,
0,0,0,0,3,0,3,0,624.9952126829999,624.9952126829999,624.9952126829999,624.9952126829999,624.9952126829999,624.9952126829999,624.9952126829999,-1,-1,rojo,1,['N_B'],627.1809578079999,627.1809578079999,627.1809578079999,627.1809578079999,629.2169282570001,629.2169282570001,629.2169282570001,629.2169282570001,629.2169282570001,629.2169282570001,629.2169282570001,629.2169282570001,631.252300548,631.252300548,631.252300548,631.252300548,,,,,,,,,,,,,,,,,,,,,,,,,,,,,,06,008,2022-09-22_11h58.50.483,test2,2022.2.4,59.937249176505745,
0,0,0,0,4,0,4,0,631.252300548,631.252300548,631.252300548,631.252300548,631.252300548,631.252300548,631.252300548,1,1,azul,0,['N_A'],633.487980805,633.487980805,633.487980805,633.487980805,635.5243146359999,635.5243146359999,635.5243146359999,635.5243146359999,635.5243146359999,635.5243146359999,635.5243146359999,635.5243146359999,637.5594458389999,637.5594458389999,637.5594458389999,637.5594458389999,,,,,,,,,,,,,,,,,,,,,,,,,,,,,,06,008,2022-09-22_11h58.50.483,test2,2022.2.4,59.937249176505745,
0,0,0,0,5,0,5,0,637.5594458389999,637.5594458389999,637.5594458389999,637.5594458389999,637.5594458389999,637.5594458389999,637.5594458389999,1,-1,rojo,1,['N_A'],639.5777141629999,639.5777141629999,639.5777141629999,639.5777141629999,641.613620951,641.613620951,641.613620951,641.613620951,641.613620951,641.613620951,641.613620951,641.613620951,643.6492290839999,643.6492290839999,643.6492290839999,643.6492290839999,,,,,,,,,,,,,,,,,,,,,,,,,,,,,,06,008,2022-09-22_11h58.50.483,test2,2022.2.4,59.937249176505745,
0,0,0,0,6,0,6,0,643.6492290839999,643.6492290839999,643.6492290839999,643.6492290839999,643.6492290839999,643.6492290839999,643.6492290839999,1,-1,rojo,0,['N_B'],645.3836921750001,645.3836921750001,645.3836921750001,645.3836921750001,647.4199427870001,647.4199427870001,647.4199427870001,647.4199427870001,647.4199427870001,647.4199427870001,647.4199427870001,647.4199427870001,649.456039891,649.456039891,649.456039891,649.456039891,,,,,,,,,,,,,,,,,,,,,,,,,,,,,,06,008,2022-09-22_11h58.50.483,test2,2022.2.4,59.937249176505745,
0,0,0,0,7,0,7,0,649.456039891,649.456039891,649.456039891,649.456039891,649.456039891,649.456039891,649.456039891,1,-1,azul,1,['N_B'],659.6832911219999,659.6832911219999,659.6832911219999,659.6832911219999,661.7191306739999,661.7191306739999,661.7191306739999,661.7191306739999,661.7191306739999,661.7191306739999,661.7191306739999,661.7191306739999,663.754652569,663.754652569,663.754652569,663.754652569,,,,,,,,,,,,,,,,,,,,,,,,,,,,,,06,008,2022-09-22_11h58.50.483,test2,2022.2.4,59.937249176505745,
0,0,0,0,8,0,8,0,663.754652569,663.754652569,663.754652569,663.754652569,663.754652569,663.754652569,663.754652569,-1,-1,rojo,0,['N_A'],668.559771466,668.559771466,668.559771466,668.559771466,670.5949205059999,670.5949205059999,670.5949205059999,670.5949205059999,670.5949205059999,670.5949205059999,670.5949205059999,670.5949205059999,672.6311986149999,672.6311986149999,672.6311986149999,672.6311986149999,,,,,,,,,,,,,,,,,,,,,,,,,,,,,,06,008,2022-09-22_11h58.50.483,test2,2022.2.4,59.937249176505745,
0,0,0,0,9,0,9,0,672.6311986149999,672.6311986149999,672.6311986149999,672.6311986149999,672.6311986149999,672.6311986149999,672.6311986149999,-1,-1,azul,1,['N_A'],674.099637782,674.099637782,674.099637782,674.099637782,676.135120749,676.135120749,676.135120749,676.135120749,676.135120749,676.135120749,676.135120749,676.135120749,678.1704826769999,678.1704826769999,678.1704826769999,678.1704826769999,,,,,,,,,,,,,,,,,,,,,,,,,,,,,,06,008,2022-09-22_11h58.50.483,test2,2022.2.4,59.937249176505745,
0,0,0,0,10,0,10,0,678.1704826769999,678.1704826769999,678.1704826769999,678.1704826769999,678.1704826769999,678.1704826769999,678.1704826769999,1,-1,rojo,1,['N_A'],679.8561564290001,679.8561564290001,679.8561564290001,679.8561564290001,681.891961172,681.891961172,681.891961172,681.891961172,681.891961172,681.891961172,681.891961172,681.891961172,683.926832852,683.926832852,683.926832852,683.926832852,,,,,,,,,,,,,,,,,,,,,,,,,,,,,,06,008,2022-09-22_11h58.50.483,test2,2022.2.4,59.937249176505745,
0,0,0,0,11,0,11,0,683.926832852,683.926832852,683.926832852,683.926832852,683.926832852,683.926832852,683.926832852,-1,-1,azul,1,['N_A'],686.0461544249999,686.0461544249999,686.0461544249999,686.0461544249999,688.082630186,688.082630186,688.082630186,688.082630186,688.082630186,688.082630186,688.082630186,688.082630186,690.117868343,690.117868343,690.117868343,690.117868343,,,,,,,,,,,,,,,,,,,,,,,,,,,,,,06,008,2022-09-22_11h58.50.483,test2,2022.2.4,59.937249176505745,
0,0,0,0,12,0,12,0,690.117868343,690.117868343,690.117868343,690.117868343,690.117868343,690.117868343,690.117868343,1,-1,rojo,0,['N_B'],691.502562425,691.502562425,691.502562425,691.502562425,693.53767978,693.53767978,693.53767978,693.53767978,693.53767978,693.53767978,693.53767978,693.53767978,695.5733609640001,695.5733609640001,695.5733609640001,695.5733609640001,,,,,,,,,,,,,,,,,,,,,,,,,,,,,,06,008,2022-09-22_11h58.50.483,test2,2022.2.4,59.937249176505745,
0,0,0,0,13,0,13,0,695.5733609640001,695.5733609640001,695.5733609640001,695.5733609640001,695.5733609640001,695.5733609640001,695.5733609640001,1,-1,azul,1,['N_B'],698.0927259489999,698.0927259489999,698.0927259489999,698.0927259489999,700.128284639,700.128284639,700.128284639,700.128284639,700.128284639,700.128284639,700.128284639,700.128284639,702.1639311210001,702.1639311210001,702.1639311210001,702.1639311210001,,,,,,,,,,,,,,,,,,,,,,,,,,,,,,06,008,2022-09-22_11h58.50.483,test2,2022.2.4,59.937249176505745,
0,0,0,0,14,0,14,0,702.1639311210001,702.1639311210001,702.1639311210001,702.1639311210001,702.1639311210001,702.1639311210001,702.1639311210001,-1,1,rojo,1,['N_B'],704.28260576,704.28260576,704.28260576,704.28260576,706.301960495,706.301960495,706.301960495,706.301960495,706.301960495,706.301960495,706.301960495,706.301960495,708.3376168080001,708.3376168080001,708.3376168080001,708.3376168080001,,,,,,,,,,,,,,,,,,,,,,,,,,,,,,06,008,2022-09-22_11h58.50.483,test2,2022.2.4,59.937249176505745,
0,0,0,0,15,0,15,0,708.3376168080001,708.3376168080001,708.3376168080001,708.3376168080001,708.3376168080001,708.3376168080001,708.3376168080001,1,1,azul,1,['N_B'],710.122489893,710.122489893,710.122489893,710.122489893,712.1585661900001,712.1585661900001,712.1585661900001,712.1585661900001,712.1585661900001,712.1585661900001,712.1585661900001,712.1585661900001,714.1944629669999,714.1944629669999,714.1944629669999,714.1944629669999,,,,,,,,,,,,,,,,,,,,,,,,,,,,,,06,008,2022-09-22_11h58.50.483,test2,2022.2.4,59.937249176505745,
0,0,0,0,16,0,16,0,714.1944629669999,714.1944629669999,714.1944629669999,714.1944629669999,714.1944629669999,714.1944629669999,714.1944629669999,1,-1,azul,1,['N_B'],715.561839015,715.561839015,715.561839015,715.561839015,717.5969097459999,717.5969097459999,717.5969097459999,717.5969097459999,717.5969097459999,717.5969097459999,717.5969097459999,717.5969097459999,719.632551467,719.632551467,719.632551467,719.632551467,,,,,,,,,,,,,,,,,,,,,,,,,,,,,,06,008,2022-09-22_11h58.50.483,test2,2022.2.4,59.937249176505745,
0,0,0,0,17,0,17,0,719.632551467,719.632551467,719.632551467,719.632551467,719.632551467,719.632551467,719.632551467,1,-1,azul,1,['N_B'],721.001341401,721.001341401,721.001341401,721.001341401,723.0362927420001,723.0362927420001,723.0362927420001,723.0362927420001,723.0362927420001,723.0362927420001,723.0362927420001,723.0362927420001,725.0716368569999,725.0716368569999,725.0716368569999,725.0716368569999,,,,,,,,,,,,,,,,,,,,,,,,,,,,,,06,008,2022-09-22_11h58.50.483,test2,2022.2.4,59.937249176505745,
0,0,0,0,18,0,18,0,725.0716368569999,725.0716368569999,725.0716368569999,725.0716368569999,725.0716368569999,725.0716368569999,725.0716368569999,1,-1,azul,1,['N_B'],727.8260535050001,727.8260535050001,727.8260535050001,727.8260535050001,729.861521773,729.861521773,729.861521773,729.861521773,729.861521773,729.861521773,729.861521773,729.861521773,731.8965896520001,731.8965896520001,731.8965896520001,731.8965896520001,,,,,,,,,,,,,,,,,,,,,,,,,,,,,,06,008,2022-09-22_11h58.50.483,test2,2022.2.4,59.937249176505745,
0,0,0,0,19,0,19,0,731.8965896520001,731.8965896520001,731.8965896520001,731.8965896520001,731.8965896520001,731.8965896520001,731.8965896520001,1,1,azul,1,['N_B'],735.5165684880001,735.5165684880001,735.5165684880001,735.5165684880001,737.535980121,737.535980121,737.535980121,737.535980121,737.535980121,737.535980121,737.535980121,737.535980121,739.572507565,739.572507565,739.572507565,739.572507565,,,,,,,,,,,,,,,,,,,,,,,,,,,,,,06,008,2022-09-22_11h58.50.483,test2,2022.2.4,59.937249176505745,
0,0,0,0,20,0,20,0,739.572507565,739.572507565,739.572507565,739.572507565,739.572507565,739.572507565,739.572507565,1,1,azul,1,['N_B'],741.4913326349999,741.4913326349999,741.4913326349999,741.4913326349999,743.5097238359999,743.5097238359999,743.5097238359999,743.5097238359999,743.5097238359999,743.5097238359999,743.5097238359999,743.5097238359999,745.5457589350001,745.5457589350001,745.5457589350001,745.5457589350001,,,,,,,,,,,,,,,,,,,,,,,,,,,,,,06,008,2022-09-22_11h58.50.483,test2,2022.2.4,59.937249176505745,
0,0,0,0,21,0,21,0,745.5457589350001,745.5457589350001,745.5457589350001,745.5457589350001,745.5457589350001,745.5457589350001,745.5457589350001,1,1,azul,1,['N_B'],748.4818924030001,748.4818924030001,748.4818924030001,748.4818924030001,750.500126809,750.500126809,750.500126809,750.500126809,750.500126809,750.500126809,750.500126809,750.500126809,752.536257817,752.536257817,752.536257817,752.536257817,,,,,,,,,,,,,,,,,,,,,,,,,,,,,,06,008,2022-09-22_11h58.50.483,test2,2022.2.4,59.937249176505745,
0,0,0,0,22,0,22,0,752.536257817,752.536257817,752.536257817,752.536257817,752.536257817,752.536257817,752.536257817,1,1,azul,1,['N_B'],754.2548906879999,754.2548906879999,754.2548906879999,754.2548906879999,756.2734421980001,756.2734421980001,756.2734421980001,756.2734421980001,756.2734421980001,756.2734421980001,756.2734421980001,756.2734421980001,758.30888003,758.30888003,758.30888003,758.30888003,,,,,,,,,,,,,,,,,,,,,,,,,,,,,,06,008,2022-09-22_11h58.50.483,test2,2022.2.4,59.937249176505745,
0,0,0,0,23,0,23,0,758.30888003,758.30888003,758.30888003,758.30888003,758.30888003,758.30888003,758.30888003,1,1,azul,1,['N_B'],759.844713125,759.844713125,759.844713125,759.844713125,761.8626276059999,761.8626276059999,761.8626276059999,761.8626276059999,761.8626276059999,761.8626276059999,761.8626276059999,761.8626276059999,763.898760546,763.898760546,763.898760546,763.898760546,,,,,,,,,,,,,,,,,,,,,,,,,,,,,,06,008,2022-09-22_11h58.50.483,test2,2022.2.4,59.937249176505745,
0,0,0,0,24,0,24,0,763.898760546,763.898760546,763.898760546,763.898760546,763.898760546,763.898760546,763.898760546,1,1,azul,1,['N_B'],765.717780273,765.717780273,765.717780273,765.717780273,767.7525785820001,767.7525785820001,767.7525785820001,767.7525785820001,767.7525785820001,767.7525785820001,767.7525785820001,767.7525785820001,769.7888055430001,769.7888055430001,769.7888055430001,769.7888055430001,,,,,,,,,,,,,,,,,,,,,,,,,,,,,,06,008,2022-09-22_11h58.50.483,test2,2022.2.4,59.937249176505745,
0,0,0,0,25,0,25,0,769.7888055430001,769.7888055430001,769.7888055430001,769.7888055430001,769.7888055430001,769.7888055430001,769.7888055430001,-1,-1,rojo,1,['N_B'],771.223490032,771.223490032,771.223490032,771.223490032,773.25881353,773.25881353,773.25881353,773.25881353,773.25881353,773.25881353,773.25881353,773.25881353,775.293864368,775.293864368,775.293864368,775.293864368,,,,,,,,,,,,,,,,,,,,,,,,,,,,,,06,008,2022-09-22_11h58.50.483,test2,2022.2.4,59.937249176505745,
0,0,0,0,26,0,26,0,775.293864368,775.293864368,775.293864368,775.293864368,775.293864368,775.293864368,775.293864368,1,1,azul,1,['N_B'],776.9302765760001,776.9302765760001,776.9302765760001,776.9302765760001,778.9646827060001,778.9646827060001,778.9646827060001,778.9646827060001,778.9646827060001,778.9646827060001,778.9646827060001,778.9646827060001,781.0006678930001,781.0006678930001,781.0006678930001,781.0006678930001,,,,,,,,,,,,,,,,,,,,,,,,,,,,,,06,008,2022-09-22_11h58.50.483,test2,2022.2.4,59.937249176505745,
0,0,0,0,27,0,27,0,781.0006678930001,781.0006678930001,781.0006678930001,781.0006678930001,781.0006678930001,781.0006678930001,781.0006678930001,1,-1,azul,1,['N_B'],782.8535790010001,782.8535790010001,782.8535790010001,782.8535790010001,784.888576499,784.888576499,784.888576499,784.888576499,784.888576499,784.888576499,784.888576499,784.888576499,786.923881726,786.923881726,786.923881726,786.923881726,,,,,,,,,,,,,,,,,,,,,,,,,,,,,,06,008,2022-09-22_11h58.50.483,test2,2022.2.4,59.937249176505745,
0,0,0,0,28,0,28,0,786.923881726,786.923881726,786.923881726,786.923881726,786.923881726,786.923881726,786.923881726,-1,-1,rojo,1,['N_B'],788.609844499,788.609844499,788.609844499,788.609844499,790.6450987119999,790.6450987119999,790.6450987119999,790.6450987119999,790.6450987119999,790.6450987119999,790.6450987119999,790.6450987119999,792.6798875730001,792.6798875730001,792.6798875730001,792.6798875730001,,,,,,,,,,,,,,,,,,,,,,,,,,,,,,06,008,2022-09-22_11h58.50.483,test2,2022.2.4,59.937249176505745,
0,0,0,0,29,0,29,0,792.6798875730001,792.6798875730001,792.6798875730001,792.6798875730001,792.6798875730001,792.6798875730001,792.6798875730001,1,1,azul,1,['N_B'],794.49889388,794.49889388,794.49889388,794.49889388,796.5180016040001,796.5180016040001,796.5180016040001,796.5180016040001,796.5180016040001,796.5180016040001,796.5180016040001,796.5180016040001,798.552709388,798.552709388,798.552709388,798.552709388,,,,,,,,,,,,,,,,,,,,,,,,,,,,,,06,008,2022-09-22_11h58.50.483,test2,2022.2.4,59.937249176505745,
0,0,0,0,30,0,30,0,798.552709388,798.552709388,798.552709388,798.552709388,798.552709388,798.552709388,798.552709388,1,1,azul,1,['N_B'],800.4217023200001,800.4217023200001,800.4217023200001,800.4217023200001,802.4569816650001,802.4569816650001,802.4569816650001,802.4569816650001,802.4569816650001,802.4569816650001,802.4569816650001,802.4569816650001,804.4931504420001,804.4931504420001,804.4931504420001,804.4931504420001,,,,,,,,,,,,,,,,,,,,,,,,,,,,,,06,008,2022-09-22_11h58.50.483,test2,2022.2.4,59.937249176505745,
0,0,0,0,31,0,31,0,804.4931504420001,804.4931504420001,804.4931504420001,804.4931504420001,804.4931504420001,804.4931504420001,804.4931504420001,-1,-1,rojo,1,['N_B'],806.311501932,806.311501932,806.311501932,806.311501932,808.3477749390001,808.3477749390001,808.3477749390001,808.3477749390001,808.3477749390001,808.3477749390001,808.3477749390001,808.3477749390001,810.3840475920001,810.3840475920001,810.3840475920001,810.3840475920001,,,,,,,,,,,,,,,,,,,,,,,,,,,,,,06,008,2022-09-22_11h58.50.483,test2,2022.2.4,59.937249176505745,
0,0,0,0,32,0,32,0,810.3840475920001,810.3840475920001,810.3840475920001,810.3840475920001,810.3840475920001,810.3840475920001,810.3840475920001,1,1,azul,1,['N_B'],811.868224776,811.868224776,811.868224776,811.868224776,813.8865533860001,813.8865533860001,813.8865533860001,813.8865533860001,813.8865533860001,813.8865533860001,813.8865533860001,813.8865533860001,815.9224362780001,815.9224362780001,815.9224362780001,815.9224362780001,,,,,,,,,,,,,,,,,,,,,,,,,,,,,,06,008,2022-09-22_11h58.50.483,test2,2022.2.4,59.937249176505745,
0,0,0,0,33,0,33,0,815.9224362780001,815.9224362780001,815.9224362780001,815.9224362780001,815.9224362780001,815.9224362780001,815.9224362780001,1,1,azul,1,['N_B'],817.607470398,817.607470398,817.607470398,817.607470398,819.6261229050001,819.6261229050001,819.6261229050001,819.6261229050001,819.6261229050001,819.6261229050001,819.6261229050001,819.6261229050001,821.663012101,821.663012101,821.663012101,821.663012101,,,,,,,,,,,,,,,,,,,,,,,,,,,,,,06,008,2022-09-22_11h58.50.483,test2,2022.2.4,59.937249176505745,
0,0,0,0,34,0,34,0,821.663012101,821.663012101,821.663012101,821.663012101,821.663012101,821.663012101,821.663012101,1,1,azul,1,['N_B'],823.3804081150001,823.3804081150001,823.3804081150001,823.3804081150001,825.417137942,825.417137942,825.417137942,825.417137942,825.417137942,825.417137942,825.417137942,825.417137942,827.452508949,827.452508949,827.452508949,827.452508949,,,,,,,,,,,,,,,,,,,,,,,,,,,,,,06,008,2022-09-22_11h58.50.483,test2,2022.2.4,59.937249176505745,
0,0,0,0,35,0,35,0,827.452508949,827.452508949,827.452508949,827.452508949,827.452508949,827.452508949,827.452508949,-1,-1,rojo,1,['N_B'],828.970067253,828.970067253,828.970067253,828.970067253,831.006543086,831.006543086,831.006543086,831.006543086,831.006543086,831.006543086,831.006543086,831.006543086,833.041578119,833.041578119,833.041578119,833.041578119,,,,,,,,,,,,,,,,,,,,,,,,,,,,,,06,008,2022-09-22_11h58.50.483,test2,2022.2.4,59.937249176505745,
0,0,0,0,36,0,36,0,833.041578119,833.041578119,833.041578119,833.041578119,833.041578119,833.041578119,833.041578119,1,1,azul,1,['N_B'],835.0764740750001,835.0764740750001,835.0764740750001,835.0764740750001,837.0958132190001,837.0958132190001,837.0958132190001,837.0958132190001,837.0958132190001,837.0958132190001,837.0958132190001,837.0958132190001,839.1317127990001,839.1317127990001,839.1317127990001,839.1317127990001,,,,,,,,,,,,,,,,,,,,,,,,,,,,,,06,008,2022-09-22_11h58.50.483,test2,2022.2.4,59.937249176505745,
0,0,0,0,37,0,37,0,839.1317127990001,839.1317127990001,839.1317127990001,839.1317127990001,839.1317127990001,839.1317127990001,839.1317127990001,1,1,azul,1,['N_B'],840.9341830870001,840.9341830870001,840.9341830870001,840.9341830870001,842.9519403710001,842.9519403710001,842.9519403710001,842.9519403710001,842.9519403710001,842.9519403710001,842.9519403710001,842.9519403710001,844.9885493470001,844.9885493470001,844.9885493470001,844.9885493470001,,,,,,,,,,,,,,,,,,,,,,,,,,,,,,06,008,2022-09-22_11h58.50.483,test2,2022.2.4,59.937249176505745,
0,0,0,0,38,0,38,0,844.9885493470001,844.9885493470001,844.9885493470001,844.9885493470001,844.9885493470001,844.9885493470001,844.9885493470001,1,1,azul,1,['N_B'],846.4730683760001,846.4730683760001,846.4730683760001,846.4730683760001,848.5085034040001,848.5085034040001,848.5085034040001,848.5085034040001,848.5085034040001,848.5085034040001,848.5085034040001,848.5085034040001,850.5449563469999,850.5449563469999,850.5449563469999,850.5449563469999,,,,,,,,,,,,,,,,,,,,,,,,,,,,,,06,008,2022-09-22_11h58.50.483,test2,2022.2.4,59.937249176505745,
0,0,0,0,39,0,39,0,850.5449563469999,850.5449563469999,850.5449563469999,850.5449563469999,850.5449563469999,850.5449563469999,850.5449563469999,1,-1,azul,1,['N_B'],852.1794311169999,852.1794311169999,852.1794311169999,852.1794311169999,854.21469503,854.21469503,854.21469503,854.21469503,854.21469503,854.21469503,854.21469503,854.21469503,856.250973837,856.250973837,856.250973837,856.250973837,,,,,,,,,,,,,,,,,,,,,,,,,,,,,,06,008,2022-09-22_11h58.50.483,test2,2022.2.4,59.937249176505745,
0,0,0,0,40,0,40,0,856.250973837,856.250973837,856.250973837,856.250973837,856.250973837,856.250973837,856.250973837,-1,-1,rojo,1,['N_B'],857.8863028840001,857.8863028840001,857.8863028840001,857.8863028840001,859.9207772060001,859.9207772060001,859.9207772060001,859.9207772060001,859.9207772060001,859.9207772060001,859.9207772060001,859.9207772060001,861.9558550250001,861.9558550250001,861.9558550250001,861.9558550250001,,,,,,,,,,,,,,,,,,,,,,,,,,,,,,06,008,2022-09-22_11h58.50.483,test2,2022.2.4,59.937249176505745,
0,0,0,0,41,0,41,0,861.9558550250001,861.9558550250001,861.9558550250001,861.9558550250001,861.9558550250001,861.9558550250001,861.9558550250001,-1,-1,rojo,1,['N_B'],863.5081821480001,863.5081821480001,863.5081821480001,863.5081821480001,865.5433938450001,865.5433938450001,865.5433938450001,865.5433938450001,865.5433938450001,865.5433938450001,865.5433938450001,865.5433938450001,867.580300627,867.580300627,867.580300627,867.580300627,,,,,,,,,,,,,,,,,,,,,,,,,,,,,,06,008,2022-09-22_11h58.50.483,test2,2022.2.4,59.937249176505745,
0,0,0,0,42,0,42,0,867.580300627,867.580300627,867.580300627,867.580300627,867.580300627,867.580300627,867.580300627,-1,-1,rojo,1,['N_B'],869.6155510450001,869.6155510450001,869.6155510450001,869.6155510450001,871.6509765000001,871.6509765000001,871.6509765000001,871.6509765000001,871.6509765000001,871.6509765000001,871.6509765000001,871.6509765000001,873.686839531,873.686839531,873.686839531,873.686839531,,,,,,,,,,,,,,,,,,,,,,,,,,,,,,06,008,2022-09-22_11h58.50.483,test2,2022.2.4,59.937249176505745,
0,0,0,0,43,0,43,0,873.686839531,873.686839531,873.686839531,873.686839531,873.686839531,873.686839531,873.686839531,1,1,azul,1,['N_B'],875.305305506,875.305305506,875.305305506,875.305305506,877.341335051,877.341335051,877.341335051,877.341335051,877.341335051,877.341335051,877.341335051,877.341335051,879.3761292230001,879.3761292230001,879.3761292230001,879.3761292230001,,,,,,,,,,,,,,,,,,,,,,,,,,,,,,06,008,2022-09-22_11h58.50.483,test2,2022.2.4,59.937249176505745,
0,0,0,0,44,0,44,0,879.3761292230001,879.3761292230001,879.3761292230001,879.3761292230001,879.3761292230001,879.3761292230001,879.3761292230001,1,-1,azul,1,['N_B'],880.8106981440001,880.8106981440001,880.8106981440001,880.8106981440001,882.8456645240001,882.8456645240001,882.8456645240001,882.8456645240001,882.8456645240001,882.8456645240001,882.8456645240001,882.8456645240001,884.8820039090001,884.8820039090001,884.8820039090001,884.8820039090001,,,,,,,,,,,,,,,,,,,,,,,,,,,,,,06,008,2022-09-22_11h58.50.483,test2,2022.2.4,59.937249176505745,
0,0,0,0,45,0,45,0,884.8820039090001,884.8820039090001,884.8820039090001,884.8820039090001,884.8820039090001,884.8820039090001,884.8820039090001,1,-1,azul,1,['N_B'],886.467185086,886.467185086,886.467185086,886.467185086,888.5028430780001,888.5028430780001,888.5028430780001,888.5028430780001,888.5028430780001,888.5028430780001,888.5028430780001,888.5028430780001,890.5387121410001,890.5387121410001,890.5387121410001,890.5387121410001,,,,,,,,,,,,,,,,,,,,,,,,,,,,,,06,008,2022-09-22_11h58.50.483,test2,2022.2.4,59.937249176505745,
0,0,0,0,46,0,46,0,890.5387121410001,890.5387121410001,890.5387121410001,890.5387121410001,890.5387121410001,890.5387121410001,890.5387121410001,1,-1,azul,1,['N_B'],892.240226718,892.240226718,892.240226718,892.240226718,894.2757844760001,894.2757844760001,894.2757844760001,894.2757844760001,894.2757844760001,894.2757844760001,894.2757844760001,894.2757844760001,896.311890364,896.311890364,896.311890364,896.311890364,,,,,,,,,,,,,,,,,,,,,,,,,,,,,,06,008,2022-09-22_11h58.50.483,test2,2022.2.4,59.937249176505745,
0,0,0,0,47,0,47,0,896.311890364,896.311890364,896.311890364,896.311890364,896.311890364,896.311890364,896.311890364,-1,-1,rojo,1,['N_B'],897.9466985670001,897.9466985670001,897.9466985670001,897.9466985670001,899.982339404,899.982339404,899.982339404,899.982339404,899.982339404,899.982339404,899.982339404,899.982339404,902.0167632960001,902.0167632960001,902.0167632960001,902.0167632960001,,,,,,,,,,,,,,,,,,,,,,,,,,,,,,06,008,2022-09-22_11h58.50.483,test2,2022.2.4,59.937249176505745,
0,0,0,0,48,0,48,0,902.0167632960001,902.0167632960001,902.0167632960001,902.0167632960001,902.0167632960001,902.0167632960001,902.0167632960001,1,1,azul,1,['N_B'],904.0357364500001,904.0357364500001,904.0357364500001,904.0357364500001,906.0558689500001,906.0558689500001,906.0558689500001,906.0558689500001,906.0558689500001,906.0558689500001,906.0558689500001,906.0558689500001,908.0912484980001,908.0912484980001,908.0912484980001,908.0912484980001,,,,,,,,,,,,,,,,,,,,,,,,,,,,,,06,008,2022-09-22_11h58.50.483,test2,2022.2.4,59.937249176505745,
0,0,0,0,49,0,49,0,908.0912484980001,908.0912484980001,908.0912484980001,908.0912484980001,908.0912484980001,908.0912484980001,908.0912484980001,1,1,azul,1,['N_B'],909.8592338630001,909.8592338630001,909.8592338630001,909.8592338630001,911.8959959020001,911.8959959020001,911.8959959020001,911.8959959020001,911.8959959020001,911.8959959020001,911.8959959020001,911.8959959020001,913.9306243450001,913.9306243450001,913.9306243450001,913.9306243450001,,,,,,,,,,,,,,,,,,,,,,,,,,,,,,06,008,2022-09-22_11h58.50.483,test2,2022.2.4,59.937249176505745,
0,0,0,0,50,0,50,0,913.9306243450001,913.9306243450001,913.9306243450001,913.9306243450001,913.9306243450001,913.9306243450001,913.9306243450001,1,-1,azul,1,['N_B'],915.515709667,915.515709667,915.515709667,915.515709667,917.5507311829999,917.5507311829999,917.5507311829999,917.5507311829999,917.5507311829999,917.5507311829999,917.5507311829999,917.5507311829999,919.5874908410001,919.5874908410001,919.5874908410001,919.5874908410001,,,,,,,,,,,,,,,,,,,,,,,,,,,,,,06,008,2022-09-22_11h58.50.483,test2,2022.2.4,59.937249176505745,
0,0,0,0,51,0,51,0,919.5874908410001,919.5874908410001,919.5874908410001,919.5874908410001,919.5874908410001,919.5874908410001,919.5874908410001,1,-1,azul,1,['N_B'],921.1544908390001,921.1544908390001,921.1544908390001,921.1544908390001,923.1902471359999,923.1902471359999,923.1902471359999,923.1902471359999,923.1902471359999,923.1902471359999,923.1902471359999,923.1902471359999,925.227383448,925.227383448,925.227383448,925.227383448,,,,,,,,,,,,,,,,,,,,,,,,,,,,,,06,008,2022-09-22_11h58.50.483,test2,2022.2.4,59.937249176505745,
0,0,0,0,52,0,52,0,925.227383448,925.227383448,925.227383448,925.227383448,925.227383448,925.227383448,925.227383448,1,1,azul,1,['N_B'],926.710695445,926.710695445,926.710695445,926.710695445,928.7470972650001,928.7470972650001,928.7470972650001,928.7470972650001,928.7470972650001,928.7470972650001,928.7470972650001,928.7470972650001,930.782850501,930.782850501,930.782850501,930.782850501,,,,,,,,,,,,,,,,,,,,,,,,,,,,,,06,008,2022-09-22_11h58.50.483,test2,2022.2.4,59.937249176505745,
0,0,0,0,53,0,53,0,930.782850501,930.782850501,930.782850501,930.782850501,930.782850501,930.782850501,930.782850501,-1,-1,rojo,1,['N_B'],932.451219262,932.451219262,932.451219262,932.451219262,934.48651823,934.48651823,934.48651823,934.48651823,934.48651823,934.48651823,934.48651823,934.48651823,936.522248669,936.522248669,936.522248669,936.522248669,,,,,,,,,,,,,,,,,,,,,,,,,,,,,,06,008,2022-09-22_11h58.50.483,test2,2022.2.4,59.937249176505745,
0,0,0,0,54,0,54,0,936.522248669,936.522248669,936.522248669,936.522248669,936.522248669,936.522248669,936.522248669,1,1,azul,1,['N_B'],938.18977888,938.18977888,938.18977888,938.18977888,940.2267083520001,940.2267083520001,940.2267083520001,940.2267083520001,940.2267083520001,940.2267083520001,940.2267083520001,940.2267083520001,942.2620909,942.2620909,942.2620909,942.2620909,,,,,,,,,,,,,,,,,,,,,,,,,,,,,,06,008,2022-09-22_11h58.50.483,test2,2022.2.4,59.937249176505745,
0,0,0,0,55,0,55,0,942.2620909,942.2620909,942.2620909,942.2620909,942.2620909,942.2620909,942.2620909,1,-1,azul,1,['N_B'],943.863944774,943.863944774,943.863944774,943.863944774,945.9000399849999,945.9000399849999,945.9000399849999,945.9000399849999,945.9000399849999,945.9000399849999,945.9000399849999,945.9000399849999,947.9343050730001,947.9343050730001,947.9343050730001,947.9343050730001,,,,,,,,,,,,,,,,,,,,,,,,,,,,,,06,008,2022-09-22_11h58.50.483,test2,2022.2.4,59.937249176505745,
0,0,0,0,56,0,56,0,947.9343050730001,947.9343050730001,947.9343050730001,947.9343050730001,947.9343050730001,947.9343050730001,947.9343050730001,-1,-1,rojo,1,['N_B'],949.386515592,949.386515592,949.386515592,949.386515592,951.4214529129999,951.4214529129999,951.4214529129999,951.4214529129999,951.4214529129999,951.4214529129999,951.4214529129999,951.4214529129999,953.4571713830001,953.4571713830001,953.4571713830001,953.4571713830001,,,,,,,,,,,,,,,,,,,,,,,,,,,,,,06,008,2022-09-22_11h58.50.483,test2,2022.2.4,59.937249176505745,
0,0,0,0,57,0,57,0,953.4571713830001,953.4571713830001,953.4571713830001,953.4571713830001,953.4571713830001,953.4571713830001,953.4571713830001,1,1,azul,1,['N_B'],955.20876129,955.20876129,955.20876129,955.20876129,957.2443687780001,957.2443687780001,957.2443687780001,957.2443687780001,957.2443687780001,957.2443687780001,957.2443687780001,957.2443687780001,959.2811622060001,959.2811622060001,959.2811622060001,959.2811622060001,,,,,,,,,,,,,,,,,,,,,,,,,,,,,,06,008,2022-09-22_11h58.50.483,test2,2022.2.4,59.937249176505745,
0,0,0,0,58,0,58,0,959.2811622060001,959.2811622060001,959.2811622060001,959.2811622060001,959.2811622060001,959.2811622060001,959.2811622060001,1,-1,azul,1,['N_B'],960.882595455,960.882595455,960.882595455,960.882595455,962.917735197,962.917735197,962.917735197,962.917735197,962.917735197,962.917735197,962.917735197,962.917735197,964.952862892,964.952862892,964.952862892,964.952862892,,,,,,,,,,,,,,,,,,,,,,,,,,,,,,06,008,2022-09-22_11h58.50.483,test2,2022.2.4,59.937249176505745,
0,0,0,0,59,0,59,0,964.952862892,964.952862892,964.952862892,964.952862892,964.952862892,964.952862892,964.952862892,1,1,azul,1,['N_B'],966.7553824230001,966.7553824230001,966.7553824230001,966.7553824230001,968.7910206870001,968.7910206870001,968.7910206870001,968.7910206870001,968.7910206870001,968.7910206870001,968.7910206870001,968.7910206870001,970.8286960560001,970.8286960560001,970.8286960560001,970.8286960560001,,,,,,,,,,,,,,,,,,,,,,,,,,,,,,06,008,2022-09-22_11h58.50.483,test2,2022.2.4,59.937249176505745,
0,0,0,0,60,0,60,0,970.8286960560001,970.8286960560001,970.8286960560001,970.8286960560001,970.8286960560001,970.8286960560001,970.8286960560001,1,-1,azul,0,['N_A'],972.2124757280001,972.2124757280001,972.2124757280001,972.2124757280001,974.2464119159999,974.2464119159999,974.2464119159999,974.2464119159999,974.2464119159999,974.2464119159999,974.2464119159999,974.2464119159999,976.282609649,976.282609649,976.282609649,976.282609649,,,,,,,,,,,,,,,,,,,,,,,,,,,,,,06,008,2022-09-22_11h58.50.483,test2,2022.2.4,59.937249176505745,
0,0,0,0,61,0,61,0,976.282609649,976.282609649,976.282609649,976.282609649,976.282609649,976.282609649,976.282609649,-1,1,azul,1,['N_A'],977.66830703,977.66830703,977.66830703,977.66830703,979.702824343,979.702824343,979.702824343,979.702824343,979.702824343,979.702824343,979.702824343,979.702824343,981.7386680540001,981.7386680540001,981.7386680540001,981.7386680540001,,,,,,,,,,,,,,,,,,,,,,,,,,,,,,06,008,2022-09-22_11h58.50.483,test2,2022.2.4,59.937249176505745,
0,0,0,0,62,0,62,0,981.7386680540001,981.7386680540001,981.7386680540001,981.7386680540001,981.7386680540001,981.7386680540001,981.7386680540001,-1,-1,azul,1,['N_A'],983.306765216,983.306765216,983.306765216,983.306765216,985.3422277980001,985.3422277980001,985.3422277980001,985.3422277980001,985.3422277980001,985.3422277980001,985.3422277980001,985.3422277980001,987.377627218,987.377627218,987.377627218,987.377627218,,,,,,,,,,,,,,,,,,,,,,,,,,,,,,06,008,2022-09-22_11h58.50.483,test2,2022.2.4,59.937249176505745,
0,0,0,0,63,0,63,0,987.377627218,987.377627218,987.377627218,987.377627218,987.377627218,987.377627218,987.377627218,1,-1,rojo,1,['N_A'],988.696644442,988.696644442,988.696644442,988.696644442,990.732343507,990.732343507,990.732343507,990.732343507,990.732343507,990.732343507,990.732343507,990.732343507,992.768182391,992.768182391,992.768182391,992.768182391,,,,,,,,,,,,,,,,,,,,,,,,,,,,,,06,008,2022-09-22_11h58.50.483,test2,2022.2.4,59.937249176505745,
0,0,0,0,64,0,64,0,992.768182391,992.768182391,992.768182391,992.768182391,992.768182391,992.768182391,992.768182391,-1,1,azul,1,['N_A'],994.335129439,994.335129439,994.335129439,994.335129439,996.3710977129999,996.3710977129999,996.3710977129999,996.3710977129999,996.3710977129999,996.3710977129999,996.3710977129999,996.3710977129999,998.4073203610001,998.4073203610001,998.4073203610001,998.4073203610001,,,,,,,,,,,,,,,,,,,,,,,,,,,,,,06,008,2022-09-22_11h58.50.483,test2,2022.2.4,59.937249176505745,
0,0,0,0,65,0,65,0,998.4073203610001,998.4073203610001,998.4073203610001,998.4073203610001,998.4073203610001,998.4073203610001,998.4073203610001,1,-1,rojo,1,['N_A'],1000.375089768,1000.375089768,1000.375089768,1000.375089768,1002.412345099,1002.412345099,1002.412345099,1002.412345099,1002.412345099,1002.412345099,1002.412345099,1002.412345099,1004.447921937,1004.447921937,1004.447921937,1004.447921937,,,,,,,,,,,,,,,,,,,,,,,,,,,,,,06,008,2022-09-22_11h58.50.483,test2,2022.2.4,59.937249176505745,
0,0,0,0,66,0,66,0,1004.447921937,1004.447921937,1004.447921937,1004.447921937,1004.447921937,1004.447921937,1004.447921937,1,-1,rojo,1,['N_A'],1006.032871501,1006.032871501,1006.032871501,1006.032871501,1008.0680843790001,1008.0680843790001,1008.0680843790001,1008.0680843790001,1008.0680843790001,1008.0680843790001,1008.0680843790001,1008.0680843790001,1010.103836727,1010.103836727,1010.103836727,1010.103836727,,,,,,,,,,,,,,,,,,,,,,,,,,,,,,06,008,2022-09-22_11h58.50.483,test2,2022.2.4,59.937249176505745,
0,0,0,0,67,0,67,0,1010.103836727,1010.103836727,1010.103836727,1010.103836727,1010.103836727,1010.103836727,1010.103836727,1,-1,rojo,1,['N_A'],1011.889007519,1011.889007519,1011.889007519,1011.889007519,1013.9242865000001,1013.9242865000001,1013.9242865000001,1013.9242865000001,1013.9242865000001,1013.9242865000001,1013.9242865000001,1013.9242865000001,1015.960491949,1015.960491949,1015.960491949,1015.960491949,,,,,,,,,,,,,,,,,,,,,,,,,,,,,,06,008,2022-09-22_11h58.50.483,test2,2022.2.4,59.937249176505745,
0,0,0,0,68,0,68,0,1015.960491949,1015.960491949,1015.960491949,1015.960491949,1015.960491949,1015.960491949,1015.960491949,1,-1,rojo,1,['N_A'],1018.680103374,1018.680103374,1018.680103374,1018.680103374,1020.7155533960001,1020.7155533960001,1020.7155533960001,1020.7155533960001,1020.7155533960001,1020.7155533960001,1020.7155533960001,1020.7155533960001,1022.7508847000001,1022.7508847000001,1022.7508847000001,1022.7508847000001,,,,,,,,,,,,,,,,,,,,,,,,,,,,,,06,008,2022-09-22_11h58.50.483,test2,2022.2.4,59.937249176505745,
0,0,0,0,69,0,69,0,1022.7508847000001,1022.7508847000001,1022.7508847000001,1022.7508847000001,1022.7508847000001,1022.7508847000001,1022.7508847000001,1,1,rojo,0,['N_B'],1024.218715675,1024.218715675,1024.218715675,1024.218715675,1026.237346993,1026.237346993,1026.237346993,1026.237346993,1026.237346993,1026.237346993,1026.237346993,1026.237346993,1028.273156382,1028.273156382,1028.273156382,1028.273156382,,,,,,,,,,,,,,,,,,,,,,,,,,,,,,06,008,2022-09-22_11h58.50.483,test2,2022.2.4,59.937249176505745,
0,0,0,0,70,0,70,0,1028.273156382,1028.273156382,1028.273156382,1028.273156382,1028.273156382,1028.273156382,1028.273156382,1,1,azul,1,['N_B'],1029.8084018060001,1029.8084018060001,1029.8084018060001,1029.8084018060001,1031.84465357,1031.84465357,1031.84465357,1031.84465357,1031.84465357,1031.84465357,1031.84465357,1031.84465357,1033.88007519,1033.88007519,1033.88007519,1033.88007519,,,,,,,,,,,,,,,,,,,,,,,,,,,,,,06,008,2022-09-22_11h58.50.483,test2,2022.2.4,59.937249176505745,
0,0,0,0,71,0,71,0,1033.88007519,1033.88007519,1033.88007519,1033.88007519,1033.88007519,1033.88007519,1033.88007519,1,-1,azul,1,['N_B'],1035.265375341,1035.265375341,1035.265375341,1035.265375341,1037.300744253,1037.300744253,1037.300744253,1037.300744253,1037.300744253,1037.300744253,1037.300744253,1037.300744253,1039.336145666,1039.336145666,1039.336145666,1039.336145666,,,,,,,,,,,,,,,,,,,,,,,,,,,,,,06,008,2022-09-22_11h58.50.483,test2,2022.2.4,59.937249176505745,
0,0,0,0,72,0,72,0,1039.336145666,1039.336145666,1039.336145666,1039.336145666,1039.336145666,1039.336145666,1039.336145666,1,1,azul,1,['N_B'],1043.273804071,1043.273804071,1043.273804071,1043.273804071,1045.292127554,1045.292127554,1045.292127554,1045.292127554,1045.292127554,1045.292127554,1045.292127554,1045.292127554,1047.329276748,1047.329276748,1047.329276748,1047.329276748,,,,,,,,,,,,,,,,,,,,,,,,,,,,,,06,008,2022-09-22_11h58.50.483,test2,2022.2.4,59.937249176505745,
0,0,0,0,73,0,73,0,1047.329276748,1047.329276748,1047.329276748,1047.329276748,1047.329276748,1047.329276748,1047.329276748,1,1,azul,1,['N_B'],1049.113237719,1049.113237719,1049.113237719,1049.113237719,1051.149570307,1051.149570307,1051.149570307,1051.149570307,1051.149570307,1051.149570307,1051.149570307,1051.149570307,1053.183890653,1053.183890653,1053.183890653,1053.183890653,,,,,,,,,,,,,,,,,,,,,,,,,,,,,,06,008,2022-09-22_11h58.50.483,test2,2022.2.4,59.937249176505745,
0,0,0,0,74,0,74,0,1053.183890653,1053.183890653,1053.183890653,1053.183890653,1053.183890653,1053.183890653,1053.183890653,-1,-1,rojo,1,['N_B'],1054.618228796,1054.618228796,1054.618228796,1054.618228796,1056.655970983,1056.655970983,1056.655970983,1056.655970983,1056.655970983,1056.655970983,1056.655970983,1056.655970983,1058.689946384,1058.689946384,1058.689946384,1058.689946384,,,,,,,,,,,,,,,,,,,,,,,,,,,,,,06,008,2022-09-22_11h58.50.483,test2,2022.2.4,59.937249176505745,
0,0,0,0,75,0,75,0,1058.689946384,1058.689946384,1058.689946384,1058.689946384,1058.689946384,1058.689946384,1058.689946384,1,1,azul,1,['N_B'],1060.225801408,1060.225801408,1060.225801408,1060.225801408,1062.244648408,1062.244648408,1062.244648408,1062.244648408,1062.244648408,1062.244648408,1062.244648408,1062.244648408,1064.2806638910001,1064.2806638910001,1064.2806638910001,1064.2806638910001,,,,,,,,,,,,,,,,,,,,,,,,,,,,,,06,008,2022-09-22_11h58.50.483,test2,2022.2.4,59.937249176505745,
0,0,0,0,76,0,76,0,1064.2806638910001,1064.2806638910001,1064.2806638910001,1064.2806638910001,1064.2806638910001,1064.2806638910001,1064.2806638910001,1,1,azul,1,['N_B'],1065.7820047740001,1065.7820047740001,1065.7820047740001,1065.7820047740001,1067.8177253410001,1067.8177253410001,1067.8177253410001,1067.8177253410001,1067.8177253410001,1067.8177253410001,1067.8177253410001,1067.8177253410001,1069.852695058,1069.852695058,1069.852695058,1069.852695058,,,,,,,,,,,,,,,,,,,,,,,,,,,,,,06,008,2022-09-22_11h58.50.483,test2,2022.2.4,59.937249176505745,
0,0,0,0,77,0,77,0,1069.852695058,1069.852695058,1069.852695058,1069.852695058,1069.852695058,1069.852695058,1069.852695058,1,-1,azul,1,['N_B'],1071.321764014,1071.321764014,1071.321764014,1071.321764014,1073.357672651,1073.357672651,1073.357672651,1073.357672651,1073.357672651,1073.357672651,1073.357672651,1073.357672651,1075.392387253,1075.392387253,1075.392387253,1075.392387253,,,,,,,,,,,,,,,,,,,,,,,,,,,,,,06,008,2022-09-22_11h58.50.483,test2,2022.2.4,59.937249176505745,
0,0,0,0,78,0,78,0,1075.392387253,1075.392387253,1075.392387253,1075.392387253,1075.392387253,1075.392387253,1075.392387253,1,-1,azul,1,['N_B'],1077.511597718,1077.511597718,1077.511597718,1077.511597718,1079.546243803,1079.546243803,1079.546243803,1079.546243803,1079.546243803,1079.546243803,1079.546243803,1079.546243803,1081.581206895,1081.581206895,1081.581206895,1081.581206895,,,,,,,,,,,,,,,,,,,,,,,,,,,,,,06,008,2022-09-22_11h58.50.483,test2,2022.2.4,59.937249176505745,
0,0,0,0,79,0,79,0,1081.581206895,1081.581206895,1081.581206895,1081.581206895,1081.581206895,1081.581206895,1081.581206895,1,-1,azul,1,['N_B'],1083.166921533,1083.166921533,1083.166921533,1083.166921533,1085.203360078,1085.203360078,1085.203360078,1085.203360078,1085.203360078,1085.203360078,1085.203360078,1085.203360078,1087.238989223,1087.238989223,1087.238989223,1087.238989223,,,,,,,,,,,,,,,,,,,,,,,,,,,,,,06,008,2022-09-22_11h58.50.483,test2,2022.2.4,59.937249176505745,
0,0,0,0,80,0,80,0,1087.238989223,1087.238989223,1087.238989223,1087.238989223,1087.238989223,1087.238989223,1087.238989223,1,-1,azul,1,['N_B'],1092.527483436,1092.527483436,1092.527483436,1092.527483436,1094.564086636,1094.564086636,1094.564086636,1094.564086636,1094.564086636,1094.564086636,1094.564086636,1094.564086636,1096.598337255,1096.598337255,1096.598337255,1096.598337255,,,,,,,,,,,,,,,,,,,,,,,,,,,,,,06,008,2022-09-22_11h58.50.483,test2,2022.2.4,59.937249176505745,
0,0,0,0,81,0,81,0,1096.598337255,1096.598337255,1096.598337255,1096.598337255,1096.598337255,1096.598337255,1096.598337255,-1,-1,rojo,1,['N_B'],1098.083227184,1098.083227184,1098.083227184,1098.083227184,1100.119071237,1100.119071237,1100.119071237,1100.119071237,1100.119071237,1100.119071237,1100.119071237,1100.119071237,1102.155331646,1102.155331646,1102.155331646,1102.155331646,,,,,,,,,,,,,,,,,,,,,,,,,,,,,,06,008,2022-09-22_11h58.50.483,test2,2022.2.4,59.937249176505745,
0,0,0,0,82,0,82,0,1102.155331646,1102.155331646,1102.155331646,1102.155331646,1102.155331646,1102.155331646,1102.155331646,-1,-1,rojo,1,['N_B'],1103.839904077,1103.839904077,1103.839904077,1103.839904077,1105.875572773,1105.875572773,1105.875572773,1105.875572773,1105.875572773,1105.875572773,1105.875572773,1105.875572773,1107.911273676,1107.911273676,1107.911273676,1107.911273676,,,,,,,,,,,,,,,,,,,,,,,,,,,,,,06,008,2022-09-22_11h58.50.483,test2,2022.2.4,59.937249176505745,
0,0,0,0,83,0,83,0,1107.911273676,1107.911273676,1107.911273676,1107.911273676,1107.911273676,1107.911273676,1107.911273676,-1,-1,rojo,1,['N_B'],1109.397101541,1109.397101541,1109.397101541,1109.397101541,1111.432243835,1111.432243835,1111.432243835,1111.432243835,1111.432243835,1111.432243835,1111.432243835,1111.432243835,1113.467875209,1113.467875209,1113.467875209,1113.467875209,,,,,,,,,,,,,,,,,,,,,,,,,,,,,,06,008,2022-09-22_11h58.50.483,test2,2022.2.4,59.937249176505745,
0,0,0,0,84,0,84,0,1113.467875209,1113.467875209,1113.467875209,1113.467875209,1113.467875209,1113.467875209,1113.467875209,1,-1,azul,0,['N_A'],1116.871037857,1116.871037857,1116.871037857,1116.871037857,1118.9070427020001,1118.9070427020001,1118.9070427020001,1118.9070427020001,1118.9070427020001,1118.9070427020001,1118.9070427020001,1118.9070427020001,1120.943175065,1120.943175065,1120.943175065,1120.943175065,,,,,,,,,,,,,,,,,,,,,,,,,,,,,,06,008,2022-09-22_11h58.50.483,test2,2022.2.4,59.937249176505745,
0,0,0,0,85,0,85,0,1120.943175065,1120.943175065,1120.943175065,1120.943175065,1120.943175065,1120.943175065,1120.943175065,-1,1,azul,1,['N_A'],1122.410984952,1122.410984952,1122.410984952,1122.410984952,1124.447370433,1124.447370433,1124.447370433,1124.447370433,1124.447370433,1124.447370433,1124.447370433,1124.447370433,1126.48197232,1126.48197232,1126.48197232,1126.48197232,,,,,,,,,,,,,,,,,,,,,,,,,,,,,,06,008,2022-09-22_11h58.50.483,test2,2022.2.4,59.937249176505745,
0,0,0,0,86,0,86,0,1126.48197232,1126.48197232,1126.48197232,1126.48197232,1126.48197232,1126.48197232,1126.48197232,-1,-1,azul,1,['N_A'],1128.667747696,1128.667747696,1128.667747696,1128.667747696,1130.703603204,1130.703603204,1130.703603204,1130.703603204,1130.703603204,1130.703603204,1130.703603204,1130.703603204,1132.738889355,1132.738889355,1132.738889355,1132.738889355,,,,,,,,,,,,,,,,,,,,,,,,,,,,,,06,008,2022-09-22_11h58.50.483,test2,2022.2.4,59.937249176505745,
0,0,0,0,87,0,87,0,1132.738889355,1132.738889355,1132.738889355,1132.738889355,1132.738889355,1132.738889355,1132.738889355,1,-1,rojo,1,['N_A'],1134.507900341,1134.507900341,1134.507900341,1134.507900341,1136.5432128720001,1136.5432128720001,1136.5432128720001,1136.5432128720001,1136.5432128720001,1136.5432128720001,1136.5432128720001,1136.5432128720001,1138.579340255,1138.579340255,1138.579340255,1138.579340255,,,,,,,,,,,,,,,,,,,,,,,,,,,,,,06,008,2022-09-22_11h58.50.483,test2,2022.2.4,59.937249176505745,
0,0,0,0,88,0,88,0,1138.579340255,1138.579340255,1138.579340255,1138.579340255,1138.579340255,1138.579340255,1138.579340255,1,-1,rojo,1,['N_A'],1140.513557552,1140.513557552,1140.513557552,1140.513557552,1142.549761298,1142.549761298,1142.549761298,1142.549761298,1142.549761298,1142.549761298,1142.549761298,1142.549761298,1144.58638926,1144.58638926,1144.58638926,1144.58638926,,,,,,,,,,,,,,,,,,,,,,,,,,,,,,06,008,2022-09-22_11h58.50.483,test2,2022.2.4,59.937249176505745,
0,0,0,0,89,0,89,0,1144.58638926,1144.58638926,1144.58638926,1144.58638926,1144.58638926,1144.58638926,1144.58638926,1,1,rojo,0,['N_B'],1146.037718411,1146.037718411,1146.037718411,1146.037718411,1148.072739088,1148.072739088,1148.072739088,1148.072739088,1148.072739088,1148.072739088,1148.072739088,1148.072739088,1150.107703158,1150.107703158,1150.107703158,1150.107703158,,,,,,,,,,,,,,,,,,,,,,,,,,,,,,06,008,2022-09-22_11h58.50.483,test2,2022.2.4,59.937249176505745,
0,0,0,0,90,0,90,0,1150.107703158,1150.107703158,1150.107703158,1150.107703158,1150.107703158,1150.107703158,1150.107703158,-1,-1,rojo,1,['N_B'],1153.361684747,1153.361684747,1153.361684747,1153.361684747,1155.397622817,1155.397622817,1155.397622817,1155.397622817,1155.397622817,1155.397622817,1155.397622817,1155.397622817,1157.433184755,1157.433184755,1157.433184755,1157.433184755,,,,,,,,,,,,,,,,,,,,,,,,,,,,,,06,008,2022-09-22_11h58.50.483,test2,2022.2.4,59.937249176505745,
0,0,0,0,91,0,91,0,1157.433184755,1157.433184755,1157.433184755,1157.433184755,1157.433184755,1157.433184755,1157.433184755,1,1,azul,1,['N_B'],1159.452527064,1159.452527064,1159.452527064,1159.452527064,1161.488158932,1161.488158932,1161.488158932,1161.488158932,1161.488158932,1161.488158932,1161.488158932,1161.488158932,1163.523146447,1163.523146447,1163.523146447,1163.523146447,,,,,,,,,,,,,,,,,,,,,,,,,,,,,,06,008,2022-09-22_11h58.50.483,test2,2022.2.4,59.937249176505745,
0,0,0,0,92,0,92,0,1163.523146447,1163.523146447,1163.523146447,1163.523146447,1163.523146447,1163.523146447,1163.523146447,1,-1,azul,1,['N_B'],1165.6424752560001,1165.6424752560001,1165.6424752560001,1165.6424752560001,1167.678113122,1167.678113122,1167.678113122,1167.678113122,1167.678113122,1167.678113122,1167.678113122,1167.678113122,1169.713429376,1169.713429376,1169.713429376,1169.713429376,,,,,,,,,,,,,,,,,,,,,,,,,,,,,,06,008,2022-09-22_11h58.50.483,test2,2022.2.4,59.937249176505745,
0,0,0,0,93,0,93,0,1169.713429376,1169.713429376,1169.713429376,1169.713429376,1169.713429376,1169.713429376,1169.713429376,1,-1,azul,1,['N_B'],1171.732420955,1171.732420955,1171.732420955,1171.732420955,1173.767896976,1173.767896976,1173.767896976,1173.767896976,1173.767896976,1173.767896976,1173.767896976,1173.767896976,1175.80386953,1175.80386953,1175.80386953,1175.80386953,,,,,,,,,,,,,,,,,,,,,,,,,,,,,,06,008,2022-09-22_11h58.50.483,test2,2022.2.4,59.937249176505745,
0,0,0,0,94,0,94,0,1175.80386953,1175.80386953,1175.80386953,1175.80386953,1175.80386953,1175.80386953,1175.80386953,1,-1,azul,0,['N_A'],1178.739873025,1178.739873025,1178.739873025,1178.739873025,1180.775809843,1180.775809843,1180.775809843,1180.775809843,1180.775809843,1180.775809843,1180.775809843,1180.775809843,1182.810778322,1182.810778322,1182.810778322,1182.810778322,,,,,,,,,,,,,,,,,,,,,,,,,,,,,,06,008,2022-09-22_11h58.50.483,test2,2022.2.4,59.937249176505745,
0,0,0,0,95,0,95,0,1182.810778322,1182.810778322,1182.810778322,1182.810778322,1182.810778322,1182.810778322,1182.810778322,1,-1,rojo,1,['N_A'],1184.2464537390001,1184.2464537390001,1184.2464537390001,1184.2464537390001,1186.282165986,1186.282165986,1186.282165986,1186.282165986,1186.282165986,1186.282165986,1186.282165986,1186.282165986,1188.316621947,1188.316621947,1188.316621947,1188.316621947,,,,,,,,,,,,,,,,,,,,,,,,,,,,,,06,008,2022-09-22_11h58.50.483,test2,2022.2.4,59.937249176505745,
0,0,0,0,96,0,96,0,1188.316621947,1188.316621947,1188.316621947,1188.316621947,1188.316621947,1188.316621947,1188.316621947,1,1,rojo,1,['N_A'],1189.951714483,1189.951714483,1189.951714483,1189.951714483,1191.988473661,1191.988473661,1191.988473661,1191.988473661,1191.988473661,1191.988473661,1191.988473661,1191.988473661,1194.023461742,1194.023461742,1194.023461742,1194.023461742,,,,,,,,,,,,,,,,,,,,,,,,,,,,,,06,008,2022-09-22_11h58.50.483,test2,2022.2.4,59.937249176505745,
0,0,0,0,97,0,97,0,1194.023461742,1194.023461742,1194.023461742,1194.023461742,1194.023461742,1194.023461742,1194.023461742,-1,-1,azul,1,['N_A'],1197.010452711,1197.010452711,1197.010452711,1197.010452711,1199.04524745,1199.04524745,1199.04524745,1199.04524745,1199.04524745,1199.04524745,1199.04524745,1199.04524745,1201.081403506,1201.081403506,1201.081403506,1201.081403506,,,,,,,,,,,,,,,,,,,,,,,,,,,,,,06,008,2022-09-22_11h58.50.483,test2,2022.2.4,59.937249176505745,
0,0,0,0,98,0,98,0,1201.081403506,1201.081403506,1201.081403506,1201.081403506,1201.081403506,1201.081403506,1201.081403506,1,-1,rojo,1,['N_A'],1202.599638563,1202.599638563,1202.599638563,1202.599638563,1204.6354969210001,1204.6354969210001,1204.6354969210001,1204.6354969210001,1204.6354969210001,1204.6354969210001,1204.6354969210001,1204.6354969210001,1206.6695417820001,1206.6695417820001,1206.6695417820001,1206.6695417820001,,,,,,,,,,,,,,,,,,,,,,,,,,,,,,06,008,2022-09-22_11h58.50.483,test2,2022.2.4,59.937249176505745,
0,0,0,0,99,0,99,0,1206.6695417820001,1206.6695417820001,1206.6695417820001,1206.6695417820001,1206.6695417820001,1206.6695417820001,1206.6695417820001,1,1,rojo,0,['N_B'],1208.021605092,1208.021605092,1208.021605092,1208.021605092,1210.058964842,1210.058964842,1210.058964842,1210.058964842,1210.058964842,1210.058964842,1210.058964842,1210.058964842,1212.09276642,1212.09276642,1212.09276642,1212.09276642,,,,,,,,,,,,,,,,,,,,,,,,,,,,,,06,008,2022-09-22_11h58.50.483,test2,2022.2.4,59.937249176505745,
0,0,0,0,100,0,100,0,1212.09276642,1212.09276642,1212.09276642,1212.09276642,1212.09276642,1212.09276642,1212.09276642,-1,-1,rojo,1,['N_B'],1213.5447100220001,1213.5447100220001,1213.5447100220001,1213.5447100220001,1215.580858231,1215.580858231,1215.580858231,1215.580858231,1215.580858231,1215.580858231,1215.580858231,1215.580858231,1217.616355741,1217.616355741,1217.616355741,1217.616355741,,,,,,,,,,,,,,,,,,,,,,,,,,,,,,06,008,2022-09-22_11h58.50.483,test2,2022.2.4,59.937249176505745,
0,0,0,0,101,0,101,0,1217.616355741,1217.616355741,1217.616355741,1217.616355741,1217.616355741,1217.616355741,1217.616355741,1,-1,azul,1,['N_B'],1218.968090895,1218.968090895,1218.968090895,1218.968090895,1221.003076555,1221.003076555,1221.003076555,1221.003076555,1221.003076555,1221.003076555,1221.003076555,1221.003076555,1223.03864731,1223.03864731,1223.03864731,1223.03864731,,,,,,,,,,,,,,,,,,,,,,,,,,,,,,06,008,2022-09-22_11h58.50.483,test2,2022.2.4,59.937249176505745,
0,0,0,0,102,0,102,0,1223.03864731,1223.03864731,1223.03864731,1223.03864731,1223.03864731,1223.03864731,1223.03864731,-1,-1,rojo,1,['N_B'],1224.52371667,1224.52371667,1224.52371667,1224.52371667,1226.559297013,1226.559297013,1226.559297013,1226.559297013,1226.559297013,1226.559297013,1226.559297013,1226.559297013,1228.5947549950001,1228.5947549950001,1228.5947549950001,1228.5947549950001,,,,,,,,,,,,,,,,,,,,,,,,,,,,,,06,008,2022-09-22_11h58.50.483,test2,2022.2.4,59.937249176505745,
0,0,0,0,103,0,103,0,1228.5947549950001,1228.5947549950001,1228.5947549950001,1228.5947549950001,1228.5947549950001,1228.5947549950001,1228.5947549950001,-1,-1,rojo,0,['N_A'],1230.18015839,1230.18015839,1230.18015839,1230.18015839,1232.215790922,1232.215790922,1232.215790922,1232.215790922,1232.215790922,1232.215790922,1232.215790922,1232.215790922,1234.251061375,1234.251061375,1234.251061375,1234.251061375,,,,,,,,,,,,,,,,,,,,,,,,,,,,,,06,008,2022-09-22_11h58.50.483,test2,2022.2.4,59.937249176505745,
0,0,0,0,104,0,104,0,1234.251061375,1234.251061375,1234.251061375,1234.251061375,1234.251061375,1234.251061375,1234.251061375,1,-1,rojo,0,['N_B'],1235.636136263,1235.636136263,1235.636136263,1235.636136263,1237.671968828,1237.671968828,1237.671968828,1237.671968828,1237.671968828,1237.671968828,1237.671968828,1237.671968828,1239.70763674,1239.70763674,1239.70763674,1239.70763674,,,,,,,,,,,,,,,,,,,,,,,,,,,,,,06,008,2022-09-22_11h58.50.483,test2,2022.2.4,59.937249176505745,
0,0,0,0,105,0,105,0,1239.70763674,1239.70763674,1239.70763674,1239.70763674,1239.70763674,1239.70763674,1239.70763674,1,1,azul,1,['N_B'],1241.292663395,1241.292663395,1241.292663395,1241.292663395,1243.311262795,1243.311262795,1243.311262795,1243.311262795,1243.311262795,1243.311262795,1243.311262795,1243.311262795,1245.347004755,1245.347004755,1245.347004755,1245.347004755,,,,,,,,,,,,,,,,,,,,,,,,,,,,,,06,008,2022-09-22_11h58.50.483,test2,2022.2.4,59.937249176505745,
0,0,0,0,106,0,106,0,1245.347004755,1245.347004755,1245.347004755,1245.347004755,1245.347004755,1245.347004755,1245.347004755,1,1,azul,1,['N_B'],1247.465766698,1247.465766698,1247.465766698,1247.465766698,1249.500718536,1249.500718536,1249.500718536,1249.500718536,1249.500718536,1249.500718536,1249.500718536,1249.500718536,1251.536867964,1251.536867964,1251.536867964,1251.536867964,,,,,,,,,,,,,,,,,,,,,,,,,,,,,,06,008,2022-09-22_11h58.50.483,test2,2022.2.4,59.937249176505745,
0,0,0,0,107,0,107,0,1251.536867964,1251.536867964,1251.536867964,1251.536867964,1251.536867964,1251.536867964,1251.536867964,1,-1,azul,0,['N_A'],1253.689566492,1253.689566492,1253.689566492,1253.689566492,1255.72437437,1255.72437437,1255.72437437,1255.72437437,1255.72437437,1255.72437437,1255.72437437,1255.72437437,1257.760839358,1257.760839358,1257.760839358,1257.760839358,,,,,,,,,,,,,,,,,,,,,,,,,,,,,,06,008,2022-09-22_11h58.50.483,test2,2022.2.4,59.937249176505745,
0,0,0,0,108,0,108,0,1257.760839358,1257.760839358,1257.760839358,1257.760839358,1257.760839358,1257.760839358,1257.760839358,1,-1,rojo,1,['N_A'],1259.779791319,1259.779791319,1259.779791319,1259.779791319,1261.8147987,1261.8147987,1261.8147987,1261.8147987,1261.8147987,1261.8147987,1261.8147987,1261.8147987,1263.850243225,1263.850243225,1263.850243225,1263.850243225,,,,,,,,,,,,,,,,,,,,,,,,,,,,,,06,008,2022-09-22_11h58.50.483,test2,2022.2.4,59.937249176505745,
0,0,0,0,109,0,109,0,1263.850243225,1263.850243225,1263.850243225,1263.850243225,1263.850243225,1263.850243225,1263.850243225,1,-1,rojo,0,['N_B'],1265.7698082690001,1265.7698082690001,1265.7698082690001,1265.7698082690001,1267.80566443,1267.80566443,1267.80566443,1267.80566443,1267.80566443,1267.80566443,1267.80566443,1267.80566443,1269.840763995,1269.840763995,1269.840763995,1269.840763995,,,,,,,,,,,,,,,,,,,,,,,,,,,,,,06,008,2022-09-22_11h58.50.483,test2,2022.2.4,59.937249176505745,
0,0,0,0,110,0,110,0,1269.840763995,1269.840763995,1269.840763995,1269.840763995,1269.840763995,1269.840763995,1269.840763995,-1,1,rojo,1,['N_B'],1271.742969762,1271.742969762,1271.742969762,1271.742969762,1273.777799603,1273.777799603,1273.777799603,1273.777799603,1273.777799603,1273.777799603,1273.777799603,1273.777799603,1275.814065889,1275.814065889,1275.814065889,1275.814065889,,,,,,,,,,,,,,,,,,,,,,,,,,,,,,06,008,2022-09-22_11h58.50.483,test2,2022.2.4,59.937249176505745,
0,0,0,0,111,0,111,0,1275.814065889,1275.814065889,1275.814065889,1275.814065889,1275.814065889,1275.814065889,1275.814065889,-1,-1,rojo,1,['N_B'],1277.665751108,1277.665751108,1277.665751108,1277.665751108,1279.701186344,1279.701186344,1279.701186344,1279.701186344,1279.701186344,1279.701186344,1279.701186344,1279.701186344,1281.736991206,1281.736991206,1281.736991206,1281.736991206,,,,,,,,,,,,,,,,,,,,,,,,,,,,,,06,008,2022-09-22_11h58.50.483,test2,2022.2.4,59.937249176505745,
0,0,0,0,112,0,112,0,1281.736991206,1281.736991206,1281.736991206,1281.736991206,1281.736991206,1281.736991206,1281.736991206,1,-1,azul,1,['N_B'],1283.689215464,1283.689215464,1283.689215464,1283.689215464,1285.725011109,1285.725011109,1285.725011109,1285.725011109,1285.725011109,1285.725011109,1285.725011109,1285.725011109,1287.7598910460001,1287.7598910460001,1287.7598910460001,1287.7598910460001,,,,,,,,,,,,,,,,,,,,,,,,,,,,,,06,008,2022-09-22_11h58.50.483,test2,2022.2.4,59.937249176505745,
0,0,0,0,113,0,113,0,1287.7598910460001,1287.7598910460001,1287.7598910460001,1287.7598910460001,1287.7598910460001,1287.7598910460001,1287.7598910460001,-1,1,rojo,1,['N_B'],1289.6457958610001,1289.6457958610001,1289.6457958610001,1289.6457958610001,1291.680644306,1291.680644306,1291.680644306,1291.680644306,1291.680644306,1291.680644306,1291.680644306,1291.680644306,1293.717224106,1293.717224106,1293.717224106,1293.717224106,,,,,,,,,,,,,,,,,,,,,,,,,,,,,,06,008,2022-09-22_11h58.50.483,test2,2022.2.4,59.937249176505745,
0,0,0,0,114,0,114,0,1293.717224106,1293.717224106,1293.717224106,1293.717224106,1293.717224106,1293.717224106,1293.717224106,1,-1,azul,1,['N_B'],1295.369067951,1295.369067951,1295.369067951,1295.369067951,1297.404335252,1297.404335252,1297.404335252,1297.404335252,1297.404335252,1297.404335252,1297.404335252,1297.404335252,1299.440116946,1299.440116946,1299.440116946,1299.440116946,,,,,,,,,,,,,,,,,,,,,,,,,,,,,,06,008,2022-09-22_11h58.50.483,test2,2022.2.4,59.937249176505745,
0,0,0,0,115,0,115,0,1299.440116946,1299.440116946,1299.440116946,1299.440116946,1299.440116946,1299.440116946,1299.440116946,1,1,azul,1,['N_B'],1301.408873358,1301.408873358,1301.408873358,1301.408873358,1303.426146668,1303.426146668,1303.426146668,1303.426146668,1303.426146668,1303.426146668,1303.426146668,1303.426146668,1305.463439764,1305.463439764,1305.463439764,1305.463439764,,,,,,,,,,,,,,,,,,,,,,,,,,,,,,06,008,2022-09-22_11h58.50.483,test2,2022.2.4,59.937249176505745,
0,0,0,0,116,0,116,0,1305.463439764,1305.463439764,1305.463439764,1305.463439764,1305.463439764,1305.463439764,1305.463439764,1,1,azul,1,['N_B'],1307.115330313,1307.115330313,1307.115330313,1307.115330313,1309.133526336,1309.133526336,1309.133526336,1309.133526336,1309.133526336,1309.133526336,1309.133526336,1309.133526336,1311.169168275,1311.169168275,1311.169168275,1311.169168275,,,,,,,,,,,,,,,,,,,,,,,,,,,,,,06,008,2022-09-22_11h58.50.483,test2,2022.2.4,59.937249176505745,
0,0,0,0,117,0,117,0,1311.169168275,1311.169168275,1311.169168275,1311.169168275,1311.169168275,1311.169168275,1311.169168275,1,1,azul,1,['N_B'],1313.037935571,1313.037935571,1313.037935571,1313.037935571,1315.074459931,1315.074459931,1315.074459931,1315.074459931,1315.074459931,1315.074459931,1315.074459931,1315.074459931,1317.109534915,1317.109534915,1317.109534915,1317.109534915,,,,,,,,,,,,,,,,,,,,,,,,,,,,,,06,008,2022-09-22_11h58.50.483,test2,2022.2.4,59.937249176505745,
0,0,0,0,118,0,118,0,1317.109534915,1317.109534915,1317.109534915,1317.109534915,1317.109534915,1317.109534915,1317.109534915,1,-1,azul,1,['N_B'],1318.99442095,1318.99442095,1318.99442095,1318.99442095,1321.0301999160001,1321.0301999160001,1321.0301999160001,1321.0301999160001,1321.0301999160001,1321.0301999160001,1321.0301999160001,1321.0301999160001,1323.065239998,1323.065239998,1323.065239998,1323.065239998,,,,,,,,,,,,,,,,,,,,,,,,,,,,,,06,008,2022-09-22_11h58.50.483,test2,2022.2.4,59.937249176505745,
0,0,0,0,119,0,119,0,1323.065239998,1323.065239998,1323.065239998,1323.065239998,1323.065239998,1323.065239998,1323.065239998,1,-1,azul,1,['N_B'],1324.617498678,1324.617498678,1324.617498678,1324.617498678,1326.653306748,1326.653306748,1326.653306748,1326.653306748,1326.653306748,1326.653306748,1326.653306748,1326.653306748,1328.688486793,1328.688486793,1328.688486793,1328.688486793,,,,,,,,,,,,,,,,,,,,,,,,,,,,,,06,008,2022-09-22_11h58.50.483,test2,2022.2.4,59.937249176505745,
0,0,0,0,120,0,120,0,1328.688486793,1328.688486793,1328.688486793,1328.688486793,1328.688486793,1328.688486793,1328.688486793,-1,-1,rojo,1,['N_B'],1330.507358808,1330.507358808,1330.507358808,1330.507358808,1332.5429177600001,1332.5429177600001,1332.5429177600001,1332.5429177600001,1332.5429177600001,1332.5429177600001,1332.5429177600001,1332.5429177600001,1334.578891072,1334.578891072,1334.578891072,1334.578891072,,,,,,,,,,,,,,,,,,,,,,,,,,,,,,06,008,2022-09-22_11h58.50.483,test2,2022.2.4,59.937249176505745,
0,0,0,0,121,0,121,0,1334.578891072,1334.578891072,1334.578891072,1334.578891072,1334.578891072,1334.578891072,1334.578891072,1,1,azul,1,['N_B'],1336.730799557,1336.730799557,1336.730799557,1336.730799557,1338.766683138,1338.766683138,1338.766683138,1338.766683138,1338.766683138,1338.766683138,1338.766683138,1338.766683138,1340.8019613200001,1340.8019613200001,1340.8019613200001,1340.8019613200001,,,,,,,,,,,,,,,,,,,,,,,,,,,,,,06,008,2022-09-22_11h58.50.483,test2,2022.2.4,59.937249176505745,
0,0,0,0,122,0,122,0,1340.8019613200001,1340.8019613200001,1340.8019613200001,1340.8019613200001,1340.8019613200001,1340.8019613200001,1340.8019613200001,-1,-1,rojo,1,['N_B'],1342.554201531,1342.554201531,1342.554201531,1342.554201531,1344.589739383,1344.589739383,1344.589739383,1344.589739383,1344.589739383,1344.589739383,1344.589739383,1344.589739383,1346.6257075,1346.6257075,1346.6257075,1346.6257075,,,,,,,,,,,,,,,,,,,,,,,,,,,,,,06,008,2022-09-22_11h58.50.483,test2,2022.2.4,59.937249176505745,
0,0,0,0,123,0,123,0,1346.6257075,1346.6257075,1346.6257075,1346.6257075,1346.6257075,1346.6257075,1346.6257075,-1,1,rojo,1,['N_B'],1349.94489656,1349.94489656,1349.94489656,1349.94489656,1351.980679997,1351.980679997,1351.980679997,1351.980679997,1351.980679997,1351.980679997,1351.980679997,1351.980679997,1354.016954977,1354.016954977,1354.016954977,1354.016954977,,,,,,,,,,,,,,,,,,,,,,,,,,,,,,06,008,2022-09-22_11h58.50.483,test2,2022.2.4,59.937249176505745,
0,0,0,0,124,0,124,0,1354.016954977,1354.016954977,1354.016954977,1354.016954977,1354.016954977,1354.016954977,1354.016954977,1,-1,azul,1,['N_B'],1355.935689676,1355.935689676,1355.935689676,1355.935689676,1357.971290528,1357.971290528,1357.971290528,1357.971290528,1357.971290528,1357.971290528,1357.971290528,1357.971290528,1360.006755691,1360.006755691,1360.006755691,1360.006755691,,,,,,,,,,,,,,,,,,,,,,,,,,,,,,06,008,2022-09-22_11h58.50.483,test2,2022.2.4,59.937249176505745,
0,0,0,0,125,0,125,0,1360.006755691,1360.006755691,1360.006755691,1360.006755691,1360.006755691,1360.006755691,1360.006755691,1,-1,azul,1,['N_B'],1362.459039701,1362.459039701,1362.459039701,1362.459039701,1364.494842551,1364.494842551,1364.494842551,1364.494842551,1364.494842551,1364.494842551,1364.494842551,1364.494842551,1366.530431229,1366.530431229,1366.530431229,1366.530431229,,,,,,,,,,,,,,,,,,,,,,,,,,,,,,06,008,2022-09-22_11h58.50.483,test2,2022.2.4,59.937249176505745,
0,0,0,0,126,0,126,0,1366.530431229,1366.530431229,1366.530431229,1366.530431229,1366.530431229,1366.530431229,1366.530431229,1,-1,azul,1,['N_B'],1368.048838707,1368.048838707,1368.048838707,1368.048838707,1370.083902948,1370.083902948,1370.083902948,1370.083902948,1370.083902948,1370.083902948,1370.083902948,1370.083902948,1372.120587448,1372.120587448,1372.120587448,1372.120587448,,,,,,,,,,,,,,,,,,,,,,,,,,,,,,06,008,2022-09-22_11h58.50.483,test2,2022.2.4,59.937249176505745,
0,0,0,0,127,0,127,0,1372.120587448,1372.120587448,1372.120587448,1372.120587448,1372.120587448,1372.120587448,1372.120587448,1,1,azul,1,['N_B'],1373.654932591,1373.654932591,1373.654932591,1373.654932591,1375.6739480200001,1375.6739480200001,1375.6739480200001,1375.6739480200001,1375.6739480200001,1375.6739480200001,1375.6739480200001,1375.6739480200001,1377.709296366,1377.709296366,1377.709296366,1377.709296366,,,,,,,,,,,,,,,,,,,,,,,,,,,,,,06,008,2022-09-22_11h58.50.483,test2,2022.2.4,59.937249176505745,
0,0,0,0,128,0,128,0,1377.709296366,1377.709296366,1377.709296366,1377.709296366,1377.709296366,1377.709296366,1377.709296366,1,1,azul,1,['N_B'],1379.4778081900001,1379.4778081900001,1379.4778081900001,1379.4778081900001,1381.513448911,1381.513448911,1381.513448911,1381.513448911,1381.513448911,1381.513448911,1381.513448911,1381.513448911,1383.549343135,1383.549343135,1383.549343135,1383.549343135,,,,,,,,,,,,,,,,,,,,,,,,,,,,,,06,008,2022-09-22_11h58.50.483,test2,2022.2.4,59.937249176505745,
0,0,0,0,129,0,129,0,1383.549343135,1383.549343135,1383.549343135,1383.549343135,1383.549343135,1383.549343135,1383.549343135,-1,-1,rojo,1,['N_B'],1385.167498142,1385.167498142,1385.167498142,1385.167498142,1387.203804508,1387.203804508,1387.203804508,1387.203804508,1387.203804508,1387.203804508,1387.203804508,1387.203804508,1389.239284446,1389.239284446,1389.239284446,1389.239284446,,,,,,,,,,,,,,,,,,,,,,,,,,,,,,06,008,2022-09-22_11h58.50.483,test2,2022.2.4,59.937249176505745,
0,0,0,0,130,0,130,0,1389.239284446,1389.239284446,1389.239284446,1389.239284446,1389.239284446,1389.239284446,1389.239284446,1,1,azul,1,['N_B'],1391.2574031650001,1391.2574031650001,1391.2574031650001,1391.2574031650001,1393.292958278,1393.292958278,1393.292958278,1393.292958278,1393.292958278,1393.292958278,1393.292958278,1393.292958278,1395.329043603,1395.329043603,1395.329043603,1395.329043603,,,,,,,,,,,,,,,,,,,,,,,,,,,,,,06,008,2022-09-22_11h58.50.483,test2,2022.2.4,59.937249176505745,
0,0,0,0,131,0,131,0,1395.329043603,1395.329043603,1395.329043603,1395.329043603,1395.329043603,1395.329043603,1395.329043603,1,-1,azul,1,['N_B'],1396.847483863,1396.847483863,1396.847483863,1396.847483863,1398.882606577,1398.882606577,1398.882606577,1398.882606577,1398.882606577,1398.882606577,1398.882606577,1398.882606577,1400.918226736,1400.918226736,1400.918226736,1400.918226736,,,,,,,,,,,,,,,,,,,,,,,,,,,,,,06,008,2022-09-22_11h58.50.483,test2,2022.2.4,59.937249176505745,
0,0,0,0,132,0,132,0,1400.918226736,1400.918226736,1400.918226736,1400.918226736,1400.918226736,1400.918226736,1400.918226736,-1,-1,rojo,1,['N_B'],1402.403232197,1402.403232197,1402.403232197,1402.403232197,1404.438801629,1404.438801629,1404.438801629,1404.438801629,1404.438801629,1404.438801629,1404.438801629,1404.438801629,1406.4742367000001,1406.4742367000001,1406.4742367000001,1406.4742367000001,,,,,,,,,,,,,,,,,,,,,,,,,,,,,,06,008,2022-09-22_11h58.50.483,test2,2022.2.4,59.937249176505745,
0,0,0,0,133,0,133,0,1406.4742367000001,1406.4742367000001,1406.4742367000001,1406.4742367000001,1406.4742367000001,1406.4742367000001,1406.4742367000001,-1,-1,rojo,1,['N_B'],1407.925931039,1407.925931039,1407.925931039,1407.925931039,1409.96158537,1409.96158537,1409.96158537,1409.96158537,1409.96158537,1409.96158537,1409.96158537,1409.96158537,1411.997703657,1411.997703657,1411.997703657,1411.997703657,,,,,,,,,,,,,,,,,,,,,,,,,,,,,,06,008,2022-09-22_11h58.50.483,test2,2022.2.4,59.937249176505745,
0,0,0,0,134,0,134,0,1411.997703657,1411.997703657,1411.997703657,1411.997703657,1411.997703657,1411.997703657,1411.997703657,1,1,azul,1,['N_B'],1414.3834799840001,1414.3834799840001,1414.3834799840001,1414.3834799840001,1416.418814713,1416.418814713,1416.418814713,1416.418814713,1416.418814713,1416.418814713,1416.418814713,1416.418814713,1418.454368591,1418.454368591,1418.454368591,1418.454368591,,,,,,,,,,,,,,,,,,,,,,,,,,,,,,06,008,2022-09-22_11h58.50.483,test2,2022.2.4,59.937249176505745,
0,0,0,0,135,0,135,0,1418.454368591,1418.454368591,1418.454368591,1418.454368591,1418.454368591,1418.454368591,1418.454368591,-1,-1,rojo,1,['N_B'],1420.039616944,1420.039616944,1420.039616944,1420.039616944,1422.075126309,1422.075126309,1422.075126309,1422.075126309,1422.075126309,1422.075126309,1422.075126309,1422.075126309,1424.1108073120001,1424.1108073120001,1424.1108073120001,1424.1108073120001,,,,,,,,,,,,,,,,,,,,,,,,,,,,,,06,008,2022-09-22_11h58.50.483,test2,2022.2.4,59.937249176505745,
0,0,0,0,136,0,136,0,1424.1108073120001,1424.1108073120001,1424.1108073120001,1424.1108073120001,1424.1108073120001,1424.1108073120001,1424.1108073120001,-1,-1,rojo,0,['N_A'],1426.063057256,1426.063057256,1426.063057256,1426.063057256,1428.099056574,1428.099056574,1428.099056574,1428.099056574,1428.099056574,1428.099056574,1428.099056574,1428.099056574,1430.1341524,1430.1341524,1430.1341524,1430.1341524,,,,,,,,,,,,,,,,,,,,,,,,,,,,,,06,008,2022-09-22_11h58.50.483,test2,2022.2.4,59.937249176505745,
0,0,0,0,137,0,137,0,1430.1341524,1430.1341524,1430.1341524,1430.1341524,1430.1341524,1430.1341524,1430.1341524,1,-1,rojo,0,['N_B'],1431.685332574,1431.685332574,1431.685332574,1431.685332574,1433.720417393,1433.720417393,1433.720417393,1433.720417393,1433.720417393,1433.720417393,1433.720417393,1433.720417393,1435.756669505,1435.756669505,1435.756669505,1435.756669505,,,,,,,,,,,,,,,,,,,,,,,,,,,,,,06,008,2022-09-22_11h58.50.483,test2,2022.2.4,59.937249176505745,
0,0,0,0,138,0,138,0,1435.756669505,1435.756669505,1435.756669505,1435.756669505,1435.756669505,1435.756669505,1435.756669505,1,1,azul,1,['N_B'],1437.37499311,1437.37499311,1437.37499311,1437.37499311,1439.393364112,1439.393364112,1439.393364112,1439.393364112,1439.393364112,1439.393364112,1439.393364112,1439.393364112,1441.430019527,1441.430019527,1441.430019527,1441.430019527,,,,,,,,,,,,,,,,,,,,,,,,,,,,,,06,008,2022-09-22_11h58.50.483,test2,2022.2.4,59.937249176505745,
0,0,0,0,139,0,139,0,1441.430019527,1441.430019527,1441.430019527,1441.430019527,1441.430019527,1441.430019527,1441.430019527,1,1,azul,1,['N_B'],1442.964995015,1442.964995015,1442.964995015,1442.964995015,1444.9828988900001,1444.9828988900001,1444.9828988900001,1444.9828988900001,1444.9828988900001,1444.9828988900001,1444.9828988900001,1444.9828988900001,1447.019592827,1447.019592827,1447.019592827,1447.019592827,,,,,,,,,,,,,,,,,,,,,,,,,,,,,,06,008,2022-09-22_11h58.50.483,test2,2022.2.4,59.937249176505745,
0,0,0,0,140,0,140,0,1447.019592827,1447.019592827,1447.019592827,1447.019592827,1447.019592827,1447.019592827,1447.019592827,-1,1,rojo,1,['N_B'],1448.971648729,1448.971648729,1448.971648729,1448.971648729,1451.006879992,1451.006879992,1451.006879992,1451.006879992,1451.006879992,1451.006879992,1451.006879992,1451.006879992,1453.042772479,1453.042772479,1453.042772479,1453.042772479,,,,,,,,,,,,,,,,,,,,,,,,,,,,,,06,008,2022-09-22_11h58.50.483,test2,2022.2.4,59.937249176505745,
0,0,0,0,141,0,141,0,1453.042772479,1453.042772479,1453.042772479,1453.042772479,1453.042772479,1453.042772479,1453.042772479,-1,-1,rojo,1,['N_B'],1454.527819786,1454.527819786,1454.527819786,1454.527819786,1456.563498586,1456.563498586,1456.563498586,1456.563498586,1456.563498586,1456.563498586,1456.563498586,1456.563498586,1458.598653447,1458.598653447,1458.598653447,1458.598653447,,,,,,,,,,,,,,,,,,,,,,,,,,,,,,06,008,2022-09-22_11h58.50.483,test2,2022.2.4,59.937249176505745,
0,0,0,0,142,0,142,0,1458.598653447,1458.598653447,1458.598653447,1458.598653447,1458.598653447,1458.598653447,1458.598653447,1,1,azul,1,['N_B'],1460.500737375,1460.500737375,1460.500737375,1460.500737375,1462.5201873170001,1462.5201873170001,1462.5201873170001,1462.5201873170001,1462.5201873170001,1462.5201873170001,1462.5201873170001,1462.5201873170001,1464.555346408,1464.555346408,1464.555346408,1464.555346408,,,,,,,,,,,,,,,,,,,,,,,,,,,,,,06,008,2022-09-22_11h58.50.483,test2,2022.2.4,59.937249176505745,
0,0,0,0,143,0,143,0,1464.555346408,1464.555346408,1464.555346408,1464.555346408,1464.555346408,1464.555346408,1464.555346408,1,1,azul,1,['N_B'],1466.307631765,1466.307631765,1466.307631765,1466.307631765,1468.34281414,1468.34281414,1468.34281414,1468.34281414,1468.34281414,1468.34281414,1468.34281414,1468.34281414,1470.378493037,1470.378493037,1470.378493037,1470.378493037,,,,,,,,,,,,,,,,,,,,,,,,,,,,,,06,008,2022-09-22_11h58.50.483,test2,2022.2.4,59.937249176505745,
0,0,0,0,144,0,144,0,1470.378493037,1470.378493037,1470.378493037,1470.378493037,1470.378493037,1470.378493037,1470.378493037,-1,-1,rojo,1,['N_B'],1471.796732943,1471.796732943,1471.796732943,1471.796732943,1473.832536519,1473.832536519,1473.832536519,1473.832536519,1473.832536519,1473.832536519,1473.832536519,1473.832536519,1475.868270687,1475.868270687,1475.868270687,1475.868270687,,,,,,,,,,,,,,,,,,,,,,,,,,,,,,06,008,2022-09-22_11h58.50.483,test2,2022.2.4,59.937249176505745,
0,0,0,0,145,0,145,0,1475.868270687,1475.868270687,1475.868270687,1475.868270687,1475.868270687,1475.868270687,1475.868270687,1,-1,azul,1,['N_B'],1477.686644564,1477.686644564,1477.686644564,1477.686644564,1479.721844371,1479.721844371,1479.721844371,1479.721844371,1479.721844371,1479.721844371,1479.721844371,1479.721844371,1481.757307539,1481.757307539,1481.757307539,1481.757307539,,,,,,,,,,,,,,,,,,,,,,,,,,,,,,06,008,2022-09-22_11h58.50.483,test2,2022.2.4,59.937249176505745,
0,0,0,0,146,0,146,0,1481.757307539,1481.757307539,1481.757307539,1481.757307539,1481.757307539,1481.757307539,1481.757307539,1,1,azul,1,['N_B'],1483.442958315,1483.442958315,1483.442958315,1483.442958315,1485.478752291,1485.478752291,1485.478752291,1485.478752291,1485.478752291,1485.478752291,1485.478752291,1485.478752291,1487.51406204,1487.51406204,1487.51406204,1487.51406204,,,,,,,,,,,,,,,,,,,,,,,,,,,,,,06,008,2022-09-22_11h58.50.483,test2,2022.2.4,59.937249176505745,
0,0,0,0,147,0,147,0,1487.51406204,1487.51406204,1487.51406204,1487.51406204,1487.51406204,1487.51406204,1487.51406204,-1,-1,rojo,1,['N_B'],1488.999042786,1488.999042786,1488.999042786,1488.999042786,1491.035097752,1491.035097752,1491.035097752,1491.035097752,1491.035097752,1491.035097752,1491.035097752,1491.035097752,1493.0693819800001,1493.0693819800001,1493.0693819800001,1493.0693819800001,,,,,,,,,,,,,,,,,,,,,,,,,,,,,,06,008,2022-09-22_11h58.50.483,test2,2022.2.4,59.937249176505745,
0,0,0,0,148,0,148,0,1493.0693819800001,1493.0693819800001,1493.0693819800001,1493.0693819800001,1493.0693819800001,1493.0693819800001,1493.0693819800001,1,1,azul,1,['N_B'],1495.189633401,1495.189633401,1495.189633401,1495.189633401,1497.20687396,1497.20687396,1497.20687396,1497.20687396,1497.20687396,1497.20687396,1497.20687396,1497.20687396,1499.243595462,1499.243595462,1499.243595462,1499.243595462,,,,,,,,,,,,,,,,,,,,,,,,,,,,,,06,008,2022-09-22_11h58.50.483,test2,2022.2.4,59.937249176505745,
0,0,0,0,149,0,149,0,1499.243595462,1499.243595462,1499.243595462,1499.243595462,1499.243595462,1499.243595462,1499.243595462,1,1,azul,1,['N_B'],1501.17946211,1501.17946211,1501.17946211,1501.17946211,1503.214435653,1503.214435653,1503.214435653,1503.214435653,1503.214435653,1503.214435653,1503.214435653,1503.214435653,1505.249921907,1505.249921907,1505.249921907,1505.249921907,,,,,,,,,,,,,,,,,,,,,,,,,,,,,,06,008,2022-09-22_11h58.50.483,test2,2022.2.4,59.937249176505745,
0,0,0,0,150,0,150,0,1505.249921907,1505.249921907,1505.249921907,1505.249921907,1505.249921907,1505.249921907,1505.249921907,-1,-1,rojo,1,['N_B'],1506.568141491,1506.568141491,1506.568141491,1506.568141491,1508.604402672,1508.604402672,1508.604402672,1508.604402672,1508.604402672,1508.604402672,1508.604402672,1508.604402672,1510.639654163,1510.639654163,1510.639654163,1510.639654163,,,,,,,,,,,,,,,,,,,,,,,,,,,,,,06,008,2022-09-22_11h58.50.483,test2,2022.2.4,59.937249176505745,
0,0,0,0,151,0,151,0,1510.639654163,1510.639654163,1510.639654163,1510.639654163,1510.639654163,1510.639654163,1510.639654163,1,-1,azul,1,['N_B'],1512.407698195,1512.407698195,1512.407698195,1512.407698195,1514.443386316,1514.443386316,1514.443386316,1514.443386316,1514.443386316,1514.443386316,1514.443386316,1514.443386316,1516.479671088,1516.479671088,1516.479671088,1516.479671088,,,,,,,,,,,,,,,,,,,,,,,,,,,,,,06,008,2022-09-22_11h58.50.483,test2,2022.2.4,59.937249176505745,
0,0,0,0,152,0,152,0,1516.479671088,1516.479671088,1516.479671088,1516.479671088,1516.479671088,1516.479671088,1516.479671088,1,-1,azul,1,['N_B'],1517.964706418,1517.964706418,1517.964706418,1517.964706418,1520.000173392,1520.000173392,1520.000173392,1520.000173392,1520.000173392,1520.000173392,1520.000173392,1520.000173392,1522.035306053,1522.035306053,1522.035306053,1522.035306053,,,,,,,,,,,,,,,,,,,,,,,,,,,,,,06,008,2022-09-22_11h58.50.483,test2,2022.2.4,59.937249176505745,
0,0,0,0,153,0,153,0,1522.035306053,1522.035306053,1522.035306053,1522.035306053,1522.035306053,1522.035306053,1522.035306053,1,-1,azul,1,['N_B'],1523.787535772,1523.787535772,1523.787535772,1523.787535772,1525.822957241,1525.822957241,1525.822957241,1525.822957241,1525.822957241,1525.822957241,1525.822957241,1525.822957241,1527.858725198,1527.858725198,1527.858725198,1527.858725198,,,,,,,,,,,,,,,,,,,,,,,,,,,,,,06,008,2022-09-22_11h58.50.483,test2,2022.2.4,59.937249176505745,
0,0,0,0,154,0,154,0,1527.858725198,1527.858725198,1527.858725198,1527.858725198,1527.858725198,1527.858725198,1527.858725198,1,-1,azul,1,['N_B'],1529.810709563,1529.810709563,1529.810709563,1529.810709563,1531.845338114,1531.845338114,1531.845338114,1531.845338114,1531.845338114,1531.845338114,1531.845338114,1531.845338114,1533.882013937,1533.882013937,1533.882013937,1533.882013937,,,,,,,,,,,,,,,,,,,,,,,,,,,,,,06,008,2022-09-22_11h58.50.483,test2,2022.2.4,59.937249176505745,
0,0,0,0,155,0,155,0,1533.882013937,1533.882013937,1533.882013937,1533.882013937,1533.882013937,1533.882013937,1533.882013937,-1,1,rojo,1,['N_B'],1535.7677586710001,1535.7677586710001,1535.7677586710001,1535.7677586710001,1537.802609028,1537.802609028,1537.802609028,1537.802609028,1537.802609028,1537.802609028,1537.802609028,1537.802609028,1539.83847136,1539.83847136,1539.83847136,1539.83847136,,,,,,,,,,,,,,,,,,,,,,,,,,,,,,06,008,2022-09-22_11h58.50.483,test2,2022.2.4,59.937249176505745,
0,0,0,0,156,0,156,0,1539.83847136,1539.83847136,1539.83847136,1539.83847136,1539.83847136,1539.83847136,1539.83847136,-1,-1,rojo,1,['N_B'],1541.256388773,1541.256388773,1541.256388773,1541.256388773,1543.2922940590001,1543.2922940590001,1543.2922940590001,1543.2922940590001,1543.2922940590001,1543.2922940590001,1543.2922940590001,1543.2922940590001,1545.327933209,1545.327933209,1545.327933209,1545.327933209,,,,,,,,,,,,,,,,,,,,,,,,,,,,,,06,008,2022-09-22_11h58.50.483,test2,2022.2.4,59.937249176505745,
0,0,0,0,157,0,157,0,1545.327933209,1545.327933209,1545.327933209,1545.327933209,1545.327933209,1545.327933209,1545.327933209,1,-1,azul,1,['N_B'],1547.2470587320001,1547.2470587320001,1547.2470587320001,1547.2470587320001,1549.281827645,1549.281827645,1549.281827645,1549.281827645,1549.281827645,1549.281827645,1549.281827645,1549.281827645,1551.317172407,1551.317172407,1551.317172407,1551.317172407,,,,,,,,,,,,,,,,,,,,,,,,,,,,,,06,008,2022-09-22_11h58.50.483,test2,2022.2.4,59.937249176505745,
0,0,0,0,158,0,158,0,1551.317172407,1551.317172407,1551.317172407,1551.317172407,1551.317172407,1551.317172407,1551.317172407,1,1,azul,1,['N_B'],1553.303732671,1553.303732671,1553.303732671,1553.303732671,1555.322047581,1555.322047581,1555.322047581,1555.322047581,1555.322047581,1555.322047581,1555.322047581,1555.322047581,1557.358130674,1557.358130674,1557.358130674,1557.358130674,,,,,,,,,,,,,,,,,,,,,,,,,,,,,,06,008,2022-09-22_11h58.50.483,test2,2022.2.4,59.937249176505745,
0,0,0,0,159,0,159,0,1557.358130674,1557.358130674,1557.358130674,1557.358130674,1557.358130674,1557.358130674,1557.358130674,1,1,azul,1,['N_B'],1558.825800363,1558.825800363,1558.825800363,1558.825800363,1560.844252983,1560.844252983,1560.844252983,1560.844252983,1560.844252983,1560.844252983,1560.844252983,1560.844252983,1562.880118596,1562.880118596,1562.880118596,1562.880118596,,,,,,,,,,,,,,,,,,,,,,,,,,,,,,06,008,2022-09-22_11h58.50.483,test2,2022.2.4,59.937249176505745,
0,0,0,0,160,0,160,0,1562.880118596,1562.880118596,1562.880118596,1562.880118596,1562.880118596,1562.880118596,1562.880118596,1,1,azul,1,['N_B'],1564.365201729,1564.365201729,1564.365201729,1564.365201729,1566.401317951,1566.401317951,1566.401317951,1566.401317951,1566.401317951,1566.401317951,1566.401317951,1566.401317951,1568.43617186,1568.43617186,1568.43617186,1568.43617186,,,,,,,,,,,,,,,,,,,,,,,,,,,,,,06,008,2022-09-22_11h58.50.483,test2,2022.2.4,59.937249176505745,
0,0,0,0,161,0,161,0,1568.43617186,1568.43617186,1568.43617186,1568.43617186,1568.43617186,1568.43617186,1568.43617186,-1,-1,rojo,1,['N_B'],1569.922089915,1569.922089915,1569.922089915,1569.922089915,1571.957037197,1571.957037197,1571.957037197,1571.957037197,1571.957037197,1571.957037197,1571.957037197,1571.957037197,1573.9922828630001,1573.9922828630001,1573.9922828630001,1573.9922828630001,,,,,,,,,,,,,,,,,,,,,,,,,,,,,,06,008,2022-09-22_11h58.50.483,test2,2022.2.4,59.937249176505745,
0,0,0,0,162,0,162,0,1573.9922828630001,1573.9922828630001,1573.9922828630001,1573.9922828630001,1573.9922828630001,1573.9922828630001,1573.9922828630001,1,1,azul,1,['N_B'],1575.7442255810001,1575.7442255810001,1575.7442255810001,1575.7442255810001,1577.76298901,1577.76298901,1577.76298901,1577.76298901,1577.76298901,1577.76298901,1577.76298901,1577.76298901,1579.798908711,1579.798908711,1579.798908711,1579.798908711,,,,,,,,,,,,,,,,,,,,,,,,,,,,,,06,008,2022-09-22_11h58.50.483,test2,2022.2.4,59.937249176505745,
0,0,0,0,163,0,163,0,1579.798908711,1579.798908711,1579.798908711,1579.798908711,1579.798908711,1579.798908711,1579.798908711,1,1,azul,1,['N_B'],1581.450868394,1581.450868394,1581.450868394,1581.450868394,1583.469798543,1583.469798543,1583.469798543,1583.469798543,1583.469798543,1583.469798543,1583.469798543,1583.469798543,1585.50559049,1585.50559049,1585.50559049,1585.50559049,,,,,,,,,,,,,,,,,,,,,,,,,,,,,,06,008,2022-09-22_11h58.50.483,test2,2022.2.4,59.937249176505745,
0,0,0,0,164,0,164,0,1585.50559049,1585.50559049,1585.50559049,1585.50559049,1585.50559049,1585.50559049,1585.50559049,1,1,azul,1,['N_B'],1587.240599813,1587.240599813,1587.240599813,1587.240599813,1589.276472882,1589.276472882,1589.276472882,1589.276472882,1589.276472882,1589.276472882,1589.276472882,1589.276472882,1591.312007773,1591.312007773,1591.312007773,1591.312007773,,,,,,,,,,,,,,,,,,,,,,,,,,,,,,06,008,2022-09-22_11h58.50.483,test2,2022.2.4,59.937249176505745,
0,0,0,0,165,0,165,0,1591.312007773,1591.312007773,1591.312007773,1591.312007773,1591.312007773,1591.312007773,1591.312007773,1,-1,azul,1,['N_B'],1592.963017257,1592.963017257,1592.963017257,1592.963017257,1594.997969669,1594.997969669,1594.997969669,1594.997969669,1594.997969669,1594.997969669,1594.997969669,1594.997969669,1597.034881455,1597.034881455,1597.034881455,1597.034881455,,,,,,,,,,,,,,,,,,,,,,,,,,,,,,06,008,2022-09-22_11h58.50.483,test2,2022.2.4,59.937249176505745,
0,0,0,0,166,0,166,0,1597.034881455,1597.034881455,1597.034881455,1597.034881455,1597.034881455,1597.034881455,1597.034881455,-1,-1,rojo,1,['N_B'],1598.803161161,1598.803161161,1598.803161161,1598.803161161,1600.838945838,1600.838945838,1600.838945838,1600.838945838,1600.838945838,1600.838945838,1600.838945838,1600.838945838,1602.874872778,1602.874872778,1602.874872778,1602.874872778,,,,,,,,,,,,,,,,,,,,,,,,,,,,,,06,008,2022-09-22_11h58.50.483,test2,2022.2.4,59.937249176505745,
0,0,0,0,167,0,167,0,1602.874872778,1602.874872778,1602.874872778,1602.874872778,1602.874872778,1602.874872778,1602.874872778,1,-1,azul,1,['N_B'],1604.526558846,1604.526558846,1604.526558846,1604.526558846,1606.5614949600001,1606.5614949600001,1606.5614949600001,1606.5614949600001,1606.5614949600001,1606.5614949600001,1606.5614949600001,1606.5614949600001,1608.597948721,1608.597948721,1608.597948721,1608.597948721,,,,,,,,,,,,,,,,,,,,,,,,,,,,,,06,008,2022-09-22_11h58.50.483,test2,2022.2.4,59.937249176505745,
0,0,0,0,168,0,168,0,1608.597948721,1608.597948721,1608.597948721,1608.597948721,1608.597948721,1608.597948721,1608.597948721,1,1,azul,1,['N_B'],1610.6503490950001,1610.6503490950001,1610.6503490950001,1610.6503490950001,1612.669277604,1612.669277604,1612.669277604,1612.669277604,1612.669277604,1612.669277604,1612.669277604,1612.669277604,1614.704089934,1614.704089934,1614.704089934,1614.704089934,,,,,,,,,,,,,,,,,,,,,,,,,,,,,,06,008,2022-09-22_11h58.50.483,test2,2022.2.4,59.937249176505745,
0,0,0,0,169,0,169,0,1614.704089934,1614.704089934,1614.704089934,1614.704089934,1614.704089934,1614.704089934,1614.704089934,1,1,azul,1,['N_B'],1616.422690268,1616.422690268,1616.422690268,1616.422690268,1618.458574126,1618.458574126,1618.458574126,1618.458574126,1618.458574126,1618.458574126,1618.458574126,1618.458574126,1620.493729941,1620.493729941,1620.493729941,1620.493729941,,,,,,,,,,,,,,,,,,,,,,,,,,,,,,06,008,2022-09-22_11h58.50.483,test2,2022.2.4,59.937249176505745,
0,0,0,0,170,0,170,0,1620.493729941,1620.493729941,1620.493729941,1620.493729941,1620.493729941,1620.493729941,1620.493729941,1,-1,azul,1,['N_B'],1622.145955933,1622.145955933,1622.145955933,1622.145955933,1624.181833911,1624.181833911,1624.181833911,1624.181833911,1624.181833911,1624.181833911,1624.181833911,1624.181833911,1626.2162899530001,1626.2162899530001,1626.2162899530001,1626.2162899530001,,,,,,,,,,,,,,,,,,,,,,,,,,,,,,06,008,2022-09-22_11h58.50.483,test2,2022.2.4,59.937249176505745,
0,0,0,0,171,0,171,0,1626.2162899530001,1626.2162899530001,1626.2162899530001,1626.2162899530001,1626.2162899530001,1626.2162899530001,1626.2162899530001,-1,-1,rojo,1,['N_B'],1627.835821087,1627.835821087,1627.835821087,1627.835821087,1629.870961934,1629.870961934,1629.870961934,1629.870961934,1629.870961934,1629.870961934,1629.870961934,1629.870961934,1631.906028886,1631.906028886,1631.906028886,1631.906028886,,,,,,,,,,,,,,,,,,,,,,,,,,,,,,06,008,2022-09-22_11h58.50.483,test2,2022.2.4,59.937249176505745,
0,0,0,0,172,0,172,0,1631.906028886,1631.906028886,1631.906028886,1631.906028886,1631.906028886,1631.906028886,1631.906028886,-1,-1,rojo,1,['N_B'],1633.424669599,1633.424669599,1633.424669599,1633.424669599,1635.460305519,1635.460305519,1635.460305519,1635.460305519,1635.460305519,1635.460305519,1635.460305519,1635.460305519,1637.495938058,1637.495938058,1637.495938058,1637.495938058,,,,,,,,,,,,,,,,,,,,,,,,,,,,,,06,008,2022-09-22_11h58.50.483,test2,2022.2.4,59.937249176505745,
0,0,0,0,173,0,173,0,1637.495938058,1637.495938058,1637.495938058,1637.495938058,1637.495938058,1637.495938058,1637.495938058,1,1,azul,1,['N_B'],1639.248325298,1639.248325298,1639.248325298,1639.248325298,1641.2660120770001,1641.2660120770001,1641.2660120770001,1641.2660120770001,1641.2660120770001,1641.2660120770001,1641.2660120770001,1641.2660120770001,1643.303141844,1643.303141844,1643.303141844,1643.303141844,,,,,,,,,,,,,,,,,,,,,,,,,,,,,,06,008,2022-09-22_11h58.50.483,test2,2022.2.4,59.937249176505745,
0,0,0,0,174,0,174,0,1643.303141844,1643.303141844,1643.303141844,1643.303141844,1643.303141844,1643.303141844,1643.303141844,1,1,azul,1,['N_B'],1645.288079265,1645.288079265,1645.288079265,1645.288079265,1647.323280788,1647.323280788,1647.323280788,1647.323280788,1647.323280788,1647.323280788,1647.323280788,1647.323280788,1649.35934089,1649.35934089,1649.35934089,1649.35934089,,,,,,,,,,,,,,,,,,,,,,,,,,,,,,06,008,2022-09-22_11h58.50.483,test2,2022.2.4,59.937249176505745,
0,0,0,0,175,0,175,0,1649.35934089,1649.35934089,1649.35934089,1649.35934089,1649.35934089,1649.35934089,1649.35934089,-1,-1,rojo,1,['N_B'],1651.04435205,1651.04435205,1651.04435205,1651.04435205,1653.080089682,1653.080089682,1653.080089682,1653.080089682,1653.080089682,1653.080089682,1653.080089682,1653.080089682,1655.1155565210001,1655.1155565210001,1655.1155565210001,1655.1155565210001,,,,,,,,,,,,,,,,,,,,,,,,,,,,,,06,008,2022-09-22_11h58.50.483,test2,2022.2.4,59.937249176505745,
0,0,0,0,176,0,176,0,1655.1155565210001,1655.1155565210001,1655.1155565210001,1655.1155565210001,1655.1155565210001,1655.1155565210001,1655.1155565210001,-1,-1,rojo,1,['N_B'],1656.767028532,1656.767028532,1656.767028532,1656.767028532,1658.802606517,1658.802606517,1658.802606517,1658.802606517,1658.802606517,1658.802606517,1658.802606517,1658.802606517,1660.838967277,1660.838967277,1660.838967277,1660.838967277,,,,,,,,,,,,,,,,,,,,,,,,,,,,,,06,008,2022-09-22_11h58.50.483,test2,2022.2.4,59.937249176505745,
0,0,0,0,177,0,177,0,1660.838967277,1660.838967277,1660.838967277,1660.838967277,1660.838967277,1660.838967277,1660.838967277,1,1,azul,1,['N_B'],1663.107834487,1663.107834487,1663.107834487,1663.107834487,1665.1261935320001,1665.1261935320001,1665.1261935320001,1665.1261935320001,1665.1261935320001,1665.1261935320001,1665.1261935320001,1665.1261935320001,1667.1616633180001,1667.1616633180001,1667.1616633180001,1667.1616633180001,,,,,,,,,,,,,,,,,,,,,,,,,,,,,,06,008,2022-09-22_11h58.50.483,test2,2022.2.4,59.937249176505745,
0,0,0,0,178,0,178,0,1667.1616633180001,1667.1616633180001,1667.1616633180001,1667.1616633180001,1667.1616633180001,1667.1616633180001,1667.1616633180001,1,1,azul,1,['N_B'],1668.880499419,1668.880499419,1668.880499419,1668.880499419,1670.9168336100001,1670.9168336100001,1670.9168336100001,1670.9168336100001,1670.9168336100001,1670.9168336100001,1670.9168336100001,1670.9168336100001,1672.952133072,1672.952133072,1672.952133072,1672.952133072,,,,,,,,,,,,,,,,,,,,,,,,,,,,,,06,008,2022-09-22_11h58.50.483,test2,2022.2.4,59.937249176505745,
0,0,0,0,179,0,179,0,1672.952133072,1672.952133072,1672.952133072,1672.952133072,1672.952133072,1672.952133072,1672.952133072,-1,-1,rojo,1,['N_B'],1674.803825259,1674.803825259,1674.803825259,1674.803825259,1676.840048476,1676.840048476,1676.840048476,1676.840048476,1676.840048476,1676.840048476,1676.840048476,1676.840048476,1678.874585207,1678.874585207,1678.874585207,1678.874585207,,,,,,,,,,,,,,,,,,,,,,,,,,,,,,06,008,2022-09-22_11h58.50.483,test2,2022.2.4,59.937249176505745,
0,0,0,0,180,0,180,0,1678.874585207,1678.874585207,1678.874585207,1678.874585207,1678.874585207,1678.874585207,1678.874585207,1,1,azul,1,['N_B'],1680.4600536980001,1680.4600536980001,1680.4600536980001,1680.4600536980001,1682.479437043,1682.479437043,1682.479437043,1682.479437043,1682.479437043,1682.479437043,1682.479437043,1682.479437043,1684.514863381,1684.514863381,1684.514863381,1684.514863381,,,,,,,,,,,,,,,,,,,,,,,,,,,,,,06,008,2022-09-22_11h58.50.483,test2,2022.2.4,59.937249176505745,
0,0,0,0,181,0,181,0,1684.514863381,1684.514863381,1684.514863381,1684.514863381,1684.514863381,1684.514863381,1684.514863381,1,1,azul,1,['N_B'],1686.250269404,1686.250269404,1686.250269404,1686.250269404,1688.28579219,1688.28579219,1688.28579219,1688.28579219,1688.28579219,1688.28579219,1688.28579219,1688.28579219,1690.321235779,1690.321235779,1690.321235779,1690.321235779,,,,,,,,,,,,,,,,,,,,,,,,,,,,,,06,008,2022-09-22_11h58.50.483,test2,2022.2.4,59.937249176505745,
0,0,0,0,182,0,182,0,1690.321235779,1690.321235779,1690.321235779,1690.321235779,1690.321235779,1690.321235779,1690.321235779,-1,-1,rojo,1,['N_B'],1693.007434472,1693.007434472,1693.007434472,1693.007434472,1695.042950837,1695.042950837,1695.042950837,1695.042950837,1695.042950837,1695.042950837,1695.042950837,1695.042950837,1697.077403314,1697.077403314,1697.077403314,1697.077403314,,,,,,,,,,,,,,,,,,,,,,,,,,,,,,06,008,2022-09-22_11h58.50.483,test2,2022.2.4,59.937249176505745,
0,0,0,0,183,0,183,0,1697.077403314,1697.077403314,1697.077403314,1697.077403314,1697.077403314,1697.077403314,1697.077403314,-1,-1,rojo,1,['N_B'],1699.998032215,1699.998032215,1699.998032215,1699.998032215,1702.034060588,1702.034060588,1702.034060588,1702.034060588,1702.034060588,1702.034060588,1702.034060588,1702.034060588,1704.069864543,1704.069864543,1704.069864543,1704.069864543,,,,,,,,,,,,,,,,,,,,,,,,,,,,,,06,008,2022-09-22_11h58.50.483,test2,2022.2.4,59.937249176505745,
0,0,0,0,184,0,184,0,1704.069864543,1704.069864543,1704.069864543,1704.069864543,1704.069864543,1704.069864543,1704.069864543,1,1,azul,1,['N_B'],1706.139004562,1706.139004562,1706.139004562,1706.139004562,1708.174386929,1708.174386929,1708.174386929,1708.174386929,1708.174386929,1708.174386929,1708.174386929,1708.174386929,1710.2093222270003,1710.2093222270003,1710.2093222270003,1710.2093222270003,,,,,,,,,,,,,,,,,,,,,,,,,,,,,,06,008,2022-09-22_11h58.50.483,test2,2022.2.4,59.937249176505745,
0,0,0,0,185,0,185,0,1710.2093222270003,1710.2093222270003,1710.2093222270003,1710.2093222270003,1710.2093222270003,1710.2093222270003,1710.2093222270003,1,-1,azul,1,['N_B'],1720.73795184,1720.73795184,1720.73795184,1720.73795184,1722.773674848,1722.773674848,1722.773674848,1722.773674848,1722.773674848,1722.773674848,1722.773674848,1722.773674848,1724.809340296,1724.809340296,1724.809340296,1724.809340296,,,,,,,,,,,,,,,,,,,,,,,,,,,,,,06,008,2022-09-22_11h58.50.483,test2,2022.2.4,59.937249176505745,
0,0,0,0,186,0,186,0,1724.809340296,1724.809340296,1724.809340296,1724.809340296,1724.809340296,1724.809340296,1724.809340296,-1,-1,rojo,1,['N_B'],1727.828960902,1727.828960902,1727.828960902,1727.828960902,1729.864830183,1729.864830183,1729.864830183,1729.864830183,1729.864830183,1729.864830183,1729.864830183,1729.864830183,1731.9004045039999,1731.9004045039999,1731.9004045039999,1731.9004045039999,,,,,,,,,,,,,,,,,,,,,,,,,,,,,,06,008,2022-09-22_11h58.50.483,test2,2022.2.4,59.937249176505745,
0,0,0,0,187,0,187,0,1731.9004045039999,1731.9004045039999,1731.9004045039999,1731.9004045039999,1731.9004045039999,1731.9004045039999,1731.9004045039999,1,1,azul,1,['N_B'],1733.886166551,1733.886166551,1733.886166551,1733.886166551,1735.9046189560001,1735.9046189560001,1735.9046189560001,1735.9046189560001,1735.9046189560001,1735.9046189560001,1735.9046189560001,1735.9046189560001,1737.9395956179999,1737.9395956179999,1737.9395956179999,1737.9395956179999,,,,,,,,,,,,,,,,,,,,,,,,,,,,,,06,008,2022-09-22_11h58.50.483,test2,2022.2.4,59.937249176505745,
0,0,0,0,188,0,188,0,1737.9395956179999,1737.9395956179999,1737.9395956179999,1737.9395956179999,1737.9395956179999,1737.9395956179999,1737.9395956179999,1,1,azul,1,['N_B'],1739.926013815,1739.926013815,1739.926013815,1739.926013815,1741.9448519750001,1741.9448519750001,1741.9448519750001,1741.9448519750001,1741.9448519750001,1741.9448519750001,1741.9448519750001,1741.9448519750001,1743.9804643549999,1743.9804643549999,1743.9804643549999,1743.9804643549999,,,,,,,,,,,,,,,,,,,,,,,,,,,,,,06,008,2022-09-22_11h58.50.483,test2,2022.2.4,59.937249176505745,
0,0,0,0,189,0,189,0,1743.9804643549999,1743.9804643549999,1743.9804643549999,1743.9804643549999,1743.9804643549999,1743.9804643549999,1743.9804643549999,1,1,azul,1,['N_B'],1745.53207275,1745.53207275,1745.53207275,1745.53207275,1747.5504988260002,1747.5504988260002,1747.5504988260002,1747.5504988260002,1747.5504988260002,1747.5504988260002,1747.5504988260002,1747.5504988260002,1749.5867747230002,1749.5867747230002,1749.5867747230002,1749.5867747230002,,,,,,,,,,,,,,,,,,,,,,,,,,,,,,06,008,2022-09-22_11h58.50.483,test2,2022.2.4,59.937249176505745,
0,0,0,0,190,0,190,0,1749.5867747230002,1749.5867747230002,1749.5867747230002,1749.5867747230002,1749.5867747230002,1749.5867747230002,1749.5867747230002,1,1,azul,1,['N_B'],1751.5387212930002,1751.5387212930002,1751.5387212930002,1751.5387212930002,1753.557625878,1753.557625878,1753.557625878,1753.557625878,1753.557625878,1753.557625878,1753.557625878,1753.557625878,1755.5930786320002,1755.5930786320002,1755.5930786320002,1755.5930786320002,,,,,,,,,,,,,,,,,,,,,,,,,,,,,,06,008,2022-09-22_11h58.50.483,test2,2022.2.4,59.937249176505745,
0,0,0,0,191,0,191,0,1755.5930786320002,1755.5930786320002,1755.5930786320002,1755.5930786320002,1755.5930786320002,1755.5930786320002,1755.5930786320002,1,1,azul,1,['N_B'],1757.0776378880003,1757.0776378880003,1757.0776378880003,1757.0776378880003,1759.1142848370002,1759.1142848370002,1759.1142848370002,1759.1142848370002,1759.1142848370002,1759.1142848370002,1759.1142848370002,1759.1142848370002,1761.149579833,1761.149579833,1761.149579833,1761.149579833,,,,,,,,,,,,,,,,,,,,,,,,,,,,,,06,008,2022-09-22_11h58.50.483,test2,2022.2.4,59.937249176505745,
0,0,0,0,192,0,192,0,1761.149579833,1761.149579833,1761.149579833,1761.149579833,1761.149579833,1761.149579833,1761.149579833,-1,-1,rojo,1,['N_B'],1763.5018539710002,1763.5018539710002,1763.5018539710002,1763.5018539710002,1765.5374801270002,1765.5374801270002,1765.5374801270002,1765.5374801270002,1765.5374801270002,1765.5374801270002,1765.5374801270002,1765.5374801270002,1767.572687347,1767.572687347,1767.572687347,1767.572687347,,,,,,,,,,,,,,,,,,,,,,,,,,,,,,06,008,2022-09-22_11h58.50.483,test2,2022.2.4,59.937249176505745,
0,0,0,0,193,0,193,0,1767.572687347,1767.572687347,1767.572687347,1767.572687347,1767.572687347,1767.572687347,1767.572687347,1,1,azul,1,['N_B'],1769.9088593150002,1769.9088593150002,1769.9088593150002,1769.9088593150002,1771.944484454,1771.944484454,1771.944484454,1771.944484454,1771.944484454,1771.944484454,1771.944484454,1771.944484454,1773.980422425,1773.980422425,1773.980422425,1773.980422425,,,,,,,,,,,,,,,,,,,,,,,,,,,,,,06,008,2022-09-22_11h58.50.483,test2,2022.2.4,59.937249176505745,
0,0,0,0,194,0,194,0,1773.980422425,1773.980422425,1773.980422425,1773.980422425,1773.980422425,1773.980422425,1773.980422425,-1,-1,rojo,1,['N_B'],1775.4644770830002,1775.4644770830002,1775.4644770830002,1775.4644770830002,1777.500520963,1777.500520963,1777.500520963,1777.500520963,1777.500520963,1777.500520963,1777.500520963,1777.500520963,1779.53580653,1779.53580653,1779.53580653,1779.53580653,,,,,,,,,,,,,,,,,,,,,,,,,,,,,,06,008,2022-09-22_11h58.50.483,test2,2022.2.4,59.937249176505745,
0,0,0,0,195,0,195,0,1779.53580653,1779.53580653,1779.53580653,1779.53580653,1779.53580653,1779.53580653,1779.53580653,1,1,azul,1,['N_B'],1781.1707829489999,1781.1707829489999,1781.1707829489999,1781.1707829489999,1783.1888397179998,1783.1888397179998,1783.1888397179998,1783.1888397179998,1783.1888397179998,1783.1888397179998,1783.1888397179998,1783.1888397179998,1785.226011001,1785.226011001,1785.226011001,1785.226011001,,,,,,,,,,,,,,,,,,,,,,,,,,,,,,06,008,2022-09-22_11h58.50.483,test2,2022.2.4,59.937249176505745,
0,0,0,0,196,0,196,0,1785.226011001,1785.226011001,1785.226011001,1785.226011001,1785.226011001,1785.226011001,1785.226011001,1,1,azul,1,['N_B'],1786.777519774,1786.777519774,1786.777519774,1786.777519774,1788.795741097,1788.795741097,1788.795741097,1788.795741097,1788.795741097,1788.795741097,1788.795741097,1788.795741097,1790.832498892,1790.832498892,1790.832498892,1790.832498892,,,,,,,,,,,,,,,,,,,,,,,,,,,,,,06,008,2022-09-22_11h58.50.483,test2,2022.2.4,59.937249176505745,
0,0,0,0,197,0,197,0,1790.832498892,1790.832498892,1790.832498892,1790.832498892,1790.832498892,1790.832498892,1790.832498892,1,1,azul,1,['N_B'],1792.516628,1792.516628,1792.516628,1792.516628,1794.5364495300003,1794.5364495300003,1794.5364495300003,1794.5364495300003,1794.5364495300003,1794.5364495300003,1794.5364495300003,1794.5364495300003,1796.572130204,1796.572130204,1796.572130204,1796.572130204,,,,,,,,,,,,,,,,,,,,,,,,,,,,,,06,008,2022-09-22_11h58.50.483,test2,2022.2.4,59.937249176505745,
0,0,0,0,198,0,198,0,1796.572130204,1796.572130204,1796.572130204,1796.572130204,1796.572130204,1796.572130204,1796.572130204,1,1,azul,1,['N_B'],1798.723741427,1798.723741427,1798.723741427,1798.723741427,1800.75954119,1800.75954119,1800.75954119,1800.75954119,1800.75954119,1800.75954119,1800.75954119,1800.75954119,1802.795894132,1802.795894132,1802.795894132,1802.795894132,,,,,,,,,,,,,,,,,,,,,,,,,,,,,,06,008,2022-09-22_11h58.50.483,test2,2022.2.4,59.937249176505745,
