trials_2.thisRepN,trials_2.thisTrialN,trials_2.thisN,trials_2.thisIndex,trials.thisRepN,trials.thisTrialN,trials.thisN,trials.thisIndex,Instrucción2.started,N_A_4.started,N_B_4.started,Exitos_3.started,Dias_3.started,Stimuli_1.started,Stimuli_2.started,Transitions,Rewards,Mode,Stay,Neighbour,Stimuli_3.started,Modo.started,Dias2.started,Exitos2.started,Stimuli_3.stopped,Modo.stopped,Dias2.stopped,Exitos2.stopped,Reward.started,Stimuli_reward.started,Exitos3.started,Dias3.started,Reward.stopped,Stimuli_reward.stopped,Exitos3.stopped,Dias3.stopped,Cue_text.started,Stimuli_4.started,Exitos4.started,Dias4.started,Stimuli_3_3.started,Stimuli_2_3.started,Instrucción.started,N_A.started,N_B.started,N_C.started,Exitos_2.started,Dias_2.started,Stimuli_1_3.started,Stimuli_3_2.started,Stimuli_2_2.started,Pregunta.started,N_A_2.started,N_B_2.started,N_C_2.started,Exitos5.started,Dias5.started,Stimuli_1_2.started,Resp_final_1,Modo2.started,Modo1.started,Pregunta_4.started,Modo3.started,Exitos7.started,Dias6.started,Resp_final_2,Modo1_2.started,Pregunta_3.started,Modo2_2.started,Exitos8.started,Dias7.started,Resp_final_3,Mensaje_Final2.started,Exitos6.started,participant,session,date,expName,psychopyVersion,frameRate,
0,0,0,0,0,0,0,0,345.40900647800026,345.40900647800026,345.40900647800026,345.40900647800026,345.40900647800026,345.40900647800026,345.40900647800026,0,0,0,0,['N_A'],388.9731732649998,388.9731732649998,388.9731732649998,388.9731732649998,391.00907691999964,391.00907691999964,391.00907691999964,391.00907691999964,391.00907691999964,391.00907691999964,391.00907691999964,391.00907691999964,393.04447175099995,393.04447175099995,393.04447175099995,393.04447175099995,,,,,,,,,,,,,,,,,,,,,,,,,,,,,,,,,,,,,,,08,006,2022-09-23_11h44.52.381,test2,2022.2.4,59.99366310929652,
0,0,0,0,1,0,1,0,393.04447175099995,393.04447175099995,393.04447175099995,393.04447175099995,393.04447175099995,393.04447175099995,393.04447175099995,-1,-1,azul,1,['N_A'],396.21327014100007,396.21327014100007,396.21327014100007,396.21327014100007,398.24959912899976,398.24959912899976,398.24959912899976,398.24959912899976,398.24959912899976,398.24959912899976,398.24959912899976,398.24959912899976,400.28546550600004,400.28546550600004,400.28546550600004,400.28546550600004,,,,,,,,,,,,,,,,,,,,,,,,,,,,,,,,,,,,,,,08,006,2022-09-23_11h44.52.381,test2,2022.2.4,59.99366310929652,
0,0,0,0,2,0,2,0,400.28546550600004,400.28546550600004,400.28546550600004,400.28546550600004,400.28546550600004,400.28546550600004,400.28546550600004,1,-1,rojo,1,['N_A'],405.6578639299996,405.6578639299996,405.6578639299996,405.6578639299996,407.6936139520003,407.6936139520003,407.6936139520003,407.6936139520003,407.6936139520003,407.6936139520003,407.6936139520003,407.6936139520003,409.72887713900036,409.72887713900036,409.72887713900036,409.72887713900036,,,,,,,,,,,,,,,,,,,,,,,,,,,,,,,,,,,,,,,08,006,2022-09-23_11h44.52.381,test2,2022.2.4,59.99366310929652,
0,0,0,0,3,0,3,0,409.72887713900036,409.72887713900036,409.72887713900036,409.72887713900036,409.72887713900036,409.72887713900036,409.72887713900036,-1,-1,azul,0,['N_B'],411.31389205899995,411.31389205899995,411.31389205899995,411.31389205899995,413.3500910009998,413.3500910009998,413.3500910009998,413.3500910009998,413.3500910009998,413.3500910009998,413.3500910009998,413.3500910009998,415.3679435840004,415.3679435840004,415.3679435840004,415.3679435840004,,,,,,,,,,,,,,,,,,,,,,,,,,,,,,,,,,,,,,,08,006,2022-09-23_11h44.52.381,test2,2022.2.4,59.99366310929652,
0,0,0,0,4,0,4,0,415.3679435840004,415.3679435840004,415.3679435840004,415.3679435840004,415.3679435840004,415.3679435840004,415.3679435840004,1,1,azul,1,['N_B'],416.98610574099985,416.98610574099985,416.98610574099985,416.98610574099985,419.0055403189999,419.0055403189999,419.0055403189999,419.0055403189999,419.0055403189999,419.0055403189999,419.0055403189999,419.0055403189999,421.02412062799976,421.02412062799976,421.02412062799976,421.02412062799976,,,,,,,,,,,,,,,,,,,,,,,,,,,,,,,,,,,,,,,08,006,2022-09-23_11h44.52.381,test2,2022.2.4,59.99366310929652,
0,0,0,0,5,0,5,0,421.02412062799976,421.02412062799976,421.02412062799976,421.02412062799976,421.02412062799976,421.02412062799976,421.02412062799976,1,1,azul,1,['N_B'],422.40857487300036,422.40857487300036,422.40857487300036,422.40857487300036,424.4284501310003,424.4284501310003,424.4284501310003,424.4284501310003,424.4284501310003,424.4284501310003,424.4284501310003,424.4284501310003,426.46382999900015,426.46382999900015,426.46382999900015,426.46382999900015,,,,,,,,,,,,,,,,,,,,,,,,,,,,,,,,,,,,,,,08,006,2022-09-23_11h44.52.381,test2,2022.2.4,59.99366310929652,
0,0,0,0,6,0,6,0,426.46382999900015,426.46382999900015,426.46382999900015,426.46382999900015,426.46382999900015,426.46382999900015,426.46382999900015,1,1,azul,1,['N_B'],428.13180248000026,428.13180248000026,428.13180248000026,428.13180248000026,430.15186880300007,430.15186880300007,430.15186880300007,430.15186880300007,430.15186880300007,430.15186880300007,430.15186880300007,430.15186880300007,432.1878282959997,432.1878282959997,432.1878282959997,432.1878282959997,,,,,,,,,,,,,,,,,,,,,,,,,,,,,,,,,,,,,,,08,006,2022-09-23_11h44.52.381,test2,2022.2.4,59.99366310929652,
0,0,0,0,7,0,7,0,432.1878282959997,432.1878282959997,432.1878282959997,432.1878282959997,432.1878282959997,432.1878282959997,432.1878282959997,1,1,azul,1,['N_B'],433.50484050399973,433.50484050399973,433.50484050399973,433.50484050399973,435.52429734399993,435.52429734399993,435.52429734399993,435.52429734399993,435.52429734399993,435.52429734399993,435.52429734399993,435.52429734399993,437.5423048319999,437.5423048319999,437.5423048319999,437.5423048319999,,,,,,,,,,,,,,,,,,,,,,,,,,,,,,,,,,,,,,,08,006,2022-09-23_11h44.52.381,test2,2022.2.4,59.99366310929652,
0,0,0,0,8,0,8,0,437.5423048319999,437.5423048319999,437.5423048319999,437.5423048319999,437.5423048319999,437.5423048319999,437.5423048319999,1,1,azul,1,['N_B'],439.07770449599957,439.07770449599957,439.07770449599957,439.07770449599957,441.09696994299975,441.09696994299975,441.09696994299975,441.09696994299975,441.09696994299975,441.09696994299975,441.09696994299975,441.09696994299975,443.11488000400004,443.11488000400004,443.11488000400004,443.11488000400004,,,,,,,,,,,,,,,,,,,,,,,,,,,,,,,,,,,,,,,08,006,2022-09-23_11h44.52.381,test2,2022.2.4,59.99366310929652,
0,0,0,0,9,0,9,0,443.11488000400004,443.11488000400004,443.11488000400004,443.11488000400004,443.11488000400004,443.11488000400004,443.11488000400004,1,1,azul,1,['N_B'],444.5005234930004,444.5005234930004,444.5005234930004,444.5005234930004,446.53609520900045,446.53609520900045,446.53609520900045,446.53609520900045,446.53609520900045,446.53609520900045,446.53609520900045,446.53609520900045,448.5556150129996,448.5556150129996,448.5556150129996,448.5556150129996,,,,,,,,,,,,,,,,,,,,,,,,,,,,,,,,,,,,,,,08,006,2022-09-23_11h44.52.381,test2,2022.2.4,59.99366310929652,
0,0,0,0,10,0,10,0,448.5556150129996,448.5556150129996,448.5556150129996,448.5556150129996,448.5556150129996,448.5556150129996,448.5556150129996,-1,-1,rojo,1,['N_B'],449.90699270000005,449.90699270000005,449.90699270000005,449.90699270000005,451.9245943850001,451.9245943850001,451.9245943850001,451.9245943850001,451.9245943850001,451.9245943850001,451.9245943850001,451.9245943850001,453.9435269229998,453.9435269229998,453.9435269229998,453.9435269229998,,,,,,,,,,,,,,,,,,,,,,,,,,,,,,,,,,,,,,,08,006,2022-09-23_11h44.52.381,test2,2022.2.4,59.99366310929652,
0,0,0,0,11,0,11,0,453.9435269229998,453.9435269229998,453.9435269229998,453.9435269229998,453.9435269229998,453.9435269229998,453.9435269229998,1,1,azul,1,['N_B'],455.97971953700016,455.97971953700016,455.97971953700016,455.97971953700016,457.998934018,457.998934018,457.998934018,457.998934018,457.998934018,457.998934018,457.998934018,457.998934018,460.01755134500036,460.01755134500036,460.01755134500036,460.01755134500036,,,,,,,,,,,,,,,,,,,,,,,,,,,,,,,,,,,,,,,08,006,2022-09-23_11h44.52.381,test2,2022.2.4,59.99366310929652,
0,0,0,0,12,0,12,0,460.01755134500036,460.01755134500036,460.01755134500036,460.01755134500036,460.01755134500036,460.01755134500036,460.01755134500036,1,1,azul,1,['N_B'],461.4023239669996,461.4023239669996,461.4023239669996,461.4023239669996,463.42084321400034,463.42084321400034,463.42084321400034,463.42084321400034,463.42084321400034,463.42084321400034,463.42084321400034,463.42084321400034,465.4402984440003,465.4402984440003,465.4402984440003,465.4402984440003,,,,,,,,,,,,,,,,,,,,,,,,,,,,,,,,,,,,,,,08,006,2022-09-23_11h44.52.381,test2,2022.2.4,59.99366310929652,
0,0,0,0,13,0,13,0,465.4402984440003,465.4402984440003,465.4402984440003,465.4402984440003,465.4402984440003,465.4402984440003,465.4402984440003,1,1,azul,1,['N_B'],467.02479747800044,467.02479747800044,467.02479747800044,467.02479747800044,469.0446968140004,469.0446968140004,469.0446968140004,469.0446968140004,469.0446968140004,469.0446968140004,469.0446968140004,469.0446968140004,471.06395034100024,471.06395034100024,471.06395034100024,471.06395034100024,,,,,,,,,,,,,,,,,,,,,,,,,,,,,,,,,,,,,,,08,006,2022-09-23_11h44.52.381,test2,2022.2.4,59.99366310929652,
0,0,0,0,14,0,14,0,471.06395034100024,471.06395034100024,471.06395034100024,471.06395034100024,471.06395034100024,471.06395034100024,471.06395034100024,-1,-1,rojo,1,['N_B'],472.51427564999995,472.51427564999995,472.51427564999995,472.51427564999995,474.55102709200037,474.55102709200037,474.55102709200037,474.55102709200037,474.55102709200037,474.55102709200037,474.55102709200037,474.55102709200037,476.56860879299984,476.56860879299984,476.56860879299984,476.56860879299984,,,,,,,,,,,,,,,,,,,,,,,,,,,,,,,,,,,,,,,08,006,2022-09-23_11h44.52.381,test2,2022.2.4,59.99366310929652,
0,0,0,0,15,0,15,0,476.56860879299984,476.56860879299984,476.56860879299984,476.56860879299984,476.56860879299984,476.56860879299984,476.56860879299984,-1,-1,rojo,1,['N_B'],478.7045822979999,478.7045822979999,478.7045822979999,478.7045822979999,480.74094816700017,480.74094816700017,480.74094816700017,480.74094816700017,480.74094816700017,480.74094816700017,480.74094816700017,480.74094816700017,482.7597963970002,482.7597963970002,482.7597963970002,482.7597963970002,,,,,,,,,,,,,,,,,,,,,,,,,,,,,,,,,,,,,,,08,006,2022-09-23_11h44.52.381,test2,2022.2.4,59.99366310929652,
0,0,0,0,16,0,16,0,482.7597963970002,482.7597963970002,482.7597963970002,482.7597963970002,482.7597963970002,482.7597963970002,482.7597963970002,1,-1,azul,1,['N_B'],484.31044298600045,484.31044298600045,484.31044298600045,484.31044298600045,486.3292234399996,486.3292234399996,486.3292234399996,486.3292234399996,486.3292234399996,486.3292234399996,486.3292234399996,486.3292234399996,488.34834904200034,488.34834904200034,488.34834904200034,488.34834904200034,,,,,,,,,,,,,,,,,,,,,,,,,,,,,,,,,,,,,,,08,006,2022-09-23_11h44.52.381,test2,2022.2.4,59.99366310929652,
0,0,0,0,17,0,17,0,488.34834904200034,488.34834904200034,488.34834904200034,488.34834904200034,488.34834904200034,488.34834904200034,488.34834904200034,1,1,azul,1,['N_B'],489.85065878299974,489.85065878299974,489.85065878299974,489.85065878299974,491.86850630499976,491.86850630499976,491.86850630499976,491.86850630499976,491.86850630499976,491.86850630499976,491.86850630499976,491.86850630499976,493.88795231899985,493.88795231899985,493.88795231899985,493.88795231899985,,,,,,,,,,,,,,,,,,,,,,,,,,,,,,,,,,,,,,,08,006,2022-09-23_11h44.52.381,test2,2022.2.4,59.99366310929652,
0,0,0,0,18,0,18,0,493.88795231899985,493.88795231899985,493.88795231899985,493.88795231899985,493.88795231899985,493.88795231899985,493.88795231899985,1,-1,azul,1,['N_B'],495.6072232529996,495.6072232529996,495.6072232529996,495.6072232529996,497.62604730600015,497.62604730600015,497.62604730600015,497.62604730600015,497.62604730600015,497.62604730600015,497.62604730600015,497.62604730600015,499.6445743049999,499.6445743049999,499.6445743049999,499.6445743049999,,,,,,,,,,,,,,,,,,,,,,,,,,,,,,,,,,,,,,,08,006,2022-09-23_11h44.52.381,test2,2022.2.4,59.99366310929652,
0,0,0,0,19,0,19,0,499.6445743049999,499.6445743049999,499.6445743049999,499.6445743049999,499.6445743049999,499.6445743049999,499.6445743049999,1,1,azul,1,['N_B'],503.69834761899983,503.69834761899983,503.69834761899983,503.69834761899983,505.7187627840003,505.7187627840003,505.7187627840003,505.7187627840003,505.7187627840003,505.7187627840003,505.7187627840003,505.7187627840003,507.7365896040001,507.7365896040001,507.7365896040001,507.7365896040001,,,,,,,,,,,,,,,,,,,,,,,,,,,,,,,,,,,,,,,08,006,2022-09-23_11h44.52.381,test2,2022.2.4,59.99366310929652,
0,0,0,0,20,0,20,0,507.7365896040001,507.7365896040001,507.7365896040001,507.7365896040001,507.7365896040001,507.7365896040001,507.7365896040001,1,1,azul,1,['N_B'],509.32150376000027,509.32150376000027,509.32150376000027,509.32150376000027,511.3413859459997,511.3413859459997,511.3413859459997,511.3413859459997,511.3413859459997,511.3413859459997,511.3413859459997,511.3413859459997,513.3604561049997,513.3604561049997,513.3604561049997,513.3604561049997,,,,,,,,,,,,,,,,,,,,,,,,,,,,,,,,,,,,,,,08,006,2022-09-23_11h44.52.381,test2,2022.2.4,59.99366310929652,
0,0,0,0,21,0,21,0,513.3604561049997,513.3604561049997,513.3604561049997,513.3604561049997,513.3604561049997,513.3604561049997,513.3604561049997,1,1,azul,1,['N_B'],515.9959855019997,515.9959855019997,515.9959855019997,515.9959855019997,518.0143819470004,518.0143819470004,518.0143819470004,518.0143819470004,518.0143819470004,518.0143819470004,518.0143819470004,518.0143819470004,520.0337373789998,520.0337373789998,520.0337373789998,520.0337373789998,,,,,,,,,,,,,,,,,,,,,,,,,,,,,,,,,,,,,,,08,006,2022-09-23_11h44.52.381,test2,2022.2.4,59.99366310929652,
0,0,0,0,22,0,22,0,520.0337373789998,520.0337373789998,520.0337373789998,520.0337373789998,520.0337373789998,520.0337373789998,520.0337373789998,-1,-1,rojo,1,['N_B'],521.9854287939997,521.9854287939997,521.9854287939997,521.9854287939997,524.0220349450001,524.0220349450001,524.0220349450001,524.0220349450001,524.0220349450001,524.0220349450001,524.0220349450001,524.0220349450001,526.0397213739998,526.0397213739998,526.0397213739998,526.0397213739998,,,,,,,,,,,,,,,,,,,,,,,,,,,,,,,,,,,,,,,08,006,2022-09-23_11h44.52.381,test2,2022.2.4,59.99366310929652,
0,0,0,0,23,0,23,0,526.0397213739998,526.0397213739998,526.0397213739998,526.0397213739998,526.0397213739998,526.0397213739998,526.0397213739998,-1,-1,rojo,1,['N_B'],527.9920149079999,527.9920149079999,527.9920149079999,527.9920149079999,530.0282999640003,530.0282999640003,530.0282999640003,530.0282999640003,530.0282999640003,530.0282999640003,530.0282999640003,530.0282999640003,532.0471281239998,532.0471281239998,532.0471281239998,532.0471281239998,,,,,,,,,,,,,,,,,,,,,,,,,,,,,,,,,,,,,,,08,006,2022-09-23_11h44.52.381,test2,2022.2.4,59.99366310929652,
0,0,0,0,24,0,24,0,532.0471281239998,532.0471281239998,532.0471281239998,532.0471281239998,532.0471281239998,532.0471281239998,532.0471281239998,1,-1,azul,1,['N_B'],536.3845578600003,536.3845578600003,536.3845578600003,536.3845578600003,538.4214921419998,538.4214921419998,538.4214921419998,538.4214921419998,538.4214921419998,538.4214921419998,538.4214921419998,538.4214921419998,540.4388664979997,540.4388664979997,540.4388664979997,540.4388664979997,,,,,,,,,,,,,,,,,,,,,,,,,,,,,,,,,,,,,,,08,006,2022-09-23_11h44.52.381,test2,2022.2.4,59.99366310929652,
0,0,0,0,25,0,25,0,540.4388664979997,540.4388664979997,540.4388664979997,540.4388664979997,540.4388664979997,540.4388664979997,540.4388664979997,1,-1,azul,1,['N_B'],560.5777858519996,560.5777858519996,560.5777858519996,560.5777858519996,562.5976070380002,562.5976070380002,562.5976070380002,562.5976070380002,562.5976070380002,562.5976070380002,562.5976070380002,562.5976070380002,564.615674398,564.615674398,564.615674398,564.615674398,,,,,,,,,,,,,,,,,,,,,,,,,,,,,,,,,,,,,,,08,006,2022-09-23_11h44.52.381,test2,2022.2.4,59.99366310929652,
0,0,0,0,26,0,26,0,564.615674398,564.615674398,564.615674398,564.615674398,564.615674398,564.615674398,564.615674398,1,1,azul,1,['N_B'],597.9193782510001,597.9193782510001,597.9193782510001,597.9193782510001,599.9385823189996,599.9385823189996,599.9385823189996,599.9385823189996,599.9385823189996,599.9385823189996,599.9385823189996,599.9385823189996,601.9570099809998,601.9570099809998,601.9570099809998,601.9570099809998,,,,,,,,,,,,,,,,,,,,,,,,,,,,,,,,,,,,,,,08,006,2022-09-23_11h44.52.381,test2,2022.2.4,59.99366310929652,
0,0,0,0,27,0,27,0,601.9570099809998,601.9570099809998,601.9570099809998,601.9570099809998,601.9570099809998,601.9570099809998,601.9570099809998,1,1,azul,1,['N_B'],604.1759077240004,604.1759077240004,604.1759077240004,604.1759077240004,606.1960511540001,606.1960511540001,606.1960511540001,606.1960511540001,606.1960511540001,606.1960511540001,606.1960511540001,606.1960511540001,608.2142030220002,608.2142030220002,608.2142030220002,608.2142030220002,,,,,,,,,,,,,,,,,,,,,,,,,,,,,,,,,,,,,,,08,006,2022-09-23_11h44.52.381,test2,2022.2.4,59.99366310929652,
0,0,0,0,28,0,28,0,608.2142030220002,608.2142030220002,608.2142030220002,608.2142030220002,608.2142030220002,608.2142030220002,608.2142030220002,1,1,azul,1,['N_B'],610.3335052729999,610.3335052729999,610.3335052729999,610.3335052729999,612.3528412189999,612.3528412189999,612.3528412189999,612.3528412189999,612.3528412189999,612.3528412189999,612.3528412189999,612.3528412189999,614.3706906070001,614.3706906070001,614.3706906070001,614.3706906070001,,,,,,,,,,,,,,,,,,,,,,,,,,,,,,,,,,,,,,,08,006,2022-09-23_11h44.52.381,test2,2022.2.4,59.99366310929652,
0,0,0,0,29,0,29,0,614.3706906070001,614.3706906070001,614.3706906070001,614.3706906070001,614.3706906070001,614.3706906070001,614.3706906070001,-1,1,rojo,1,['N_B'],615.7892357740002,615.7892357740002,615.7892357740002,615.7892357740002,617.8075193120003,617.8075193120003,617.8075193120003,617.8075193120003,617.8075193120003,617.8075193120003,617.8075193120003,617.8075193120003,619.8276624749997,619.8276624749997,619.8276624749997,619.8276624749997,,,,,,,,,,,,,,,,,,,,,,,,,,,,,,,,,,,,,,,08,006,2022-09-23_11h44.52.381,test2,2022.2.4,59.99366310929652,
0,0,0,0,30,0,30,0,619.8276624749997,619.8276624749997,619.8276624749997,619.8276624749997,619.8276624749997,619.8276624749997,619.8276624749997,-1,-1,rojo,1,['N_B'],622.8468031270004,622.8468031270004,622.8468031270004,622.8468031270004,624.8828959559996,624.8828959559996,624.8828959559996,624.8828959559996,624.8828959559996,624.8828959559996,624.8828959559996,624.8828959559996,626.9010117110001,626.9010117110001,626.9010117110001,626.9010117110001,,,,,,,,,,,,,,,,,,,,,,,,,,,,,,,,,,,,,,,08,006,2022-09-23_11h44.52.381,test2,2022.2.4,59.99366310929652,
0,0,0,0,31,0,31,0,626.9010117110001,626.9010117110001,626.9010117110001,626.9010117110001,626.9010117110001,626.9010117110001,626.9010117110001,-1,-1,rojo,1,['N_B'],629.0367810799999,629.0367810799999,629.0367810799999,629.0367810799999,631.0739273950003,631.0739273950003,631.0739273950003,631.0739273950003,631.0739273950003,631.0739273950003,631.0739273950003,631.0739273950003,633.0919409349999,633.0919409349999,633.0919409349999,633.0919409349999,,,,,,,,,,,,,,,,,,,,,,,,,,,,,,,,,,,,,,,08,006,2022-09-23_11h44.52.381,test2,2022.2.4,59.99366310929652,
0,0,0,0,32,0,32,0,633.0919409349999,633.0919409349999,633.0919409349999,633.0919409349999,633.0919409349999,633.0919409349999,633.0919409349999,-1,-1,rojo,1,['N_B'],635.6277938249996,635.6277938249996,635.6277938249996,635.6277938249996,637.664281978,637.664281978,637.664281978,637.664281978,637.664281978,637.664281978,637.664281978,637.664281978,639.6825560449997,639.6825560449997,639.6825560449997,639.6825560449997,,,,,,,,,,,,,,,,,,,,,,,,,,,,,,,,,,,,,,,08,006,2022-09-23_11h44.52.381,test2,2022.2.4,59.99366310929652,
0,0,0,0,33,0,33,0,639.6825560449997,639.6825560449997,639.6825560449997,639.6825560449997,639.6825560449997,639.6825560449997,639.6825560449997,-1,-1,rojo,0,['N_A'],666.7459070189998,666.7459070189998,666.7459070189998,666.7459070189998,668.7637196830001,668.7637196830001,668.7637196830001,668.7637196830001,668.7637196830001,668.7637196830001,668.7637196830001,668.7637196830001,670.7825563010001,670.7825563010001,670.7825563010001,670.7825563010001,,,,,,,,,,,,,,,,,,,,,,,,,,,,,,,,,,,,,,,08,006,2022-09-23_11h44.52.381,test2,2022.2.4,59.99366310929652,
0,0,0,0,34,0,34,0,670.7825563010001,670.7825563010001,670.7825563010001,670.7825563010001,670.7825563010001,670.7825563010001,670.7825563010001,-1,1,azul,1,['N_A'],672.9857993610003,672.9857993610003,672.9857993610003,672.9857993610003,675.0053409470001,675.0053409470001,675.0053409470001,675.0053409470001,675.0053409470001,675.0053409470001,675.0053409470001,675.0053409470001,677.0231216550001,677.0231216550001,677.0231216550001,677.0231216550001,,,,,,,,,,,,,,,,,,,,,,,,,,,,,,,,,,,,,,,08,006,2022-09-23_11h44.52.381,test2,2022.2.4,59.99366310929652,
0,0,0,0,35,0,35,0,677.0231216550001,677.0231216550001,677.0231216550001,677.0231216550001,677.0231216550001,677.0231216550001,677.0231216550001,1,1,rojo,1,['N_A'],678.5927707809997,678.5927707809997,678.5927707809997,678.5927707809997,680.6113340049997,680.6113340049997,680.6113340049997,680.6113340049997,680.6113340049997,680.6113340049997,680.6113340049997,680.6113340049997,682.6294736560003,682.6294736560003,682.6294736560003,682.6294736560003,,,,,,,,,,,,,,,,,,,,,,,,,,,,,,,,,,,,,,,08,006,2022-09-23_11h44.52.381,test2,2022.2.4,59.99366310929652,
0,0,0,0,36,0,36,0,682.6294736560003,682.6294736560003,682.6294736560003,682.6294736560003,682.6294736560003,682.6294736560003,682.6294736560003,-1,1,azul,1,['N_A'],684.5645548860002,684.5645548860002,684.5645548860002,684.5645548860002,686.5843482939999,686.5843482939999,686.5843482939999,686.5843482939999,686.5843482939999,686.5843482939999,686.5843482939999,686.5843482939999,688.6023094820002,688.6023094820002,688.6023094820002,688.6023094820002,,,,,,,,,,,,,,,,,,,,,,,,,,,,,,,,,,,,,,,08,006,2022-09-23_11h44.52.381,test2,2022.2.4,59.99366310929652,
0,0,0,0,37,0,37,0,688.6023094820002,688.6023094820002,688.6023094820002,688.6023094820002,688.6023094820002,688.6023094820002,688.6023094820002,1,-1,rojo,1,['N_A'],690.354212192,690.354212192,690.354212192,690.354212192,692.3736556650001,692.3736556650001,692.3736556650001,692.3736556650001,692.3736556650001,692.3736556650001,692.3736556650001,692.3736556650001,694.3926564000003,694.3926564000003,694.3926564000003,694.3926564000003,,,,,,,,,,,,,,,,,,,,,,,,,,,,,,,,,,,,,,,08,006,2022-09-23_11h44.52.381,test2,2022.2.4,59.99366310929652,
0,0,0,0,38,0,38,0,694.3926564000003,694.3926564000003,694.3926564000003,694.3926564000003,694.3926564000003,694.3926564000003,694.3926564000003,1,1,rojo,1,['N_A'],751.839264534,751.839264534,751.839264534,751.839264534,753.8593626049997,753.8593626049997,753.8593626049997,753.8593626049997,753.8593626049997,753.8593626049997,753.8593626049997,753.8593626049997,755.8774436940002,755.8774436940002,755.8774436940002,755.8774436940002,,,,,,,,,,,,,,,,,,,,,,,,,,,,,,,,,,,,,,,08,006,2022-09-23_11h44.52.381,test2,2022.2.4,59.99366310929652,
0,0,0,0,39,0,39,0,755.8774436940002,755.8774436940002,755.8774436940002,755.8774436940002,755.8774436940002,755.8774436940002,755.8774436940002,-1,1,azul,1,['N_A'],770.1259705040002,770.1259705040002,770.1259705040002,770.1259705040002,772.1451017600002,772.1451017600002,772.1451017600002,772.1451017600002,772.1451017600002,772.1451017600002,772.1451017600002,772.1451017600002,774.1636958489999,774.1636958489999,774.1636958489999,774.1636958489999,,,,,,,,,,,,,,,,,,,,,,,,,,,,,,,,,,,,,,,08,006,2022-09-23_11h44.52.381,test2,2022.2.4,59.99366310929652,
0,0,0,0,40,0,40,0,774.1636958489999,774.1636958489999,774.1636958489999,774.1636958489999,774.1636958489999,774.1636958489999,774.1636958489999,-1,-1,azul,1,['N_A'],775.715966666,775.715966666,775.715966666,775.715966666,777.7339427870002,777.7339427870002,777.7339427870002,777.7339427870002,777.7339427870002,777.7339427870002,777.7339427870002,777.7339427870002,779.7540182800003,779.7540182800003,779.7540182800003,779.7540182800003,,,,,,,,,,,,,,,,,,,,,,,,,,,,,,,,,,,,,,,08,006,2022-09-23_11h44.52.381,test2,2022.2.4,59.99366310929652,
0,0,0,0,41,0,41,0,779.7540182800003,779.7540182800003,779.7540182800003,779.7540182800003,779.7540182800003,779.7540182800003,779.7540182800003,1,1,rojo,1,['N_A'],781.2382927500003,781.2382927500003,781.2382927500003,781.2382927500003,783.2576994110004,783.2576994110004,783.2576994110004,783.2576994110004,783.2576994110004,783.2576994110004,783.2576994110004,783.2576994110004,785.2757368100001,785.2757368100001,785.2757368100001,785.2757368100001,,,,,,,,,,,,,,,,,,,,,,,,,,,,,,,,,,,,,,,08,006,2022-09-23_11h44.52.381,test2,2022.2.4,59.99366310929652,
0,0,0,0,42,0,42,0,785.2757368100001,785.2757368100001,785.2757368100001,785.2757368100001,785.2757368100001,785.2757368100001,785.2757368100001,1,1,rojo,1,['N_A'],786.693979222,786.693979222,786.693979222,786.693979222,788.713721778,788.713721778,788.713721778,788.713721778,788.713721778,788.713721778,788.713721778,788.713721778,790.731618754,790.731618754,790.731618754,790.731618754,,,,,,,,,,,,,,,,,,,,,,,,,,,,,,,,,,,,,,,08,006,2022-09-23_11h44.52.381,test2,2022.2.4,59.99366310929652,
0,0,0,0,43,0,43,0,790.731618754,790.731618754,790.731618754,790.731618754,790.731618754,790.731618754,790.731618754,1,1,rojo,1,['N_A'],793.5518158839996,793.5518158839996,793.5518158839996,793.5518158839996,795.5712645399999,795.5712645399999,795.5712645399999,795.5712645399999,795.5712645399999,795.5712645399999,795.5712645399999,795.5712645399999,797.5901651590002,797.5901651590002,797.5901651590002,797.5901651590002,,,,,,,,,,,,,,,,,,,,,,,,,,,,,,,,,,,,,,,08,006,2022-09-23_11h44.52.381,test2,2022.2.4,59.99366310929652,
0,0,0,0,44,0,44,0,797.5901651590002,797.5901651590002,797.5901651590002,797.5901651590002,797.5901651590002,797.5901651590002,797.5901651590002,-1,1,azul,1,['N_A'],799.2250491739997,799.2250491739997,799.2250491739997,799.2250491739997,801.2433212229998,801.2433212229998,801.2433212229998,801.2433212229998,801.2433212229998,801.2433212229998,801.2433212229998,801.2433212229998,803.2627560780002,803.2627560780002,803.2627560780002,803.2627560780002,,,,,,,,,,,,,,,,,,,,,,,,,,,,,,,,,,,,,,,08,006,2022-09-23_11h44.52.381,test2,2022.2.4,59.99366310929652,
0,0,0,0,45,0,45,0,803.2627560780002,803.2627560780002,803.2627560780002,803.2627560780002,803.2627560780002,803.2627560780002,803.2627560780002,1,-1,rojo,1,['N_A'],804.7814918659997,804.7814918659997,804.7814918659997,804.7814918659997,806.8168555410002,806.8168555410002,806.8168555410002,806.8168555410002,806.8168555410002,806.8168555410002,806.8168555410002,806.8168555410002,808.8350890080001,808.8350890080001,808.8350890080001,808.8350890080001,,,,,,,,,,,,,,,,,,,,,,,,,,,,,,,,,,,,,,,08,006,2022-09-23_11h44.52.381,test2,2022.2.4,59.99366310929652,
0,0,0,0,46,0,46,0,808.8350890080001,808.8350890080001,808.8350890080001,808.8350890080001,808.8350890080001,808.8350890080001,808.8350890080001,1,-1,rojo,1,['N_A'],810.2539405179996,810.2539405179996,810.2539405179996,810.2539405179996,812.2721004599998,812.2721004599998,812.2721004599998,812.2721004599998,812.2721004599998,812.2721004599998,812.2721004599998,812.2721004599998,814.2913693250002,814.2913693250002,814.2913693250002,814.2913693250002,,,,,,,,,,,,,,,,,,,,,,,,,,,,,,,,,,,,,,,08,006,2022-09-23_11h44.52.381,test2,2022.2.4,59.99366310929652,
0,0,0,0,47,0,47,0,814.2913693250002,814.2913693250002,814.2913693250002,814.2913693250002,814.2913693250002,814.2913693250002,814.2913693250002,1,1,rojo,1,['N_A'],815.876158006,815.876158006,815.876158006,815.876158006,817.8961196560003,817.8961196560003,817.8961196560003,817.8961196560003,817.8961196560003,817.8961196560003,817.8961196560003,817.8961196560003,819.9320141549997,819.9320141549997,819.9320141549997,819.9320141549997,,,,,,,,,,,,,,,,,,,,,,,,,,,,,,,,,,,,,,,08,006,2022-09-23_11h44.52.381,test2,2022.2.4,59.99366310929652,
0,0,0,0,48,0,48,0,819.9320141549997,819.9320141549997,819.9320141549997,819.9320141549997,819.9320141549997,819.9320141549997,819.9320141549997,1,1,rojo,1,['N_A'],820.9327070420004,820.9327070420004,820.9327070420004,820.9327070420004,822.951530026,822.951530026,822.951530026,822.951530026,822.951530026,822.951530026,822.951530026,822.951530026,824.9696131119999,824.9696131119999,824.9696131119999,824.9696131119999,,,,,,,,,,,,,,,,,,,,,,,,,,,,,,,,,,,,,,,08,006,2022-09-23_11h44.52.381,test2,2022.2.4,59.99366310929652,
0,0,0,0,49,0,49,0,824.9696131119999,824.9696131119999,824.9696131119999,824.9696131119999,824.9696131119999,824.9696131119999,824.9696131119999,-1,1,azul,1,['N_A'],826.3052832350004,826.3052832350004,826.3052832350004,826.3052832350004,828.3251055359997,828.3251055359997,828.3251055359997,828.3251055359997,828.3251055359997,828.3251055359997,828.3251055359997,828.3251055359997,830.3422660120004,830.3422660120004,830.3422660120004,830.3422660120004,,,,,,,,,,,,,,,,,,,,,,,,,,,,,,,,,,,,,,,08,006,2022-09-23_11h44.52.381,test2,2022.2.4,59.99366310929652,
0,0,0,0,50,0,50,0,830.3422660120004,830.3422660120004,830.3422660120004,830.3422660120004,830.3422660120004,830.3422660120004,830.3422660120004,1,1,rojo,1,['N_A'],831.6935738020002,831.6935738020002,831.6935738020002,831.6935738020002,833.7132521490003,833.7132521490003,833.7132521490003,833.7132521490003,833.7132521490003,833.7132521490003,833.7132521490003,833.7132521490003,835.7314290860004,835.7314290860004,835.7314290860004,835.7314290860004,,,,,,,,,,,,,,,,,,,,,,,,,,,,,,,,,,,,,,,08,006,2022-09-23_11h44.52.381,test2,2022.2.4,59.99366310929652,
0,0,0,0,51,0,51,0,835.7314290860004,835.7314290860004,835.7314290860004,835.7314290860004,835.7314290860004,835.7314290860004,835.7314290860004,1,-1,rojo,1,['N_A'],837.6667010250003,837.6667010250003,837.6667010250003,837.6667010250003,839.6861167090001,839.6861167090001,839.6861167090001,839.6861167090001,839.6861167090001,839.6861167090001,839.6861167090001,839.6861167090001,841.7228937629998,841.7228937629998,841.7228937629998,841.7228937629998,,,,,,,,,,,,,,,,,,,,,,,,,,,,,,,,,,,,,,,08,006,2022-09-23_11h44.52.381,test2,2022.2.4,59.99366310929652,
0,0,0,0,52,0,52,0,841.7228937629998,841.7228937629998,841.7228937629998,841.7228937629998,841.7228937629998,841.7228937629998,841.7228937629998,1,1,rojo,1,['N_A'],842.7224014410003,842.7224014410003,842.7224014410003,842.7224014410003,844.7410883660004,844.7410883660004,844.7410883660004,844.7410883660004,844.7410883660004,844.7410883660004,844.7410883660004,844.7410883660004,846.7607987359997,846.7607987359997,846.7607987359997,846.7607987359997,,,,,,,,,,,,,,,,,,,,,,,,,,,,,,,,,,,,,,,08,006,2022-09-23_11h44.52.381,test2,2022.2.4,59.99366310929652,
0,0,0,0,53,0,53,0,846.7607987359997,846.7607987359997,846.7607987359997,846.7607987359997,846.7607987359997,846.7607987359997,846.7607987359997,1,-1,rojo,1,['N_A'],848.312611972,848.312611972,848.312611972,848.312611972,850.3482303110004,850.3482303110004,850.3482303110004,850.3482303110004,850.3482303110004,850.3482303110004,850.3482303110004,850.3482303110004,852.366207696,852.366207696,852.366207696,852.366207696,,,,,,,,,,,,,,,,,,,,,,,,,,,,,,,,,,,,,,,08,006,2022-09-23_11h44.52.381,test2,2022.2.4,59.99366310929652,
0,0,0,0,54,0,54,0,852.366207696,852.366207696,852.366207696,852.366207696,852.366207696,852.366207696,852.366207696,-1,-1,azul,1,['N_A'],872.655337401,872.655337401,872.655337401,872.655337401,874.6934064429997,874.6934064429997,874.6934064429997,874.6934064429997,874.6934064429997,874.6934064429997,874.6934064429997,874.6934064429997,876.709862449,876.709862449,876.709862449,876.709862449,,,,,,,,,,,,,,,,,,,,,,,,,,,,,,,,,,,,,,,08,006,2022-09-23_11h44.52.381,test2,2022.2.4,59.99366310929652,
0,0,0,0,55,0,55,0,876.709862449,876.709862449,876.709862449,876.709862449,876.709862449,876.709862449,876.709862449,1,-1,rojo,1,['N_A'],878.3794609200004,878.3794609200004,878.3794609200004,878.3794609200004,880.415305089,880.415305089,880.415305089,880.415305089,880.415305089,880.415305089,880.415305089,880.415305089,882.4327754440001,882.4327754440001,882.4327754440001,882.4327754440001,,,,,,,,,,,,,,,,,,,,,,,,,,,,,,,,,,,,,,,08,006,2022-09-23_11h44.52.381,test2,2022.2.4,59.99366310929652,
0,0,0,0,56,0,56,0,882.4327754440001,882.4327754440001,882.4327754440001,882.4327754440001,882.4327754440001,882.4327754440001,882.4327754440001,-1,-1,azul,1,['N_A'],887.3222446899999,887.3222446899999,887.3222446899999,887.3222446899999,889.3584676379996,889.3584676379996,889.3584676379996,889.3584676379996,889.3584676379996,889.3584676379996,889.3584676379996,889.3584676379996,891.3760958659996,891.3760958659996,891.3760958659996,891.3760958659996,,,,,,,,,,,,,,,,,,,,,,,,,,,,,,,,,,,,,,,08,006,2022-09-23_11h44.52.381,test2,2022.2.4,59.99366310929652,
0,0,0,0,57,0,57,0,891.3760958659996,891.3760958659996,891.3760958659996,891.3760958659996,891.3760958659996,891.3760958659996,891.3760958659996,1,-1,rojo,1,['N_A'],892.8949859049999,892.8949859049999,892.8949859049999,892.8949859049999,894.9142052950001,894.9142052950001,894.9142052950001,894.9142052950001,894.9142052950001,894.9142052950001,894.9142052950001,894.9142052950001,896.9328751189996,896.9328751189996,896.9328751189996,896.9328751189996,,,,,,,,,,,,,,,,,,,,,,,,,,,,,,,,,,,,,,,08,006,2022-09-23_11h44.52.381,test2,2022.2.4,59.99366310929652,
0,0,0,0,58,0,58,0,896.9328751189996,896.9328751189996,896.9328751189996,896.9328751189996,896.9328751189996,896.9328751189996,896.9328751189996,1,1,rojo,1,['N_A'],898.3505747749996,898.3505747749996,898.3505747749996,898.3505747749996,900.3692989040001,900.3692989040001,900.3692989040001,900.3692989040001,900.3692989040001,900.3692989040001,900.3692989040001,900.3692989040001,902.3888395780004,902.3888395780004,902.3888395780004,902.3888395780004,,,,,,,,,,,,,,,,,,,,,,,,,,,,,,,,,,,,,,,08,006,2022-09-23_11h44.52.381,test2,2022.2.4,59.99366310929652,
0,0,0,0,59,0,59,0,902.3888395780004,902.3888395780004,902.3888395780004,902.3888395780004,902.3888395780004,902.3888395780004,902.3888395780004,1,-1,rojo,1,['N_A'],903.8736279450004,903.8736279450004,903.8736279450004,903.8736279450004,905.9102735650004,905.9102735650004,905.9102735650004,905.9102735650004,905.9102735650004,905.9102735650004,905.9102735650004,905.9102735650004,907.9275276090002,907.9275276090002,907.9275276090002,907.9275276090002,,,,,,,,,,,,,,,,,,,,,,,,,,,,,,,,,,,,,,,08,006,2022-09-23_11h44.52.381,test2,2022.2.4,59.99366310929652,
0,0,0,0,60,0,60,0,907.9275276090002,907.9275276090002,907.9275276090002,907.9275276090002,907.9275276090002,907.9275276090002,907.9275276090002,1,-1,rojo,1,['N_A'],912.5159910470002,912.5159910470002,912.5159910470002,912.5159910470002,914.5355058739997,914.5355058739997,914.5355058739997,914.5355058739997,914.5355058739997,914.5355058739997,914.5355058739997,914.5355058739997,916.5547532330002,916.5547532330002,916.5547532330002,916.5547532330002,,,,,,,,,,,,,,,,,,,,,,,,,,,,,,,,,,,,,,,08,006,2022-09-23_11h44.52.381,test2,2022.2.4,59.99366310929652,
0,0,0,0,61,0,61,0,916.5547532330002,916.5547532330002,916.5547532330002,916.5547532330002,916.5547532330002,916.5547532330002,916.5547532330002,1,1,rojo,1,['N_A'],917.671922003,917.671922003,917.671922003,917.671922003,919.6911476819996,919.6911476819996,919.6911476819996,919.6911476819996,919.6911476819996,919.6911476819996,919.6911476819996,919.6911476819996,921.7096816860003,921.7096816860003,921.7096816860003,921.7096816860003,,,,,,,,,,,,,,,,,,,,,,,,,,,,,,,,,,,,,,,08,006,2022-09-23_11h44.52.381,test2,2022.2.4,59.99366310929652,
0,0,0,0,62,0,62,0,921.7096816860003,921.7096816860003,921.7096816860003,921.7096816860003,921.7096816860003,921.7096816860003,921.7096816860003,1,-1,rojo,1,['N_A'],924.1793472629997,924.1793472629997,924.1793472629997,924.1793472629997,926.1976857939999,926.1976857939999,926.1976857939999,926.1976857939999,926.1976857939999,926.1976857939999,926.1976857939999,926.1976857939999,928.2178053019998,928.2178053019998,928.2178053019998,928.2178053019998,,,,,,,,,,,,,,,,,,,,,,,,,,,,,,,,,,,,,,,08,006,2022-09-23_11h44.52.381,test2,2022.2.4,59.99366310929652,
0,0,0,0,63,0,63,0,928.2178053019998,928.2178053019998,928.2178053019998,928.2178053019998,928.2178053019998,928.2178053019998,928.2178053019998,1,1,rojo,1,['N_A'],936.55917443,936.55917443,936.55917443,936.55917443,938.5797644539998,938.5797644539998,938.5797644539998,938.5797644539998,938.5797644539998,938.5797644539998,938.5797644539998,938.5797644539998,940.5969832070004,940.5969832070004,940.5969832070004,940.5969832070004,,,,,,,,,,,,,,,,,,,,,,,,,,,,,,,,,,,,,,,08,006,2022-09-23_11h44.52.381,test2,2022.2.4,59.99366310929652,
0,0,0,0,64,0,64,0,940.5969832070004,940.5969832070004,940.5969832070004,940.5969832070004,940.5969832070004,940.5969832070004,940.5969832070004,-1,1,azul,1,['N_A'],942.3833311369999,942.3833311369999,942.3833311369999,942.3833311369999,944.4018176230002,944.4018176230002,944.4018176230002,944.4018176230002,944.4018176230002,944.4018176230002,944.4018176230002,944.4018176230002,946.4205701869996,946.4205701869996,946.4205701869996,946.4205701869996,,,,,,,,,,,,,,,,,,,,,,,,,,,,,,,,,,,,,,,08,006,2022-09-23_11h44.52.381,test2,2022.2.4,59.99366310929652,
0,0,0,0,65,0,65,0,946.4205701869996,946.4205701869996,946.4205701869996,946.4205701869996,946.4205701869996,946.4205701869996,946.4205701869996,1,-1,rojo,1,['N_A'],947.9884576129998,947.9884576129998,947.9884576129998,947.9884576129998,950.0085369990002,950.0085369990002,950.0085369990002,950.0085369990002,950.0085369990002,950.0085369990002,950.0085369990002,950.0085369990002,952.0273229140003,952.0273229140003,952.0273229140003,952.0273229140003,,,,,,,,,,,,,,,,,,,,,,,,,,,,,,,,,,,,,,,08,006,2022-09-23_11h44.52.381,test2,2022.2.4,59.99366310929652,
0,0,0,0,66,0,66,0,952.0273229140003,952.0273229140003,952.0273229140003,952.0273229140003,952.0273229140003,952.0273229140003,952.0273229140003,1,1,rojo,1,['N_A'],953.7290894670004,953.7290894670004,953.7290894670004,953.7290894670004,955.7480393899996,955.7480393899996,955.7480393899996,955.7480393899996,955.7480393899996,955.7480393899996,955.7480393899996,955.7480393899996,957.7662004920003,957.7662004920003,957.7662004920003,957.7662004920003,,,,,,,,,,,,,,,,,,,,,,,,,,,,,,,,,,,,,,,08,006,2022-09-23_11h44.52.381,test2,2022.2.4,59.99366310929652,
0,0,0,0,67,0,67,0,957.7662004920003,957.7662004920003,957.7662004920003,957.7662004920003,957.7662004920003,957.7662004920003,957.7662004920003,1,1,rojo,1,['N_A'],959.7520056590001,959.7520056590001,959.7520056590001,959.7520056590001,961.7710055810003,961.7710055810003,961.7710055810003,961.7710055810003,961.7710055810003,961.7710055810003,961.7710055810003,961.7710055810003,963.7898153639999,963.7898153639999,963.7898153639999,963.7898153639999,,,,,,,,,,,,,,,,,,,,,,,,,,,,,,,,,,,,,,,08,006,2022-09-23_11h44.52.381,test2,2022.2.4,59.99366310929652,
0,0,0,0,68,0,68,0,963.7898153639999,963.7898153639999,963.7898153639999,963.7898153639999,963.7898153639999,963.7898153639999,963.7898153639999,1,-1,rojo,1,['N_A'],966.4097475139997,966.4097475139997,966.4097475139997,966.4097475139997,968.4454172810001,968.4454172810001,968.4454172810001,968.4454172810001,968.4454172810001,968.4454172810001,968.4454172810001,968.4454172810001,970.4632828350004,970.4632828350004,970.4632828350004,970.4632828350004,,,,,,,,,,,,,,,,,,,,,,,,,,,,,,,,,,,,,,,08,006,2022-09-23_11h44.52.381,test2,2022.2.4,59.99366310929652,
0,0,0,0,69,0,69,0,970.4632828350004,970.4632828350004,970.4632828350004,970.4632828350004,970.4632828350004,970.4632828350004,970.4632828350004,1,-1,rojo,1,['N_A'],972.3991139769996,972.3991139769996,972.3991139769996,972.3991139769996,974.435150065,974.435150065,974.435150065,974.435150065,974.435150065,974.435150065,974.435150065,974.435150065,976.4531329849997,976.4531329849997,976.4531329849997,976.4531329849997,,,,,,,,,,,,,,,,,,,,,,,,,,,,,,,,,,,,,,,08,006,2022-09-23_11h44.52.381,test2,2022.2.4,59.99366310929652,
0,0,0,0,70,0,70,0,976.4531329849997,976.4531329849997,976.4531329849997,976.4531329849997,976.4531329849997,976.4531329849997,976.4531329849997,1,-1,rojo,1,['N_A'],977.9219639519997,977.9219639519997,977.9219639519997,977.9219639519997,979.958208469,979.958208469,979.958208469,979.958208469,979.958208469,979.958208469,979.958208469,979.958208469,981.9767460510002,981.9767460510002,981.9767460510002,981.9767460510002,,,,,,,,,,,,,,,,,,,,,,,,,,,,,,,,,,,,,,,08,006,2022-09-23_11h44.52.381,test2,2022.2.4,59.99366310929652,
0,0,0,0,71,0,71,0,981.9767460510002,981.9767460510002,981.9767460510002,981.9767460510002,981.9767460510002,981.9767460510002,981.9767460510002,1,-1,rojo,0,['N_B'],999.395380336,999.395380336,999.395380336,999.395380336,1001.4139577819997,1001.4139577819997,1001.4139577819997,1001.4139577819997,1001.4139577819997,1001.4139577819997,1001.4139577819997,1001.4139577819997,1003.4330578279996,1003.4330578279996,1003.4330578279996,1003.4330578279996,,,,,,,,,,,,,,,,,,,,,,,,,,,,,,,,,,,,,,,08,006,2022-09-23_11h44.52.381,test2,2022.2.4,59.99366310929652,
0,0,0,0,72,0,72,0,1003.4330578279996,1003.4330578279996,1003.4330578279996,1003.4330578279996,1003.4330578279996,1003.4330578279996,1003.4330578279996,1,1,azul,1,['N_B'],1004.9019148309999,1004.9019148309999,1004.9019148309999,1004.9019148309999,1006.921460126,1006.921460126,1006.921460126,1006.921460126,1006.921460126,1006.921460126,1006.921460126,1006.921460126,1008.9394672059998,1008.9394672059998,1008.9394672059998,1008.9394672059998,,,,,,,,,,,,,,,,,,,,,,,,,,,,,,,,,,,,,,,08,006,2022-09-23_11h44.52.381,test2,2022.2.4,59.99366310929652,
0,0,0,0,73,0,73,0,1008.9394672059998,1008.9394672059998,1008.9394672059998,1008.9394672059998,1008.9394672059998,1008.9394672059998,1008.9394672059998,-1,1,rojo,1,['N_B'],1010.6252202599999,1010.6252202599999,1010.6252202599999,1010.6252202599999,1012.6442221750003,1012.6442221750003,1012.6442221750003,1012.6442221750003,1012.6442221750003,1012.6442221750003,1012.6442221750003,1012.6442221750003,1014.6621649010003,1014.6621649010003,1014.6621649010003,1014.6621649010003,,,,,,,,,,,,,,,,,,,,,,,,,,,,,,,,,,,,,,,08,006,2022-09-23_11h44.52.381,test2,2022.2.4,59.99366310929652,
0,0,0,0,74,0,74,0,1014.6621649010003,1014.6621649010003,1014.6621649010003,1014.6621649010003,1014.6621649010003,1014.6621649010003,1014.6621649010003,1,-1,azul,1,['N_B'],1016.0804622719997,1016.0804622719997,1016.0804622719997,1016.0804622719997,1018.1002038879997,1018.1002038879997,1018.1002038879997,1018.1002038879997,1018.1002038879997,1018.1002038879997,1018.1002038879997,1018.1002038879997,1020.1180258269997,1020.1180258269997,1020.1180258269997,1020.1180258269997,,,,,,,,,,,,,,,,,,,,,,,,,,,,,,,,,,,,,,,08,006,2022-09-23_11h44.52.381,test2,2022.2.4,59.99366310929652,
0,0,0,0,75,0,75,0,1020.1180258269997,1020.1180258269997,1020.1180258269997,1020.1180258269997,1020.1180258269997,1020.1180258269997,1020.1180258269997,-1,1,rojo,1,['N_B'],1021.5702606699997,1021.5702606699997,1021.5702606699997,1021.5702606699997,1023.5902587070004,1023.5902587070004,1023.5902587070004,1023.5902587070004,1023.5902587070004,1023.5902587070004,1023.5902587070004,1023.5902587070004,1025.625229286,1025.625229286,1025.625229286,1025.625229286,,,,,,,,,,,,,,,,,,,,,,,,,,,,,,,,,,,,,,,08,006,2022-09-23_11h44.52.381,test2,2022.2.4,59.99366310929652,
0,0,0,0,76,0,76,0,1025.625229286,1025.625229286,1025.625229286,1025.625229286,1025.625229286,1025.625229286,1025.625229286,-1,1,rojo,1,['N_B'],1026.625512017,1026.625512017,1026.625512017,1026.625512017,1028.6451078250002,1028.6451078250002,1028.6451078250002,1028.6451078250002,1028.6451078250002,1028.6451078250002,1028.6451078250002,1028.6451078250002,1030.6644994010003,1030.6644994010003,1030.6644994010003,1030.6644994010003,,,,,,,,,,,,,,,,,,,,,,,,,,,,,,,,,,,,,,,08,006,2022-09-23_11h44.52.381,test2,2022.2.4,59.99366310929652,
0,0,0,0,77,0,77,0,1030.6644994010003,1030.6644994010003,1030.6644994010003,1030.6644994010003,1030.6644994010003,1030.6644994010003,1030.6644994010003,1,1,azul,1,['N_B'],1031.9147283840002,1031.9147283840002,1031.9147283840002,1031.9147283840002,1033.9349591070004,1033.9349591070004,1033.9349591070004,1033.9349591070004,1033.9349591070004,1033.9349591070004,1033.9349591070004,1033.9349591070004,1035.952473458,1035.952473458,1035.952473458,1035.952473458,,,,,,,,,,,,,,,,,,,,,,,,,,,,,,,,,,,,,,,08,006,2022-09-23_11h44.52.381,test2,2022.2.4,59.99366310929652,
0,0,0,0,78,0,78,0,1035.952473458,1035.952473458,1035.952473458,1035.952473458,1035.952473458,1035.952473458,1035.952473458,-1,1,rojo,1,['N_B'],1037.4043130660002,1037.4043130660002,1037.4043130660002,1037.4043130660002,1039.423808851,1039.423808851,1039.423808851,1039.423808851,1039.423808851,1039.423808851,1039.423808851,1039.423808851,1041.44162263,1041.44162263,1041.44162263,1041.44162263,,,,,,,,,,,,,,,,,,,,,,,,,,,,,,,,,,,,,,,08,006,2022-09-23_11h44.52.381,test2,2022.2.4,59.99366310929652,
0,0,0,0,79,0,79,0,1041.44162263,1041.44162263,1041.44162263,1041.44162263,1041.44162263,1041.44162263,1041.44162263,-1,1,rojo,1,['N_B'],1042.893370709,1042.893370709,1042.893370709,1042.893370709,1044.9130101090004,1044.9130101090004,1044.9130101090004,1044.9130101090004,1044.9130101090004,1044.9130101090004,1044.9130101090004,1044.9130101090004,1046.9310629370002,1046.9310629370002,1046.9310629370002,1046.9310629370002,,,,,,,,,,,,,,,,,,,,,,,,,,,,,,,,,,,,,,,08,006,2022-09-23_11h44.52.381,test2,2022.2.4,59.99366310929652,
0,0,0,0,80,0,80,0,1046.9310629370002,1046.9310629370002,1046.9310629370002,1046.9310629370002,1046.9310629370002,1046.9310629370002,1046.9310629370002,1,1,azul,1,['N_B'],1048.3492937419996,1048.3492937419996,1048.3492937419996,1048.3492937419996,1050.3691910059997,1050.3691910059997,1050.3691910059997,1050.3691910059997,1050.3691910059997,1050.3691910059997,1050.3691910059997,1050.3691910059997,1052.387539923,1052.387539923,1052.387539923,1052.387539923,,,,,,,,,,,,,,,,,,,,,,,,,,,,,,,,,,,,,,,08,006,2022-09-23_11h44.52.381,test2,2022.2.4,59.99366310929652,
0,0,0,0,81,0,81,0,1052.387539923,1052.387539923,1052.387539923,1052.387539923,1052.387539923,1052.387539923,1052.387539923,-1,1,rojo,1,['N_B'],1053.7551914510004,1053.7551914510004,1053.7551914510004,1053.7551914510004,1055.775695585,1055.775695585,1055.775695585,1055.775695585,1055.775695585,1055.775695585,1055.775695585,1055.775695585,1057.792823527,1057.792823527,1057.792823527,1057.792823527,,,,,,,,,,,,,,,,,,,,,,,,,,,,,,,,,,,,,,,08,006,2022-09-23_11h44.52.381,test2,2022.2.4,59.99366310929652,
0,0,0,0,82,0,82,0,1057.792823527,1057.792823527,1057.792823527,1057.792823527,1057.792823527,1057.792823527,1057.792823527,1,1,azul,1,['N_B'],1059.295323022,1059.295323022,1059.295323022,1059.295323022,1061.315263046,1061.315263046,1061.315263046,1061.315263046,1061.315263046,1061.315263046,1061.315263046,1061.315263046,1063.3324716500001,1063.3324716500001,1063.3324716500001,1063.3324716500001,,,,,,,,,,,,,,,,,,,,,,,,,,,,,,,,,,,,,,,08,006,2022-09-23_11h44.52.381,test2,2022.2.4,59.99366310929652,
0,0,0,0,83,0,83,0,1063.3324716500001,1063.3324716500001,1063.3324716500001,1063.3324716500001,1063.3324716500001,1063.3324716500001,1063.3324716500001,1,1,azul,1,['N_B'],1064.76846097,1064.76846097,1064.76846097,1064.76846097,1066.7872236390003,1066.7872236390003,1066.7872236390003,1066.7872236390003,1066.7872236390003,1066.7872236390003,1066.7872236390003,1066.7872236390003,1068.8050224420003,1068.8050224420003,1068.8050224420003,1068.8050224420003,,,,,,,,,,,,,,,,,,,,,,,,,,,,,,,,,,,,,,,08,006,2022-09-23_11h44.52.381,test2,2022.2.4,59.99366310929652,
0,0,0,0,84,0,84,0,1068.8050224420003,1068.8050224420003,1068.8050224420003,1068.8050224420003,1068.8050224420003,1068.8050224420003,1068.8050224420003,1,1,azul,1,['N_B'],1070.4237806909996,1070.4237806909996,1070.4237806909996,1070.4237806909996,1072.4435434879997,1072.4435434879997,1072.4435434879997,1072.4435434879997,1072.4435434879997,1072.4435434879997,1072.4435434879997,1072.4435434879997,1074.4615786000004,1074.4615786000004,1074.4615786000004,1074.4615786000004,,,,,,,,,,,,,,,,,,,,,,,,,,,,,,,,,,,,,,,08,006,2022-09-23_11h44.52.381,test2,2022.2.4,59.99366310929652,
0,0,0,0,85,0,85,0,1074.4615786000004,1074.4615786000004,1074.4615786000004,1074.4615786000004,1074.4615786000004,1074.4615786000004,1074.4615786000004,1,1,azul,1,['N_B'],1076.0966721799996,1076.0966721799996,1076.0966721799996,1076.0966721799996,1078.1163794029999,1078.1163794029999,1078.1163794029999,1078.1163794029999,1078.1163794029999,1078.1163794029999,1078.1163794029999,1078.1163794029999,1080.1344234930002,1080.1344234930002,1080.1344234930002,1080.1344234930002,,,,,,,,,,,,,,,,,,,,,,,,,,,,,,,,,,,,,,,08,006,2022-09-23_11h44.52.381,test2,2022.2.4,59.99366310929652,
0,0,0,0,86,0,86,0,1080.1344234930002,1080.1344234930002,1080.1344234930002,1080.1344234930002,1080.1344234930002,1080.1344234930002,1080.1344234930002,-1,-1,rojo,1,['N_B'],1081.552380188,1081.552380188,1081.552380188,1081.552380188,1083.5718762810002,1083.5718762810002,1083.5718762810002,1083.5718762810002,1083.5718762810002,1083.5718762810002,1083.5718762810002,1083.5718762810002,1085.590844282,1085.590844282,1085.590844282,1085.590844282,,,,,,,,,,,,,,,,,,,,,,,,,,,,,,,,,,,,,,,08,006,2022-09-23_11h44.52.381,test2,2022.2.4,59.99366310929652,
0,0,0,0,87,0,87,0,1085.590844282,1085.590844282,1085.590844282,1085.590844282,1085.590844282,1085.590844282,1085.590844282,1,1,azul,1,['N_B'],1087.1593563759998,1087.1593563759998,1087.1593563759998,1087.1593563759998,1089.1786856489998,1089.1786856489998,1089.1786856489998,1089.1786856489998,1089.1786856489998,1089.1786856489998,1089.1786856489998,1089.1786856489998,1091.1963931749997,1091.1963931749997,1091.1963931749997,1091.1963931749997,,,,,,,,,,,,,,,,,,,,,,,,,,,,,,,,,,,,,,,08,006,2022-09-23_11h44.52.381,test2,2022.2.4,59.99366310929652,
0,0,0,0,88,0,88,0,1091.1963931749997,1091.1963931749997,1091.1963931749997,1091.1963931749997,1091.1963931749997,1091.1963931749997,1091.1963931749997,1,1,azul,1,['N_B'],1097.804839374,1097.804839374,1097.804839374,1097.804839374,1099.8236910120004,1099.8236910120004,1099.8236910120004,1099.8236910120004,1099.8236910120004,1099.8236910120004,1099.8236910120004,1099.8236910120004,1101.8427216789996,1101.8427216789996,1101.8427216789996,1101.8427216789996,,,,,,,,,,,,,,,,,,,,,,,,,,,,,,,,,,,,,,,08,006,2022-09-23_11h44.52.381,test2,2022.2.4,59.99366310929652,
0,0,0,0,89,0,89,0,1101.8427216789996,1101.8427216789996,1101.8427216789996,1101.8427216789996,1101.8427216789996,1101.8427216789996,1101.8427216789996,1,1,azul,1,['N_B'],1103.643473139,1103.643473139,1103.643473139,1103.643473139,1105.663066903,1105.663066903,1105.663066903,1105.663066903,1105.663066903,1105.663066903,1105.663066903,1105.663066903,1107.6821301419996,1107.6821301419996,1107.6821301419996,1107.6821301419996,,,,,,,,,,,,,,,,,,,,,,,,,,,,,,,,,,,,,,,08,006,2022-09-23_11h44.52.381,test2,2022.2.4,59.99366310929652,
0,0,0,0,90,0,90,0,1107.6821301419996,1107.6821301419996,1107.6821301419996,1107.6821301419996,1107.6821301419996,1107.6821301419996,1107.6821301419996,-1,-1,rojo,1,['N_B'],1109.1669747380001,1109.1669747380001,1109.1669747380001,1109.1669747380001,1111.1852365900004,1111.1852365900004,1111.1852365900004,1111.1852365900004,1111.1852365900004,1111.1852365900004,1111.1852365900004,1111.1852365900004,1113.2048727539996,1113.2048727539996,1113.2048727539996,1113.2048727539996,,,,,,,,,,,,,,,,,,,,,,,,,,,,,,,,,,,,,,,08,006,2022-09-23_11h44.52.381,test2,2022.2.4,59.99366310929652,
0,0,0,0,91,0,91,0,1113.2048727539996,1113.2048727539996,1113.2048727539996,1113.2048727539996,1113.2048727539996,1113.2048727539996,1113.2048727539996,1,1,azul,1,['N_B'],1114.840075731,1114.840075731,1114.840075731,1114.840075731,1116.8593949409997,1116.8593949409997,1116.8593949409997,1116.8593949409997,1116.8593949409997,1116.8593949409997,1116.8593949409997,1116.8593949409997,1118.8772938800003,1118.8772938800003,1118.8772938800003,1118.8772938800003,,,,,,,,,,,,,,,,,,,,,,,,,,,,,,,,,,,,,,,08,006,2022-09-23_11h44.52.381,test2,2022.2.4,59.99366310929652,
0,0,0,0,92,0,92,0,1118.8772938800003,1118.8772938800003,1118.8772938800003,1118.8772938800003,1118.8772938800003,1118.8772938800003,1118.8772938800003,1,1,azul,1,['N_B'],1120.4125492499998,1120.4125492499998,1120.4125492499998,1120.4125492499998,1122.4321313339997,1122.4321313339997,1122.4321313339997,1122.4321313339997,1122.4321313339997,1122.4321313339997,1122.4321313339997,1122.4321313339997,1124.4508353299998,1124.4508353299998,1124.4508353299998,1124.4508353299998,,,,,,,,,,,,,,,,,,,,,,,,,,,,,,,,,,,,,,,08,006,2022-09-23_11h44.52.381,test2,2022.2.4,59.99366310929652,
0,0,0,0,93,0,93,0,1124.4508353299998,1124.4508353299998,1124.4508353299998,1124.4508353299998,1124.4508353299998,1124.4508353299998,1124.4508353299998,1,1,azul,1,['N_B'],1125.902311074,1125.902311074,1125.902311074,1125.902311074,1127.9210545100004,1127.9210545100004,1127.9210545100004,1127.9210545100004,1127.9210545100004,1127.9210545100004,1127.9210545100004,1127.9210545100004,1129.9397176350003,1129.9397176350003,1129.9397176350003,1129.9397176350003,,,,,,,,,,,,,,,,,,,,,,,,,,,,,,,,,,,,,,,08,006,2022-09-23_11h44.52.381,test2,2022.2.4,59.99366310929652,
0,0,0,0,94,0,94,0,1129.9397176350003,1129.9397176350003,1129.9397176350003,1129.9397176350003,1129.9397176350003,1129.9397176350003,1129.9397176350003,1,1,azul,1,['N_B'],1132.459437693,1132.459437693,1132.459437693,1132.459437693,1134.4784649619996,1134.4784649619996,1134.4784649619996,1134.4784649619996,1134.4784649619996,1134.4784649619996,1134.4784649619996,1134.4784649619996,1136.4970675610002,1136.4970675610002,1136.4970675610002,1136.4970675610002,,,,,,,,,,,,,,,,,,,,,,,,,,,,,,,,,,,,,,,08,006,2022-09-23_11h44.52.381,test2,2022.2.4,59.99366310929652,
0,0,0,0,95,0,95,0,1136.4970675610002,1136.4970675610002,1136.4970675610002,1136.4970675610002,1136.4970675610002,1136.4970675610002,1136.4970675610002,1,1,azul,1,['N_B'],1138.1823581509998,1138.1823581509998,1138.1823581509998,1138.1823581509998,1140.2014634030002,1140.2014634030002,1140.2014634030002,1140.2014634030002,1140.2014634030002,1140.2014634030002,1140.2014634030002,1140.2014634030002,1142.2210283229997,1142.2210283229997,1142.2210283229997,1142.2210283229997,,,,,,,,,,,,,,,,,,,,,,,,,,,,,,,,,,,,,,,08,006,2022-09-23_11h44.52.381,test2,2022.2.4,59.99366310929652,
0,0,0,0,96,0,96,0,1142.2210283229997,1142.2210283229997,1142.2210283229997,1142.2210283229997,1142.2210283229997,1142.2210283229997,1142.2210283229997,-1,1,rojo,1,['N_B'],1143.7711962330004,1143.7711962330004,1143.7711962330004,1143.7711962330004,1145.7907793160002,1145.7907793160002,1145.7907793160002,1145.7907793160002,1145.7907793160002,1145.7907793160002,1145.7907793160002,1145.7907793160002,1147.809945125,1147.809945125,1147.809945125,1147.809945125,,,,,,,,,,,,,,,,,,,,,,,,,,,,,,,,,,,,,,,08,006,2022-09-23_11h44.52.381,test2,2022.2.4,59.99366310929652,
0,0,0,0,97,0,97,0,1147.809945125,1147.809945125,1147.809945125,1147.809945125,1147.809945125,1147.809945125,1147.809945125,1,1,azul,1,['N_B'],1149.7781034099999,1149.7781034099999,1149.7781034099999,1149.7781034099999,1151.798092088,1151.798092088,1151.798092088,1151.798092088,1151.798092088,1151.798092088,1151.798092088,1151.798092088,1153.8161803080002,1153.8161803080002,1153.8161803080002,1153.8161803080002,,,,,,,,,,,,,,,,,,,,,,,,,,,,,,,,,,,,,,,08,006,2022-09-23_11h44.52.381,test2,2022.2.4,59.99366310929652,
0,0,0,0,98,0,98,0,1153.8161803080002,1153.8161803080002,1153.8161803080002,1153.8161803080002,1153.8161803080002,1153.8161803080002,1153.8161803080002,-1,1,rojo,1,['N_B'],1155.2512714289996,1155.2512714289996,1155.2512714289996,1155.2512714289996,1157.2701986129996,1157.2701986129996,1157.2701986129996,1157.2701986129996,1157.2701986129996,1157.2701986129996,1157.2701986129996,1157.2701986129996,1159.288368036,1159.288368036,1159.288368036,1159.288368036,,,,,,,,,,,,,,,,,,,,,,,,,,,,,,,,,,,,,,,08,006,2022-09-23_11h44.52.381,test2,2022.2.4,59.99366310929652,
0,0,0,0,99,0,99,0,1159.288368036,1159.288368036,1159.288368036,1159.288368036,1159.288368036,1159.288368036,1159.288368036,1,1,azul,1,['N_B'],1161.241304573,1161.241304573,1161.241304573,1161.241304573,1163.261015135,1163.261015135,1163.261015135,1163.261015135,1163.261015135,1163.261015135,1163.261015135,1163.261015135,1165.2786022110004,1165.2786022110004,1165.2786022110004,1165.2786022110004,,,,,,,,,,,,,,,,,,,,,,,,,,,,,,,,,,,,,,,08,006,2022-09-23_11h44.52.381,test2,2022.2.4,59.99366310929652,
0,0,0,0,100,0,100,0,1165.2786022110004,1165.2786022110004,1165.2786022110004,1165.2786022110004,1165.2786022110004,1165.2786022110004,1165.2786022110004,-1,1,rojo,1,['N_B'],1166.6969409109997,1166.6969409109997,1166.6969409109997,1166.6969409109997,1168.7164557879996,1168.7164557879996,1168.7164557879996,1168.7164557879996,1168.7164557879996,1168.7164557879996,1168.7164557879996,1168.7164557879996,1170.7348707580004,1170.7348707580004,1170.7348707580004,1170.7348707580004,,,,,,,,,,,,,,,,,,,,,,,,,,,,,,,,,,,,,,,08,006,2022-09-23_11h44.52.381,test2,2022.2.4,59.99366310929652,
0,0,0,0,101,0,101,0,1170.7348707580004,1170.7348707580004,1170.7348707580004,1170.7348707580004,1170.7348707580004,1170.7348707580004,1170.7348707580004,-1,1,rojo,1,['N_B'],1171.8522329650004,1171.8522329650004,1171.8522329650004,1171.8522329650004,1173.8720555279997,1173.8720555279997,1173.8720555279997,1173.8720555279997,1173.8720555279997,1173.8720555279997,1173.8720555279997,1173.8720555279997,1175.9071639200001,1175.9071639200001,1175.9071639200001,1175.9071639200001,,,,,,,,,,,,,,,,,,,,,,,,,,,,,,,,,,,,,,,08,006,2022-09-23_11h44.52.381,test2,2022.2.4,59.99366310929652,
0,0,0,0,102,0,102,0,1175.9071639200001,1175.9071639200001,1175.9071639200001,1175.9071639200001,1175.9071639200001,1175.9071639200001,1175.9071639200001,1,1,azul,1,['N_B'],1176.9079256590003,1176.9079256590003,1176.9079256590003,1176.9079256590003,1178.9275237900001,1178.9275237900001,1178.9275237900001,1178.9275237900001,1178.9275237900001,1178.9275237900001,1178.9275237900001,1178.9275237900001,1180.946377458,1180.946377458,1180.946377458,1180.946377458,,,,,,,,,,,,,,,,,,,,,,,,,,,,,,,,,,,,,,,08,006,2022-09-23_11h44.52.381,test2,2022.2.4,59.99366310929652,
0,0,0,0,103,0,103,0,1180.946377458,1180.946377458,1180.946377458,1180.946377458,1180.946377458,1180.946377458,1180.946377458,-1,1,rojo,1,['N_B'],1181.9964979400002,1181.9964979400002,1181.9964979400002,1181.9964979400002,1184.0165958549997,1184.0165958549997,1184.0165958549997,1184.0165958549997,1184.0165958549997,1184.0165958549997,1184.0165958549997,1184.0165958549997,1186.0350451160002,1186.0350451160002,1186.0350451160002,1186.0350451160002,,,,,,,,,,,,,,,,,,,,,,,,,,,,,,,,,,,,,,,08,006,2022-09-23_11h44.52.381,test2,2022.2.4,59.99366310929652,
0,0,0,0,104,0,104,0,1186.0350451160002,1186.0350451160002,1186.0350451160002,1186.0350451160002,1186.0350451160002,1186.0350451160002,1186.0350451160002,1,1,azul,1,['N_B'],1187.4363184390004,1187.4363184390004,1187.4363184390004,1187.4363184390004,1189.4561644140003,1189.4561644140003,1189.4561644140003,1189.4561644140003,1189.4561644140003,1189.4561644140003,1189.4561644140003,1189.4561644140003,1191.4742302980003,1191.4742302980003,1191.4742302980003,1191.4742302980003,,,,,,,,,,,,,,,,,,,,,,,,,,,,,,,,,,,,,,,08,006,2022-09-23_11h44.52.381,test2,2022.2.4,59.99366310929652,
0,0,0,0,105,0,105,0,1191.4742302980003,1191.4742302980003,1191.4742302980003,1191.4742302980003,1191.4742302980003,1191.4742302980003,1191.4742302980003,-1,1,rojo,1,['N_B'],1192.9256049750002,1192.9256049750002,1192.9256049750002,1192.9256049750002,1194.945450495,1194.945450495,1194.945450495,1194.945450495,1194.945450495,1194.945450495,1194.945450495,1194.945450495,1196.964286597,1196.964286597,1196.964286597,1196.964286597,,,,,,,,,,,,,,,,,,,,,,,,,,,,,,,,,,,,,,,08,006,2022-09-23_11h44.52.381,test2,2022.2.4,59.99366310929652,
0,0,0,0,106,0,106,0,1196.964286597,1196.964286597,1196.964286597,1196.964286597,1196.964286597,1196.964286597,1196.964286597,1,1,azul,1,['N_B'],1198.5323440470002,1198.5323440470002,1198.5323440470002,1198.5323440470002,1200.551574442,1200.551574442,1200.551574442,1200.551574442,1200.551574442,1200.551574442,1200.551574442,1200.551574442,1202.5691887980001,1202.5691887980001,1202.5691887980001,1202.5691887980001,,,,,,,,,,,,,,,,,,,,,,,,,,,,,,,,,,,,,,,08,006,2022-09-23_11h44.52.381,test2,2022.2.4,59.99366310929652,
0,0,0,0,107,0,107,0,1202.5691887980001,1202.5691887980001,1202.5691887980001,1202.5691887980001,1202.5691887980001,1202.5691887980001,1202.5691887980001,-1,1,rojo,1,['N_B'],1204.0210005540002,1204.0210005540002,1204.0210005540002,1204.0210005540002,1206.0411139970001,1206.0411139970001,1206.0411139970001,1206.0411139970001,1206.0411139970001,1206.0411139970001,1206.0411139970001,1206.0411139970001,1208.0586630810003,1208.0586630810003,1208.0586630810003,1208.0586630810003,,,,,,,,,,,,,,,,,,,,,,,,,,,,,,,,,,,,,,,08,006,2022-09-23_11h44.52.381,test2,2022.2.4,59.99366310929652,
0,0,0,0,108,0,108,0,1208.0586630810003,1208.0586630810003,1208.0586630810003,1208.0586630810003,1208.0586630810003,1208.0586630810003,1208.0586630810003,1,1,azul,1,['N_B'],1209.2599703360002,1209.2599703360002,1209.2599703360002,1209.2599703360002,1211.2800279009998,1211.2800279009998,1211.2800279009998,1211.2800279009998,1211.2800279009998,1211.2800279009998,1211.2800279009998,1211.2800279009998,1213.297734449,1213.297734449,1213.297734449,1213.297734449,,,,,,,,,,,,,,,,,,,,,,,,,,,,,,,,,,,,,,,08,006,2022-09-23_11h44.52.381,test2,2022.2.4,59.99366310929652,
0,0,0,0,109,0,109,0,1213.297734449,1213.297734449,1213.297734449,1213.297734449,1213.297734449,1213.297734449,1213.297734449,1,1,azul,1,['N_B'],1215.0498344050002,1215.0498344050002,1215.0498344050002,1215.0498344050002,1217.0702876679998,1217.0702876679998,1217.0702876679998,1217.0702876679998,1217.0702876679998,1217.0702876679998,1217.0702876679998,1217.0702876679998,1219.0880911530003,1219.0880911530003,1219.0880911530003,1219.0880911530003,,,,,,,,,,,,,,,,,,,,,,,,,,,,,,,,,,,,,,,08,006,2022-09-23_11h44.52.381,test2,2022.2.4,59.99366310929652,
0,0,0,0,110,0,110,0,1219.0880911530003,1219.0880911530003,1219.0880911530003,1219.0880911530003,1219.0880911530003,1219.0880911530003,1219.0880911530003,-1,-1,rojo,1,['N_B'],1220.456874824,1220.456874824,1220.456874824,1220.456874824,1222.4748096249996,1222.4748096249996,1222.4748096249996,1222.4748096249996,1222.4748096249996,1222.4748096249996,1222.4748096249996,1222.4748096249996,1224.4953097480002,1224.4953097480002,1224.4953097480002,1224.4953097480002,,,,,,,,,,,,,,,,,,,,,,,,,,,,,,,,,,,,,,,08,006,2022-09-23_11h44.52.381,test2,2022.2.4,59.99366310929652,
0,0,0,0,111,0,111,0,1224.4953097480002,1224.4953097480002,1224.4953097480002,1224.4953097480002,1224.4953097480002,1224.4953097480002,1224.4953097480002,-1,1,rojo,1,['N_B'],1225.861701363,1225.861701363,1225.861701363,1225.861701363,1227.881426645,1227.881426645,1227.881426645,1227.881426645,1227.881426645,1227.881426645,1227.881426645,1227.881426645,1229.9001774130002,1229.9001774130002,1229.9001774130002,1229.9001774130002,,,,,,,,,,,,,,,,,,,,,,,,,,,,,,,,,,,,,,,08,006,2022-09-23_11h44.52.381,test2,2022.2.4,59.99366310929652,
0,0,0,0,112,0,112,0,1229.9001774130002,1229.9001774130002,1229.9001774130002,1229.9001774130002,1229.9001774130002,1229.9001774130002,1229.9001774130002,1,1,azul,1,['N_B'],1231.2853346579996,1231.2853346579996,1231.2853346579996,1231.2853346579996,1233.3044113220003,1233.3044113220003,1233.3044113220003,1233.3044113220003,1233.3044113220003,1233.3044113220003,1233.3044113220003,1233.3044113220003,1235.3225311389997,1235.3225311389997,1235.3225311389997,1235.3225311389997,,,,,,,,,,,,,,,,,,,,,,,,,,,,,,,,,,,,,,,08,006,2022-09-23_11h44.52.381,test2,2022.2.4,59.99366310929652,
0,0,0,0,113,0,113,0,1235.3225311389997,1235.3225311389997,1235.3225311389997,1235.3225311389997,1235.3225311389997,1235.3225311389997,1235.3225311389997,1,1,azul,1,['N_B'],1237.1093042720004,1237.1093042720004,1237.1093042720004,1237.1093042720004,1239.1274306630003,1239.1274306630003,1239.1274306630003,1239.1274306630003,1239.1274306630003,1239.1274306630003,1239.1274306630003,1239.1274306630003,1241.145274476,1241.145274476,1241.145274476,1241.145274476,,,,,,,,,,,,,,,,,,,,,,,,,,,,,,,,,,,,,,,08,006,2022-09-23_11h44.52.381,test2,2022.2.4,59.99366310929652,
0,0,0,0,114,0,114,0,1241.145274476,1241.145274476,1241.145274476,1241.145274476,1241.145274476,1241.145274476,1241.145274476,-1,1,rojo,1,['N_B'],1242.546980952,1242.546980952,1242.546980952,1242.546980952,1244.5669959400002,1244.5669959400002,1244.5669959400002,1244.5669959400002,1244.5669959400002,1244.5669959400002,1244.5669959400002,1244.5669959400002,1246.5855424069996,1246.5855424069996,1246.5855424069996,1246.5855424069996,,,,,,,,,,,,,,,,,,,,,,,,,,,,,,,,,,,,,,,08,006,2022-09-23_11h44.52.381,test2,2022.2.4,59.99366310929652,
0,0,0,0,115,0,115,0,1246.5855424069996,1246.5855424069996,1246.5855424069996,1246.5855424069996,1246.5855424069996,1246.5855424069996,1246.5855424069996,1,1,azul,1,['N_B'],1248.0534092629996,1248.0534092629996,1248.0534092629996,1248.0534092629996,1250.0729802200003,1250.0729802200003,1250.0729802200003,1250.0729802200003,1250.0729802200003,1250.0729802200003,1250.0729802200003,1250.0729802200003,1252.0911295810001,1252.0911295810001,1252.0911295810001,1252.0911295810001,,,,,,,,,,,,,,,,,,,,,,,,,,,,,,,,,,,,,,,08,006,2022-09-23_11h44.52.381,test2,2022.2.4,59.99366310929652,
0,0,0,0,116,0,116,0,1252.0911295810001,1252.0911295810001,1252.0911295810001,1252.0911295810001,1252.0911295810001,1252.0911295810001,1252.0911295810001,1,1,azul,1,['N_B'],1253.8098880099997,1253.8098880099997,1253.8098880099997,1253.8098880099997,1255.829432636,1255.829432636,1255.829432636,1255.829432636,1255.829432636,1255.829432636,1255.829432636,1255.829432636,1257.8482982340001,1257.8482982340001,1257.8482982340001,1257.8482982340001,,,,,,,,,,,,,,,,,,,,,,,,,,,,,,,,,,,,,,,08,006,2022-09-23_11h44.52.381,test2,2022.2.4,59.99366310929652,
0,0,0,0,117,0,117,0,1257.8482982340001,1257.8482982340001,1257.8482982340001,1257.8482982340001,1257.8482982340001,1257.8482982340001,1257.8482982340001,-1,1,rojo,1,['N_B'],1259.3157606120003,1259.3157606120003,1259.3157606120003,1259.3157606120003,1261.3354041379998,1261.3354041379998,1261.3354041379998,1261.3354041379998,1261.3354041379998,1261.3354041379998,1261.3354041379998,1261.3354041379998,1263.3531367590003,1263.3531367590003,1263.3531367590003,1263.3531367590003,,,,,,,,,,,,,,,,,,,,,,,,,,,,,,,,,,,,,,,08,006,2022-09-23_11h44.52.381,test2,2022.2.4,59.99366310929652,
0,0,0,0,118,0,118,0,1263.3531367590003,1263.3531367590003,1263.3531367590003,1263.3531367590003,1263.3531367590003,1263.3531367590003,1263.3531367590003,1,1,azul,1,['N_B'],1265.0724207049998,1265.0724207049998,1265.0724207049998,1265.0724207049998,1267.0912828310002,1267.0912828310002,1267.0912828310002,1267.0912828310002,1267.0912828310002,1267.0912828310002,1267.0912828310002,1267.0912828310002,1269.1101049210001,1269.1101049210001,1269.1101049210001,1269.1101049210001,,,,,,,,,,,,,,,,,,,,,,,,,,,,,,,,,,,,,,,08,006,2022-09-23_11h44.52.381,test2,2022.2.4,59.99366310929652,
0,0,0,0,119,0,119,0,1269.1101049210001,1269.1101049210001,1269.1101049210001,1269.1101049210001,1269.1101049210001,1269.1101049210001,1269.1101049210001,-1,-1,rojo,1,['N_B'],1270.9113565879998,1270.9113565879998,1270.9113565879998,1270.9113565879998,1272.9311679470002,1272.9311679470002,1272.9311679470002,1272.9311679470002,1272.9311679470002,1272.9311679470002,1272.9311679470002,1272.9311679470002,1274.9498815879997,1274.9498815879997,1274.9498815879997,1274.9498815879997,,,,,,,,,,,,,,,,,,,,,,,,,,,,,,,,,,,,,,,08,006,2022-09-23_11h44.52.381,test2,2022.2.4,59.99366310929652,
0,0,0,0,120,0,120,0,1274.9498815879997,1274.9498815879997,1274.9498815879997,1274.9498815879997,1274.9498815879997,1274.9498815879997,1274.9498815879997,1,1,azul,1,['N_B'],1276.4175303949996,1276.4175303949996,1276.4175303949996,1276.4175303949996,1278.4383771869998,1278.4383771869998,1278.4383771869998,1278.4383771869998,1278.4383771869998,1278.4383771869998,1278.4383771869998,1278.4383771869998,1280.4561077629996,1280.4561077629996,1280.4561077629996,1280.4561077629996,,,,,,,,,,,,,,,,,,,,,,,,,,,,,,,,,,,,,,,08,006,2022-09-23_11h44.52.381,test2,2022.2.4,59.99366310929652,
0,0,0,0,121,0,121,0,1280.4561077629996,1280.4561077629996,1280.4561077629996,1280.4561077629996,1280.4561077629996,1280.4561077629996,1280.4561077629996,1,1,azul,1,['N_B'],1282.0577878129998,1282.0577878129998,1282.0577878129998,1282.0577878129998,1284.0767242820002,1284.0767242820002,1284.0767242820002,1284.0767242820002,1284.0767242820002,1284.0767242820002,1284.0767242820002,1284.0767242820002,1286.0950013419997,1286.0950013419997,1286.0950013419997,1286.0950013419997,,,,,,,,,,,,,,,,,,,,,,,,,,,,,,,,,,,,,,,08,006,2022-09-23_11h44.52.381,test2,2022.2.4,59.99366310929652,
0,0,0,0,122,0,122,0,1286.0950013419997,1286.0950013419997,1286.0950013419997,1286.0950013419997,1286.0950013419997,1286.0950013419997,1286.0950013419997,-1,-1,rojo,1,['N_B'],1287.4630781819997,1287.4630781819997,1287.4630781819997,1287.4630781819997,1289.4826158899996,1289.4826158899996,1289.4826158899996,1289.4826158899996,1289.4826158899996,1289.4826158899996,1289.4826158899996,1289.4826158899996,1291.50210015,1291.50210015,1291.50210015,1291.50210015,,,,,,,,,,,,,,,,,,,,,,,,,,,,,,,,,,,,,,,08,006,2022-09-23_11h44.52.381,test2,2022.2.4,59.99366310929652,
0,0,0,0,123,0,123,0,1291.50210015,1291.50210015,1291.50210015,1291.50210015,1291.50210015,1291.50210015,1291.50210015,1,1,azul,1,['N_B'],1293.8540594799997,1293.8540594799997,1293.8540594799997,1293.8540594799997,1295.8728456159997,1295.8728456159997,1295.8728456159997,1295.8728456159997,1295.8728456159997,1295.8728456159997,1295.8728456159997,1295.8728456159997,1297.8923583630003,1297.8923583630003,1297.8923583630003,1297.8923583630003,,,,,,,,,,,,,,,,,,,,,,,,,,,,,,,,,,,,,,,08,006,2022-09-23_11h44.52.381,test2,2022.2.4,59.99366310929652,
0,0,0,0,124,0,124,0,1297.8923583630003,1297.8923583630003,1297.8923583630003,1297.8923583630003,1297.8923583630003,1297.8923583630003,1297.8923583630003,-1,-1,rojo,1,['N_B'],1299.5599152410005,1299.5599152410005,1299.5599152410005,1299.5599152410005,1301.5966473039998,1301.5966473039998,1301.5966473039998,1301.5966473039998,1301.5966473039998,1301.5966473039998,1301.5966473039998,1301.5966473039998,1303.6144832050004,1303.6144832050004,1303.6144832050004,1303.6144832050004,,,,,,,,,,,,,,,,,,,,,,,,,,,,,,,,,,,,,,,08,006,2022-09-23_11h44.52.381,test2,2022.2.4,59.99366310929652,
0,0,0,0,125,0,125,0,1303.6144832050004,1303.6144832050004,1303.6144832050004,1303.6144832050004,1303.6144832050004,1303.6144832050004,1303.6144832050004,-1,-1,rojo,0,['N_A'],1305.633353833,1305.633353833,1305.633353833,1305.633353833,1307.669534828,1307.669534828,1307.669534828,1307.669534828,1307.669534828,1307.669534828,1307.669534828,1307.669534828,1309.6881586509999,1309.6881586509999,1309.6881586509999,1309.6881586509999,,,,,,,,,,,,,,,,,,,,,,,,,,,,,,,,,,,,,,,08,006,2022-09-23_11h44.52.381,test2,2022.2.4,59.99366310929652,
0,0,0,0,126,0,126,0,1309.6881586509999,1309.6881586509999,1309.6881586509999,1309.6881586509999,1309.6881586509999,1309.6881586509999,1309.6881586509999,-1,-1,azul,0,['N_B'],1316.2783100509996,1316.2783100509996,1316.2783100509996,1316.2783100509996,1318.2971485899998,1318.2971485899998,1318.2971485899998,1318.2971485899998,1318.2971485899998,1318.2971485899998,1318.2971485899998,1318.2971485899998,1320.3166232539998,1320.3166232539998,1320.3166232539998,1320.3166232539998,,,,,,,,,,,,,,,,,,,,,,,,,,,,,,,,,,,,,,,08,006,2022-09-23_11h44.52.381,test2,2022.2.4,59.99366310929652,
0,0,0,0,127,0,127,0,1320.3166232539998,1320.3166232539998,1320.3166232539998,1320.3166232539998,1320.3166232539998,1320.3166232539998,1320.3166232539998,1,1,azul,1,['N_B'],1322.2180360900002,1322.2180360900002,1322.2180360900002,1322.2180360900002,1324.2370660369997,1324.2370660369997,1324.2370660369997,1324.2370660369997,1324.2370660369997,1324.2370660369997,1324.2370660369997,1324.2370660369997,1326.2567191560001,1326.2567191560001,1326.2567191560001,1326.2567191560001,,,,,,,,,,,,,,,,,,,,,,,,,,,,,,,,,,,,,,,08,006,2022-09-23_11h44.52.381,test2,2022.2.4,59.99366310929652,
0,0,0,0,128,0,128,0,1326.2567191560001,1326.2567191560001,1326.2567191560001,1326.2567191560001,1326.2567191560001,1326.2567191560001,1326.2567191560001,1,1,azul,1,['N_B'],1329.1760406559997,1329.1760406559997,1329.1760406559997,1329.1760406559997,1331.1950835059997,1331.1950835059997,1331.1950835059997,1331.1950835059997,1331.1950835059997,1331.1950835059997,1331.1950835059997,1331.1950835059997,1333.213772481,1333.213772481,1333.213772481,1333.213772481,,,,,,,,,,,,,,,,,,,,,,,,,,,,,,,,,,,,,,,08,006,2022-09-23_11h44.52.381,test2,2022.2.4,59.99366310929652,
0,0,0,0,129,0,129,0,1333.213772481,1333.213772481,1333.213772481,1333.213772481,1333.213772481,1333.213772481,1333.213772481,1,1,azul,1,['N_B'],1334.681849699,1334.681849699,1334.681849699,1334.681849699,1336.7010412999998,1336.7010412999998,1336.7010412999998,1336.7010412999998,1336.7010412999998,1336.7010412999998,1336.7010412999998,1336.7010412999998,1338.7208166689998,1338.7208166689998,1338.7208166689998,1338.7208166689998,,,,,,,,,,,,,,,,,,,,,,,,,,,,,,,,,,,,,,,08,006,2022-09-23_11h44.52.381,test2,2022.2.4,59.99366310929652,
0,0,0,0,130,0,130,0,1338.7208166689998,1338.7208166689998,1338.7208166689998,1338.7208166689998,1338.7208166689998,1338.7208166689998,1338.7208166689998,1,1,azul,1,['N_B'],1340.2549278099996,1340.2549278099996,1340.2549278099996,1340.2549278099996,1342.2751994259997,1342.2751994259997,1342.2751994259997,1342.2751994259997,1342.2751994259997,1342.2751994259997,1342.2751994259997,1342.2751994259997,1344.292551605,1344.292551605,1344.292551605,1344.292551605,,,,,,,,,,,,,,,,,,,,,,,,,,,,,,,,,,,,,,,08,006,2022-09-23_11h44.52.381,test2,2022.2.4,59.99366310929652,
0,0,0,0,131,0,131,0,1344.292551605,1344.292551605,1344.292551605,1344.292551605,1344.292551605,1344.292551605,1344.292551605,1,1,azul,1,['N_B'],1346.9958679760002,1346.9958679760002,1346.9958679760002,1346.9958679760002,1349.0144873930003,1349.0144873930003,1349.0144873930003,1349.0144873930003,1349.0144873930003,1349.0144873930003,1349.0144873930003,1349.0144873930003,1351.033129466,1351.033129466,1351.033129466,1351.033129466,,,,,,,,,,,,,,,,,,,,,,,,,,,,,,,,,,,,,,,08,006,2022-09-23_11h44.52.381,test2,2022.2.4,59.99366310929652,
0,0,0,0,132,0,132,0,1351.033129466,1351.033129466,1351.033129466,1351.033129466,1351.033129466,1351.033129466,1351.033129466,-1,1,rojo,1,['N_B'],1353.1027229580004,1353.1027229580004,1353.1027229580004,1353.1027229580004,1355.1222901809997,1355.1222901809997,1355.1222901809997,1355.1222901809997,1355.1222901809997,1355.1222901809997,1355.1222901809997,1355.1222901809997,1357.1402422649999,1357.1402422649999,1357.1402422649999,1357.1402422649999,,,,,,,,,,,,,,,,,,,,,,,,,,,,,,,,,,,,,,,08,006,2022-09-23_11h44.52.381,test2,2022.2.4,59.99366310929652,
0,0,0,0,133,0,133,0,1357.1402422649999,1357.1402422649999,1357.1402422649999,1357.1402422649999,1357.1402422649999,1357.1402422649999,1357.1402422649999,1,1,azul,1,['N_B'],1358.7249505529999,1358.7249505529999,1358.7249505529999,1358.7249505529999,1360.7453388909998,1360.7453388909998,1360.7453388909998,1360.7453388909998,1360.7453388909998,1360.7453388909998,1360.7453388909998,1360.7453388909998,1362.7629662549998,1362.7629662549998,1362.7629662549998,1362.7629662549998,,,,,,,,,,,,,,,,,,,,,,,,,,,,,,,,,,,,,,,08,006,2022-09-23_11h44.52.381,test2,2022.2.4,59.99366310929652,
0,0,0,0,134,0,134,0,1362.7629662549998,1362.7629662549998,1362.7629662549998,1362.7629662549998,1362.7629662549998,1362.7629662549998,1362.7629662549998,1,1,azul,1,['N_B'],1364.6985079229999,1364.6985079229999,1364.6985079229999,1364.6985079229999,1366.7170965300002,1366.7170965300002,1366.7170965300002,1366.7170965300002,1366.7170965300002,1366.7170965300002,1366.7170965300002,1366.7170965300002,1368.7370909499996,1368.7370909499996,1368.7370909499996,1368.7370909499996,,,,,,,,,,,,,,,,,,,,,,,,,,,,,,,,,,,,,,,08,006,2022-09-23_11h44.52.381,test2,2022.2.4,59.99366310929652,
0,0,0,0,135,0,135,0,1368.7370909499996,1368.7370909499996,1368.7370909499996,1368.7370909499996,1368.7370909499996,1368.7370909499996,1368.7370909499996,1,1,azul,1,['N_B'],1370.806277916,1370.806277916,1370.806277916,1370.806277916,1372.82513097,1372.82513097,1372.82513097,1372.82513097,1372.82513097,1372.82513097,1372.82513097,1372.82513097,1374.8437135699996,1374.8437135699996,1374.8437135699996,1374.8437135699996,,,,,,,,,,,,,,,,,,,,,,,,,,,,,,,,,,,,,,,08,006,2022-09-23_11h44.52.381,test2,2022.2.4,59.99366310929652,
0,0,0,0,136,0,136,0,1374.8437135699996,1374.8437135699996,1374.8437135699996,1374.8437135699996,1374.8437135699996,1374.8437135699996,1374.8437135699996,1,1,azul,1,['N_B'],1376.6283832569998,1376.6283832569998,1376.6283832569998,1376.6283832569998,1378.6479102209996,1378.6479102209996,1378.6479102209996,1378.6479102209996,1378.6479102209996,1378.6479102209996,1378.6479102209996,1378.6479102209996,1380.667210566,1380.667210566,1380.667210566,1380.667210566,,,,,,,,,,,,,,,,,,,,,,,,,,,,,,,,,,,,,,,08,006,2022-09-23_11h44.52.381,test2,2022.2.4,59.99366310929652,
0,0,0,0,137,0,137,0,1380.667210566,1380.667210566,1380.667210566,1380.667210566,1380.667210566,1380.667210566,1380.667210566,1,1,azul,1,['N_B'],1382.13474331,1382.13474331,1382.13474331,1382.13474331,1384.15423199,1384.15423199,1384.15423199,1384.15423199,1384.15423199,1384.15423199,1384.15423199,1384.15423199,1386.1722639480004,1386.1722639480004,1386.1722639480004,1386.1722639480004,,,,,,,,,,,,,,,,,,,,,,,,,,,,,,,,,,,,,,,08,006,2022-09-23_11h44.52.381,test2,2022.2.4,59.99366310929652,
0,0,0,0,138,0,138,0,1386.1722639480004,1386.1722639480004,1386.1722639480004,1386.1722639480004,1386.1722639480004,1386.1722639480004,1386.1722639480004,-1,1,rojo,1,['N_B'],1387.6910872990002,1387.6910872990002,1387.6910872990002,1387.6910872990002,1389.7096174090002,1389.7096174090002,1389.7096174090002,1389.7096174090002,1389.7096174090002,1389.7096174090002,1389.7096174090002,1389.7096174090002,1391.7287879329997,1391.7287879329997,1391.7287879329997,1391.7287879329997,,,,,,,,,,,,,,,,,,,,,,,,,,,,,,,,,,,,,,,08,006,2022-09-23_11h44.52.381,test2,2022.2.4,59.99366310929652,
0,0,0,0,139,0,139,0,1391.7287879329997,1391.7287879329997,1391.7287879329997,1391.7287879329997,1391.7287879329997,1391.7287879329997,1391.7287879329997,1,-1,azul,1,['N_B'],1393.4808359850003,1393.4808359850003,1393.4808359850003,1393.4808359850003,1395.51757954,1395.51757954,1395.51757954,1395.51757954,1395.51757954,1395.51757954,1395.51757954,1395.51757954,1397.5345590240004,1397.5345590240004,1397.5345590240004,1397.5345590240004,,,,,,,,,,,,,,,,,,,,,,,,,,,,,,,,,,,,,,,08,006,2022-09-23_11h44.52.381,test2,2022.2.4,59.99366310929652,
0,0,0,0,140,0,140,0,1397.5345590240004,1397.5345590240004,1397.5345590240004,1397.5345590240004,1397.5345590240004,1397.5345590240004,1397.5345590240004,1,-1,azul,0,['N_A'],1399.0698541399997,1399.0698541399997,1399.0698541399997,1399.0698541399997,1401.0882370549998,1401.0882370549998,1401.0882370549998,1401.0882370549998,1401.0882370549998,1401.0882370549998,1401.0882370549998,1401.0882370549998,1403.1079606740004,1403.1079606740004,1403.1079606740004,1403.1079606740004,,,,,,,,,,,,,,,,,,,,,,,,,,,,,,,,,,,,,,,08,006,2022-09-23_11h44.52.381,test2,2022.2.4,59.99366310929652,
0,0,0,0,141,0,141,0,1403.1079606740004,1403.1079606740004,1403.1079606740004,1403.1079606740004,1403.1079606740004,1403.1079606740004,1403.1079606740004,-1,1,azul,1,['N_A'],1404.6766015960002,1404.6766015960002,1404.6766015960002,1404.6766015960002,1406.695552788,1406.695552788,1406.695552788,1406.695552788,1406.695552788,1406.695552788,1406.695552788,1406.695552788,1408.714191483,1408.714191483,1408.714191483,1408.714191483,,,,,,,,,,,,,,,,,,,,,,,,,,,,,,,,,,,,,,,08,006,2022-09-23_11h44.52.381,test2,2022.2.4,59.99366310929652,
0,0,0,0,142,0,142,0,1408.714191483,1408.714191483,1408.714191483,1408.714191483,1408.714191483,1408.714191483,1408.714191483,1,1,rojo,1,['N_A'],1410.3488566799997,1410.3488566799997,1410.3488566799997,1410.3488566799997,1412.3687991710003,1412.3687991710003,1412.3687991710003,1412.3687991710003,1412.3687991710003,1412.3687991710003,1412.3687991710003,1412.3687991710003,1414.3862759000003,1414.3862759000003,1414.3862759000003,1414.3862759000003,,,,,,,,,,,,,,,,,,,,,,,,,,,,,,,,,,,,,,,08,006,2022-09-23_11h44.52.381,test2,2022.2.4,59.99366310929652,
0,0,0,0,143,0,143,0,1414.3862759000003,1414.3862759000003,1414.3862759000003,1414.3862759000003,1414.3862759000003,1414.3862759000003,1414.3862759000003,1,-1,rojo,0,['N_B'],1416.055018297,1416.055018297,1416.055018297,1416.055018297,1418.0738440510004,1418.0738440510004,1418.0738440510004,1418.0738440510004,1418.0738440510004,1418.0738440510004,1418.0738440510004,1418.0738440510004,1420.0925788519999,1420.0925788519999,1420.0925788519999,1420.0925788519999,,,,,,,,,,,,,,,,,,,,,,,,,,,,,,,,,,,,,,,08,006,2022-09-23_11h44.52.381,test2,2022.2.4,59.99366310929652,
0,0,0,0,144,0,144,0,1420.0925788519999,1420.0925788519999,1420.0925788519999,1420.0925788519999,1420.0925788519999,1420.0925788519999,1420.0925788519999,1,1,azul,1,['N_B'],1421.4784386769998,1421.4784386769998,1421.4784386769998,1421.4784386769998,1423.4977560240004,1423.4977560240004,1423.4977560240004,1423.4977560240004,1423.4977560240004,1423.4977560240004,1423.4977560240004,1423.4977560240004,1425.5153525750002,1425.5153525750002,1425.5153525750002,1425.5153525750002,,,,,,,,,,,,,,,,,,,,,,,,,,,,,,,,,,,,,,,08,006,2022-09-23_11h44.52.381,test2,2022.2.4,59.99366310929652,
0,0,0,0,145,0,145,0,1425.5153525750002,1425.5153525750002,1425.5153525750002,1425.5153525750002,1425.5153525750002,1425.5153525750002,1425.5153525750002,-1,1,rojo,1,['N_B'],1427.834960444,1427.834960444,1427.834960444,1427.834960444,1429.8547215179997,1429.8547215179997,1429.8547215179997,1429.8547215179997,1429.8547215179997,1429.8547215179997,1429.8547215179997,1429.8547215179997,1431.872566291,1431.872566291,1431.872566291,1431.872566291,,,,,,,,,,,,,,,,,,,,,,,,,,,,,,,,,,,,,,,08,006,2022-09-23_11h44.52.381,test2,2022.2.4,59.99366310929652,
0,0,0,0,146,0,146,0,1431.872566291,1431.872566291,1431.872566291,1431.872566291,1431.872566291,1431.872566291,1431.872566291,1,1,azul,1,['N_B'],1434.1258131000004,1434.1258131000004,1434.1258131000004,1434.1258131000004,1436.144740101,1436.144740101,1436.144740101,1436.144740101,1436.144740101,1436.144740101,1436.144740101,1436.144740101,1438.1629628600003,1438.1629628600003,1438.1629628600003,1438.1629628600003,,,,,,,,,,,,,,,,,,,,,,,,,,,,,,,,,,,,,,,08,006,2022-09-23_11h44.52.381,test2,2022.2.4,59.99366310929652,
0,0,0,0,147,0,147,0,1438.1629628600003,1438.1629628600003,1438.1629628600003,1438.1629628600003,1438.1629628600003,1438.1629628600003,1438.1629628600003,1,1,azul,1,['N_B'],1440.2324525350004,1440.2324525350004,1440.2324525350004,1440.2324525350004,1442.2517872959997,1442.2517872959997,1442.2517872959997,1442.2517872959997,1442.2517872959997,1442.2517872959997,1442.2517872959997,1442.2517872959997,1444.2698068509999,1444.2698068509999,1444.2698068509999,1444.2698068509999,,,,,,,,,,,,,,,,,,,,,,,,,,,,,,,,,,,,,,,08,006,2022-09-23_11h44.52.381,test2,2022.2.4,59.99366310929652,
0,0,0,0,148,0,148,0,1444.2698068509999,1444.2698068509999,1444.2698068509999,1444.2698068509999,1444.2698068509999,1444.2698068509999,1444.2698068509999,1,1,azul,1,['N_B'],1446.9061877679997,1446.9061877679997,1446.9061877679997,1446.9061877679997,1448.9252855940003,1448.9252855940003,1448.9252855940003,1448.9252855940003,1448.9252855940003,1448.9252855940003,1448.9252855940003,1448.9252855940003,1450.9451883660004,1450.9451883660004,1450.9451883660004,1450.9451883660004,,,,,,,,,,,,,,,,,,,,,,,,,,,,,,,,,,,,,,,08,006,2022-09-23_11h44.52.381,test2,2022.2.4,59.99366310929652,
0,0,0,0,149,0,149,0,1450.9451883660004,1450.9451883660004,1450.9451883660004,1450.9451883660004,1450.9451883660004,1450.9451883660004,1450.9451883660004,-1,-1,rojo,1,['N_B'],1452.479318013,1452.479318013,1452.479318013,1452.479318013,1454.4974058879998,1454.4974058879998,1454.4974058879998,1454.4974058879998,1454.4974058879998,1454.4974058879998,1454.4974058879998,1454.4974058879998,1456.517429738,1456.517429738,1456.517429738,1456.517429738,,,,,,,,,,,,,,,,,,,,,,,,,,,,,,,,,,,,,,,08,006,2022-09-23_11h44.52.381,test2,2022.2.4,59.99366310929652,
0,0,0,0,150,0,150,0,1456.517429738,1456.517429738,1456.517429738,1456.517429738,1456.517429738,1456.517429738,1456.517429738,-1,1,rojo,1,['N_B'],1458.0029302089997,1458.0029302089997,1458.0029302089997,1458.0029302089997,1460.0212240769997,1460.0212240769997,1460.0212240769997,1460.0212240769997,1460.0212240769997,1460.0212240769997,1460.0212240769997,1460.0212240769997,1462.040422702,1462.040422702,1462.040422702,1462.040422702,,,,,,,,,,,,,,,,,,,,,,,,,,,,,,,,,,,,,,,08,006,2022-09-23_11h44.52.381,test2,2022.2.4,59.99366310929652,
0,0,0,0,151,0,151,0,1462.040422702,1462.040422702,1462.040422702,1462.040422702,1462.040422702,1462.040422702,1462.040422702,-1,1,rojo,1,['N_B'],1463.4740861740001,1463.4740861740001,1463.4740861740001,1463.4740861740001,1465.493749153,1465.493749153,1465.493749153,1465.493749153,1465.493749153,1465.493749153,1465.493749153,1465.493749153,1467.5120613600002,1467.5120613600002,1467.5120613600002,1467.5120613600002,,,,,,,,,,,,,,,,,,,,,,,,,,,,,,,,,,,,,,,08,006,2022-09-23_11h44.52.381,test2,2022.2.4,59.99366310929652,
0,0,0,0,152,0,152,0,1467.5120613600002,1467.5120613600002,1467.5120613600002,1467.5120613600002,1467.5120613600002,1467.5120613600002,1467.5120613600002,-1,1,rojo,1,['N_B'],1469.5974619469998,1469.5974619469998,1469.5974619469998,1469.5974619469998,1471.617024657,1471.617024657,1471.617024657,1471.617024657,1471.617024657,1471.617024657,1471.617024657,1471.617024657,1473.635376231,1473.635376231,1473.635376231,1473.635376231,,,,,,,,,,,,,,,,,,,,,,,,,,,,,,,,,,,,,,,08,006,2022-09-23_11h44.52.381,test2,2022.2.4,59.99366310929652,
0,0,0,0,153,0,153,0,1473.635376231,1473.635376231,1473.635376231,1473.635376231,1473.635376231,1473.635376231,1473.635376231,1,1,azul,1,['N_B'],1475.5206419019996,1475.5206419019996,1475.5206419019996,1475.5206419019996,1477.540680174,1477.540680174,1477.540680174,1477.540680174,1477.540680174,1477.540680174,1477.540680174,1477.540680174,1479.5597939099998,1479.5597939099998,1479.5597939099998,1479.5597939099998,,,,,,,,,,,,,,,,,,,,,,,,,,,,,,,,,,,,,,,08,006,2022-09-23_11h44.52.381,test2,2022.2.4,59.99366310929652,
0,0,0,0,154,0,154,0,1479.5597939099998,1479.5597939099998,1479.5597939099998,1479.5597939099998,1479.5597939099998,1479.5597939099998,1479.5597939099998,-1,1,rojo,1,['N_B'],1480.9934049530002,1480.9934049530002,1480.9934049530002,1480.9934049530002,1483.0135100220004,1483.0135100220004,1483.0135100220004,1483.0135100220004,1483.0135100220004,1483.0135100220004,1483.0135100220004,1483.0135100220004,1485.0318918189996,1485.0318918189996,1485.0318918189996,1485.0318918189996,,,,,,,,,,,,,,,,,,,,,,,,,,,,,,,,,,,,,,,08,006,2022-09-23_11h44.52.381,test2,2022.2.4,59.99366310929652,
0,0,0,0,155,0,155,0,1485.0318918189996,1485.0318918189996,1485.0318918189996,1485.0318918189996,1485.0318918189996,1485.0318918189996,1485.0318918189996,-1,1,rojo,1,['N_B'],1486.5670017089997,1486.5670017089997,1486.5670017089997,1486.5670017089997,1488.5860342859996,1488.5860342859996,1488.5860342859996,1488.5860342859996,1488.5860342859996,1488.5860342859996,1488.5860342859996,1488.5860342859996,1490.603672059,1490.603672059,1490.603672059,1490.603672059,,,,,,,,,,,,,,,,,,,,,,,,,,,,,,,,,,,,,,,08,006,2022-09-23_11h44.52.381,test2,2022.2.4,59.99366310929652,
0,0,0,0,156,0,156,0,1490.603672059,1490.603672059,1490.603672059,1490.603672059,1490.603672059,1490.603672059,1490.603672059,1,1,azul,1,['N_B'],1492.606617503,1492.606617503,1492.606617503,1492.606617503,1494.6258712219997,1494.6258712219997,1494.6258712219997,1494.6258712219997,1494.6258712219997,1494.6258712219997,1494.6258712219997,1494.6258712219997,1496.6448943699997,1496.6448943699997,1496.6448943699997,1496.6448943699997,,,,,,,,,,,,,,,,,,,,,,,,,,,,,,,,,,,,,,,08,006,2022-09-23_11h44.52.381,test2,2022.2.4,59.99366310929652,
0,0,0,0,157,0,157,0,1496.6448943699997,1496.6448943699997,1496.6448943699997,1496.6448943699997,1496.6448943699997,1496.6448943699997,1496.6448943699997,1,1,azul,1,['N_B'],1500.1813547820002,1500.1813547820002,1500.1813547820002,1500.1813547820002,1502.201540911,1502.201540911,1502.201540911,1502.201540911,1502.201540911,1502.201540911,1502.201540911,1502.201540911,1504.219392549,1504.219392549,1504.219392549,1504.219392549,,,,,,,,,,,,,,,,,,,,,,,,,,,,,,,,,,,,,,,08,006,2022-09-23_11h44.52.381,test2,2022.2.4,59.99366310929652,
0,0,0,0,158,0,158,0,1504.219392549,1504.219392549,1504.219392549,1504.219392549,1504.219392549,1504.219392549,1504.219392549,1,1,azul,1,['N_B'],1505.7884984410002,1505.7884984410002,1505.7884984410002,1505.7884984410002,1507.8069761810002,1507.8069761810002,1507.8069761810002,1507.8069761810002,1507.8069761810002,1507.8069761810002,1507.8069761810002,1507.8069761810002,1509.825100733,1509.825100733,1509.825100733,1509.825100733,,,,,,,,,,,,,,,,,,,,,,,,,,,,,,,,,,,,,,,08,006,2022-09-23_11h44.52.381,test2,2022.2.4,59.99366310929652,
0,0,0,0,159,0,159,0,1509.825100733,1509.825100733,1509.825100733,1509.825100733,1509.825100733,1509.825100733,1509.825100733,-1,-1,rojo,1,['N_B'],1511.4450611350003,1511.4450611350003,1511.4450611350003,1511.4450611350003,1513.4797862710002,1513.4797862710002,1513.4797862710002,1513.4797862710002,1513.4797862710002,1513.4797862710002,1513.4797862710002,1513.4797862710002,1515.4987998759998,1515.4987998759998,1515.4987998759998,1515.4987998759998,,,,,,,,,,,,,,,,,,,,,,,,,,,,,,,,,,,,,,,08,006,2022-09-23_11h44.52.381,test2,2022.2.4,59.99366310929652,
0,0,0,0,160,0,160,0,1515.4987998759998,1515.4987998759998,1515.4987998759998,1515.4987998759998,1515.4987998759998,1515.4987998759998,1515.4987998759998,1,-1,azul,0,['N_A'],1518.1507241110003,1518.1507241110003,1518.1507241110003,1518.1507241110003,1520.170749502,1520.170749502,1520.170749502,1520.170749502,1520.170749502,1520.170749502,1520.170749502,1520.170749502,1522.1887766979999,1522.1887766979999,1522.1887766979999,1522.1887766979999,,,,,,,,,,,,,,,,,,,,,,,,,,,,,,,,,,,,,,,08,006,2022-09-23_11h44.52.381,test2,2022.2.4,59.99366310929652,
0,0,0,0,161,0,161,0,1522.1887766979999,1522.1887766979999,1522.1887766979999,1522.1887766979999,1522.1887766979999,1522.1887766979999,1522.1887766979999,-1,1,azul,1,['N_A'],1523.8072185170004,1523.8072185170004,1523.8072185170004,1523.8072185170004,1525.826745636,1525.826745636,1525.826745636,1525.826745636,1525.826745636,1525.826745636,1525.826745636,1525.826745636,1527.8467775099998,1527.8467775099998,1527.8467775099998,1527.8467775099998,,,,,,,,,,,,,,,,,,,,,,,,,,,,,,,,,,,,,,,08,006,2022-09-23_11h44.52.381,test2,2022.2.4,59.99366310929652,
0,0,0,0,162,0,162,0,1527.8467775099998,1527.8467775099998,1527.8467775099998,1527.8467775099998,1527.8467775099998,1527.8467775099998,1527.8467775099998,1,1,rojo,1,['N_A'],1529.4303676870004,1529.4303676870004,1529.4303676870004,1529.4303676870004,1531.4498578470002,1531.4498578470002,1531.4498578470002,1531.4498578470002,1531.4498578470002,1531.4498578470002,1531.4498578470002,1531.4498578470002,1533.4679836940004,1533.4679836940004,1533.4679836940004,1533.4679836940004,,,,,,,,,,,,,,,,,,,,,,,,,,,,,,,,,,,,,,,08,006,2022-09-23_11h44.52.381,test2,2022.2.4,59.99366310929652,
0,0,0,0,163,0,163,0,1533.4679836940004,1533.4679836940004,1533.4679836940004,1533.4679836940004,1533.4679836940004,1533.4679836940004,1533.4679836940004,1,1,rojo,1,['N_A'],1535.3698486060002,1535.3698486060002,1535.3698486060002,1535.3698486060002,1537.3895273529997,1537.3895273529997,1537.3895273529997,1537.3895273529997,1537.3895273529997,1537.3895273529997,1537.3895273529997,1537.3895273529997,1539.4084169890002,1539.4084169890002,1539.4084169890002,1539.4084169890002,,,,,,,,,,,,,,,,,,,,,,,,,,,,,,,,,,,,,,,08,006,2022-09-23_11h44.52.381,test2,2022.2.4,59.99366310929652,
0,0,0,0,164,0,164,0,1539.4084169890002,1539.4084169890002,1539.4084169890002,1539.4084169890002,1539.4084169890002,1539.4084169890002,1539.4084169890002,1,-1,rojo,0,['N_B'],1541.7110958140001,1541.7110958140001,1541.7110958140001,1541.7110958140001,1543.7471631810004,1543.7471631810004,1543.7471631810004,1543.7471631810004,1543.7471631810004,1543.7471631810004,1543.7471631810004,1543.7471631810004,1545.765172079,1545.765172079,1545.765172079,1545.765172079,,,,,,,,,,,,,,,,,,,,,,,,,,,,,,,,,,,,,,,08,006,2022-09-23_11h44.52.381,test2,2022.2.4,59.99366310929652,
0,0,0,0,165,0,165,0,1545.765172079,1545.765172079,1545.765172079,1545.765172079,1545.765172079,1545.765172079,1545.765172079,1,-1,azul,1,['N_B'],1547.2338907499998,1547.2338907499998,1547.2338907499998,1547.2338907499998,1549.2694307869997,1549.2694307869997,1549.2694307869997,1549.2694307869997,1549.2694307869997,1549.2694307869997,1549.2694307869997,1549.2694307869997,1551.2881510810003,1551.2881510810003,1551.2881510810003,1551.2881510810003,,,,,,,,,,,,,,,,,,,,,,,,,,,,,,,,,,,,,,,08,006,2022-09-23_11h44.52.381,test2,2022.2.4,59.99366310929652,
0,0,0,0,166,0,166,0,1551.2881510810003,1551.2881510810003,1551.2881510810003,1551.2881510810003,1551.2881510810003,1551.2881510810003,1551.2881510810003,1,-1,azul,0,['N_A'],1553.3900467639996,1553.3900467639996,1553.3900467639996,1553.3900467639996,1555.409853831,1555.409853831,1555.409853831,1555.409853831,1555.409853831,1555.409853831,1555.409853831,1555.409853831,1557.4285875819996,1557.4285875819996,1557.4285875819996,1557.4285875819996,,,,,,,,,,,,,,,,,,,,,,,,,,,,,,,,,,,,,,,08,006,2022-09-23_11h44.52.381,test2,2022.2.4,59.99366310929652,
0,0,0,0,167,0,167,0,1557.4285875819996,1557.4285875819996,1557.4285875819996,1557.4285875819996,1557.4285875819996,1557.4285875819996,1557.4285875819996,-1,1,azul,1,['N_A'],1558.8799415519998,1558.8799415519998,1558.8799415519998,1558.8799415519998,1560.8989308159998,1560.8989308159998,1560.8989308159998,1560.8989308159998,1560.8989308159998,1560.8989308159998,1560.8989308159998,1560.8989308159998,1562.9167980250004,1562.9167980250004,1562.9167980250004,1562.9167980250004,,,,,,,,,,,,,,,,,,,,,,,,,,,,,,,,,,,,,,,08,006,2022-09-23_11h44.52.381,test2,2022.2.4,59.99366310929652,
0,0,0,0,168,0,168,0,1562.9167980250004,1562.9167980250004,1562.9167980250004,1562.9167980250004,1562.9167980250004,1562.9167980250004,1562.9167980250004,-1,1,azul,1,['N_A'],1564.5530904449997,1564.5530904449997,1564.5530904449997,1564.5530904449997,1566.5718066950003,1566.5718066950003,1566.5718066950003,1566.5718066950003,1566.5718066950003,1566.5718066950003,1566.5718066950003,1566.5718066950003,1568.5897370129996,1568.5897370129996,1568.5897370129996,1568.5897370129996,,,,,,,,,,,,,,,,,,,,,,,,,,,,,,,,,,,,,,,08,006,2022-09-23_11h44.52.381,test2,2022.2.4,59.99366310929652,
0,0,0,0,169,0,169,0,1568.5897370129996,1568.5897370129996,1568.5897370129996,1568.5897370129996,1568.5897370129996,1568.5897370129996,1568.5897370129996,1,-1,rojo,0,['N_B'],1570.5757235390001,1570.5757235390001,1570.5757235390001,1570.5757235390001,1572.594221278,1572.594221278,1572.594221278,1572.594221278,1572.594221278,1572.594221278,1572.594221278,1572.594221278,1574.6141872059998,1574.6141872059998,1574.6141872059998,1574.6141872059998,,,,,,,,,,,,,,,,,,,,,,,,,,,,,,,,,,,,,,,08,006,2022-09-23_11h44.52.381,test2,2022.2.4,59.99366310929652,
0,0,0,0,170,0,170,0,1574.6141872059998,1574.6141872059998,1574.6141872059998,1574.6141872059998,1574.6141872059998,1574.6141872059998,1574.6141872059998,-1,1,rojo,1,['N_B'],1576.131559554,1576.131559554,1576.131559554,1576.131559554,1578.1514329459997,1578.1514329459997,1578.1514329459997,1578.1514329459997,1578.1514329459997,1578.1514329459997,1578.1514329459997,1578.1514329459997,1580.1693029540002,1580.1693029540002,1580.1693029540002,1580.1693029540002,,,,,,,,,,,,,,,,,,,,,,,,,,,,,,,,,,,,,,,08,006,2022-09-23_11h44.52.381,test2,2022.2.4,59.99366310929652,
0,0,0,0,171,0,171,0,1580.1693029540002,1580.1693029540002,1580.1693029540002,1580.1693029540002,1580.1693029540002,1580.1693029540002,1580.1693029540002,1,1,azul,1,['N_B'],1581.871253024,1581.871253024,1581.871253024,1581.871253024,1583.8902447219998,1583.8902447219998,1583.8902447219998,1583.8902447219998,1583.8902447219998,1583.8902447219998,1583.8902447219998,1583.8902447219998,1585.9096741559997,1585.9096741559997,1585.9096741559997,1585.9096741559997,,,,,,,,,,,,,,,,,,,,,,,,,,,,,,,,,,,,,,,08,006,2022-09-23_11h44.52.381,test2,2022.2.4,59.99366310929652,
0,0,0,0,172,0,172,0,1585.9096741559997,1585.9096741559997,1585.9096741559997,1585.9096741559997,1585.9096741559997,1585.9096741559997,1585.9096741559997,-1,-1,rojo,1,['N_B'],1587.294903729,1587.294903729,1587.294903729,1587.294903729,1589.3125730869997,1589.3125730869997,1589.3125730869997,1589.3125730869997,1589.3125730869997,1589.3125730869997,1589.3125730869997,1589.3125730869997,1591.3324974890002,1591.3324974890002,1591.3324974890002,1591.3324974890002,,,,,,,,,,,,,,,,,,,,,,,,,,,,,,,,,,,,,,,08,006,2022-09-23_11h44.52.381,test2,2022.2.4,59.99366310929652,
0,0,0,0,173,0,173,0,1591.3324974890002,1591.3324974890002,1591.3324974890002,1591.3324974890002,1591.3324974890002,1591.3324974890002,1591.3324974890002,-1,1,rojo,1,['N_B'],1594.501825153,1594.501825153,1594.501825153,1594.501825153,1596.5210281179998,1596.5210281179998,1596.5210281179998,1596.5210281179998,1596.5210281179998,1596.5210281179998,1596.5210281179998,1596.5210281179998,1598.5396059739996,1598.5396059739996,1598.5396059739996,1598.5396059739996,,,,,,,,,,,,,,,,,,,,,,,,,,,,,,,,,,,,,,,08,006,2022-09-23_11h44.52.381,test2,2022.2.4,59.99366310929652,
0,0,0,0,174,0,174,0,1598.5396059739996,1598.5396059739996,1598.5396059739996,1598.5396059739996,1598.5396059739996,1598.5396059739996,1598.5396059739996,1,1,azul,1,['N_B'],1600.0415946829999,1600.0415946829999,1600.0415946829999,1600.0415946829999,1602.0618773710003,1602.0618773710003,1602.0618773710003,1602.0618773710003,1602.0618773710003,1602.0618773710003,1602.0618773710003,1602.0618773710003,1604.0798038060002,1604.0798038060002,1604.0798038060002,1604.0798038060002,,,,,,,,,,,,,,,,,,,,,,,,,,,,,,,,,,,,,,,08,006,2022-09-23_11h44.52.381,test2,2022.2.4,59.99366310929652,
0,0,0,0,175,0,175,0,1604.0798038060002,1604.0798038060002,1604.0798038060002,1604.0798038060002,1604.0798038060002,1604.0798038060002,1604.0798038060002,1,1,azul,1,['N_B'],1606.2648515170004,1606.2648515170004,1606.2648515170004,1606.2648515170004,1608.2846415659997,1608.2846415659997,1608.2846415659997,1608.2846415659997,1608.2846415659997,1608.2846415659997,1608.2846415659997,1608.2846415659997,1610.3025432020004,1610.3025432020004,1610.3025432020004,1610.3025432020004,,,,,,,,,,,,,,,,,,,,,,,,,,,,,,,,,,,,,,,08,006,2022-09-23_11h44.52.381,test2,2022.2.4,59.99366310929652,
0,0,0,0,176,0,176,0,1610.3025432020004,1610.3025432020004,1610.3025432020004,1610.3025432020004,1610.3025432020004,1610.3025432020004,1610.3025432020004,1,-1,azul,1,['N_B'],1611.6873358250004,1611.6873358250004,1611.6873358250004,1611.6873358250004,1613.72413056,1613.72413056,1613.72413056,1613.72413056,1613.72413056,1613.72413056,1613.72413056,1613.72413056,1615.7417640209997,1615.7417640209997,1615.7417640209997,1615.7417640209997,,,,,,,,,,,,,,,,,,,,,,,,,,,,,,,,,,,,,,,08,006,2022-09-23_11h44.52.381,test2,2022.2.4,59.99366310929652,
0,0,0,0,177,0,177,0,1615.7417640209997,1615.7417640209997,1615.7417640209997,1615.7417640209997,1615.7417640209997,1615.7417640209997,1615.7417640209997,1,-1,azul,0,['N_A'],1617.410422905,1617.410422905,1617.410422905,1617.410422905,1619.4474252440004,1619.4474252440004,1619.4474252440004,1619.4474252440004,1619.4474252440004,1619.4474252440004,1619.4474252440004,1619.4474252440004,1621.4654119349998,1621.4654119349998,1621.4654119349998,1621.4654119349998,,,,,,,,,,,,,,,,,,,,,,,,,,,,,,,,,,,,,,,08,006,2022-09-23_11h44.52.381,test2,2022.2.4,59.99366310929652,
