trials_2.thisRepN,trials_2.thisTrialN,trials_2.thisN,trials_2.thisIndex,trials.thisRepN,trials.thisTrialN,trials.thisN,trials.thisIndex,Instrucción2.started,N_A_4.started,N_B_4.started,Exitos_3.started,Dias_3.started,Stimuli_1.started,Stimuli_2.started,Transitions,Rewards,Mode,Stay,Neighbour,Stimuli_3.started,Modo.started,Dias2.started,Exitos2.started,Stimuli_3.stopped,Modo.stopped,Dias2.stopped,Exitos2.stopped,Reward.started,Stimuli_reward.started,Exitos3.started,Dias3.started,Reward.stopped,Stimuli_reward.stopped,Exitos3.stopped,Dias3.stopped,Cue_text.started,Stimuli_4.started,Exitos4.started,Dias4.started,Stimuli_3_3.started,Stimuli_2_3.started,Instrucción.started,N_A.started,N_B.started,N_C.started,Exitos_2.started,Dias_2.started,Stimuli_1_3.started,Stimuli_3_2.started,Stimuli_2_2.started,Pregunta.started,N_A_2.started,N_B_2.started,N_C_2.started,Exitos5.started,Dias5.started,Stimuli_1_2.started,Resp_final_1,Modo2.started,Modo1.started,Pregunta_4.started,Modo3.started,Exitos7.started,Dias6.started,Resp_final_2,Modo1_2.started,Pregunta_3.started,Modo2_2.started,Exitos8.started,Dias7.started,Resp_final_3,Mensaje_Final2.started,Exitos6.started,participant,session,date,expName,psychopyVersion,frameRate,
0,0,0,0,0,0,0,0,752.0745107529999,752.0745107529999,752.0745107529999,752.0745107529999,752.0745107529999,752.0745107529999,752.0745107529999,0,0,0,0,['N_B'],764.7700385369999,764.7700385369999,764.7700385369999,764.7700385369999,766.8055491759999,766.8055491759999,766.8055491759999,766.8055491759999,766.8055491759999,766.8055491759999,766.8055491759999,766.8055491759999,768.8422927289998,768.8422927289998,768.8422927289998,768.8422927289998,,,,,,,,,,,,,,,,,,,,,,,,,,,,,,,,,,,,,,,08,011,2022-09-27_09h06.39.510,test2,2022.2.4,59.999342527172786,
0,0,0,0,1,0,1,0,768.8422927289998,768.8422927289998,768.8422927289998,768.8422927289998,768.8422927289998,768.8422927289998,768.8422927289998,-1,1,rojo,1,['N_B'],777.1340073169999,777.1340073169999,777.1340073169999,777.1340073169999,779.2202270579999,779.2202270579999,779.2202270579999,779.2202270579999,779.2202270579999,779.2202270579999,779.2202270579999,779.2202270579999,781.255538336,781.255538336,781.255538336,781.255538336,,,,,,,,,,,,,,,,,,,,,,,,,,,,,,,,,,,,,,,08,011,2022-09-27_09h06.39.510,test2,2022.2.4,59.999342527172786,
0,0,0,0,2,0,2,0,781.255538336,781.255538336,781.255538336,781.255538336,781.255538336,781.255538336,781.255538336,-1,-1,rojo,0,['N_A'],791.315755527,791.315755527,791.315755527,791.315755527,793.3522558479999,793.3522558479999,793.3522558479999,793.3522558479999,793.3522558479999,793.3522558479999,793.3522558479999,793.3522558479999,795.388628466,795.388628466,795.388628466,795.388628466,,,,,,,,,,,,,,,,,,,,,,,,,,,,,,,,,,,,,,,08,011,2022-09-27_09h06.39.510,test2,2022.2.4,59.999342527172786,
0,0,0,0,3,0,3,0,795.388628466,795.388628466,795.388628466,795.388628466,795.388628466,795.388628466,795.388628466,1,-1,rojo,1,['N_A'],800.025358291,800.025358291,800.025358291,800.025358291,802.0616495499999,802.0616495499999,802.0616495499999,802.0616495499999,802.0616495499999,802.0616495499999,802.0616495499999,802.0616495499999,804.0976096429999,804.0976096429999,804.0976096429999,804.0976096429999,,,,,,,,,,,,,,,,,,,,,,,,,,,,,,,,,,,,,,,08,011,2022-09-27_09h06.39.510,test2,2022.2.4,59.999342527172786,
0,0,0,0,4,0,4,0,804.0976096429999,804.0976096429999,804.0976096429999,804.0976096429999,804.0976096429999,804.0976096429999,804.0976096429999,-1,1,azul,0,['N_B'],811.8719795109998,811.8719795109998,811.8719795109998,811.8719795109998,813.8914432709998,813.8914432709998,813.8914432709998,813.8914432709998,813.8914432709998,813.8914432709998,813.8914432709998,813.8914432709998,815.927039335,815.927039335,815.927039335,815.927039335,,,,,,,,,,,,,,,,,,,,,,,,,,,,,,,,,,,,,,,08,011,2022-09-27_09h06.39.510,test2,2022.2.4,59.999342527172786,
0,0,0,0,5,0,5,0,815.927039335,815.927039335,815.927039335,815.927039335,815.927039335,815.927039335,815.927039335,1,-1,azul,0,['N_A'],821.166884771,821.166884771,821.166884771,821.166884771,823.184722579,823.184722579,823.184722579,823.184722579,823.184722579,823.184722579,823.184722579,823.184722579,825.220765029,825.220765029,825.220765029,825.220765029,,,,,,,,,,,,,,,,,,,,,,,,,,,,,,,,,,,,,,,08,011,2022-09-27_09h06.39.510,test2,2022.2.4,59.999342527172786,
0,0,0,0,6,0,6,0,825.220765029,825.220765029,825.220765029,825.220765029,825.220765029,825.220765029,825.220765029,-1,1,azul,1,['N_A'],832.061252087,832.061252087,832.061252087,832.061252087,834.079813907,834.079813907,834.079813907,834.079813907,834.079813907,834.079813907,834.079813907,834.079813907,836.1168251869999,836.1168251869999,836.1168251869999,836.1168251869999,,,,,,,,,,,,,,,,,,,,,,,,,,,,,,,,,,,,,,,08,011,2022-09-27_09h06.39.510,test2,2022.2.4,59.999342527172786,
0,0,0,0,7,0,7,0,836.1168251869999,836.1168251869999,836.1168251869999,836.1168251869999,836.1168251869999,836.1168251869999,836.1168251869999,1,-1,rojo,0,['N_B'],849.363573008,849.363573008,849.363573008,849.363573008,851.4006195329998,851.4006195329998,851.4006195329998,851.4006195329998,851.4006195329998,851.4006195329998,851.4006195329998,851.4006195329998,853.435657735,853.435657735,853.435657735,853.435657735,,,,,,,,,,,,,,,,,,,,,,,,,,,,,,,,,,,,,,,08,011,2022-09-27_09h06.39.510,test2,2022.2.4,59.999342527172786,
0,0,0,0,8,0,8,0,853.435657735,853.435657735,853.435657735,853.435657735,853.435657735,853.435657735,853.435657735,-1,-1,rojo,1,['N_B'],859.158045207,859.158045207,859.158045207,859.158045207,861.1942740479999,861.1942740479999,861.1942740479999,861.1942740479999,861.1942740479999,861.1942740479999,861.1942740479999,861.1942740479999,863.211455551,863.211455551,863.211455551,863.211455551,,,,,,,,,,,,,,,,,,,,,,,,,,,,,,,,,,,,,,,08,011,2022-09-27_09h06.39.510,test2,2022.2.4,59.999342527172786,
0,0,0,0,9,0,9,0,863.211455551,863.211455551,863.211455551,863.211455551,863.211455551,863.211455551,863.211455551,-1,-1,rojo,0,['N_A'],867.884132339,867.884132339,867.884132339,867.884132339,869.9205474349999,869.9205474349999,869.9205474349999,869.9205474349999,869.9205474349999,869.9205474349999,869.9205474349999,869.9205474349999,871.9388835089999,871.9388835089999,871.9388835089999,871.9388835089999,,,,,,,,,,,,,,,,,,,,,,,,,,,,,,,,,,,,,,,08,011,2022-09-27_09h06.39.510,test2,2022.2.4,59.999342527172786,
0,0,0,0,10,0,10,0,871.9388835089999,871.9388835089999,871.9388835089999,871.9388835089999,871.9388835089999,871.9388835089999,871.9388835089999,1,-1,rojo,1,['N_A'],876.3264917019999,876.3264917019999,876.3264917019999,876.3264917019999,878.36322722,878.36322722,878.36322722,878.36322722,878.36322722,878.36322722,878.36322722,878.36322722,880.3804971059999,880.3804971059999,880.3804971059999,880.3804971059999,,,,,,,,,,,,,,,,,,,,,,,,,,,,,,,,,,,,,,,08,011,2022-09-27_09h06.39.510,test2,2022.2.4,59.999342527172786,
0,0,0,0,11,0,11,0,880.3804971059999,880.3804971059999,880.3804971059999,880.3804971059999,880.3804971059999,880.3804971059999,880.3804971059999,-1,-1,azul,0,['N_B'],883.0511583369998,883.0511583369998,883.0511583369998,883.0511583369998,885.0873845459998,885.0873845459998,885.0873845459998,885.0873845459998,885.0873845459998,885.0873845459998,885.0873845459998,885.0873845459998,887.1056962559999,887.1056962559999,887.1056962559999,887.1056962559999,,,,,,,,,,,,,,,,,,,,,,,,,,,,,,,,,,,,,,,08,011,2022-09-27_09h06.39.510,test2,2022.2.4,59.999342527172786,
0,0,0,0,12,0,12,0,887.1056962559999,887.1056962559999,887.1056962559999,887.1056962559999,887.1056962559999,887.1056962559999,887.1056962559999,-1,-1,rojo,1,['N_B'],891.8609152849999,891.8609152849999,891.8609152849999,891.8609152849999,893.8968046579998,893.8968046579998,893.8968046579998,893.8968046579998,893.8968046579998,893.8968046579998,893.8968046579998,893.8968046579998,895.9158262199999,895.9158262199999,895.9158262199999,895.9158262199999,,,,,,,,,,,,,,,,,,,,,,,,,,,,,,,,,,,,,,,08,011,2022-09-27_09h06.39.510,test2,2022.2.4,59.999342527172786,
0,0,0,0,13,0,13,0,895.9158262199999,895.9158262199999,895.9158262199999,895.9158262199999,895.9158262199999,895.9158262199999,895.9158262199999,-1,-1,rojo,1,['N_B'],902.7724266509999,902.7724266509999,902.7724266509999,902.7724266509999,904.7907673139998,904.7907673139998,904.7907673139998,904.7907673139998,904.7907673139998,904.7907673139998,904.7907673139998,904.7907673139998,906.8095710159998,906.8095710159998,906.8095710159998,906.8095710159998,,,,,,,,,,,,,,,,,,,,,,,,,,,,,,,,,,,,,,,08,011,2022-09-27_09h06.39.510,test2,2022.2.4,59.999342527172786,
0,0,0,0,14,0,14,0,906.8095710159998,906.8095710159998,906.8095710159998,906.8095710159998,906.8095710159998,906.8095710159998,906.8095710159998,1,1,azul,1,['N_B'],911.16597035,911.16597035,911.16597035,911.16597035,913.18364391,913.18364391,913.18364391,913.18364391,913.18364391,913.18364391,913.18364391,913.18364391,915.202282281,915.202282281,915.202282281,915.202282281,,,,,,,,,,,,,,,,,,,,,,,,,,,,,,,,,,,,,,,08,011,2022-09-27_09h06.39.510,test2,2022.2.4,59.999342527172786,
0,0,0,0,15,0,15,0,915.202282281,915.202282281,915.202282281,915.202282281,915.202282281,915.202282281,915.202282281,1,-1,azul,1,['N_B'],920.3255631709999,920.3255631709999,920.3255631709999,920.3255631709999,922.3615916219999,922.3615916219999,922.3615916219999,922.3615916219999,922.3615916219999,922.3615916219999,922.3615916219999,922.3615916219999,924.378971826,924.378971826,924.378971826,924.378971826,,,,,,,,,,,,,,,,,,,,,,,,,,,,,,,,,,,,,,,08,011,2022-09-27_09h06.39.510,test2,2022.2.4,59.999342527172786,
0,0,0,0,16,0,16,0,924.378971826,924.378971826,924.378971826,924.378971826,924.378971826,924.378971826,924.378971826,-1,-1,rojo,0,['N_A'],927.5332994969999,927.5332994969999,927.5332994969999,927.5332994969999,929.552453689,929.552453689,929.552453689,929.552453689,929.552453689,929.552453689,929.552453689,929.552453689,931.5711762469998,931.5711762469998,931.5711762469998,931.5711762469998,,,,,,,,,,,,,,,,,,,,,,,,,,,,,,,,,,,,,,,08,011,2022-09-27_09h06.39.510,test2,2022.2.4,59.999342527172786,
0,0,0,0,17,0,17,0,931.5711762469998,931.5711762469998,931.5711762469998,931.5711762469998,931.5711762469998,931.5711762469998,931.5711762469998,1,1,rojo,1,['N_A'],937.2606493459998,937.2606493459998,937.2606493459998,937.2606493459998,939.279637852,939.279637852,939.279637852,939.279637852,939.279637852,939.279637852,939.279637852,939.279637852,941.2987091549999,941.2987091549999,941.2987091549999,941.2987091549999,,,,,,,,,,,,,,,,,,,,,,,,,,,,,,,,,,,,,,,08,011,2022-09-27_09h06.39.510,test2,2022.2.4,59.999342527172786,
0,0,0,0,18,0,18,0,941.2987091549999,941.2987091549999,941.2987091549999,941.2987091549999,941.2987091549999,941.2987091549999,941.2987091549999,1,-1,rojo,0,['N_B'],946.0362025309998,946.0362025309998,946.0362025309998,946.0362025309998,948.0552870419999,948.0552870419999,948.0552870419999,948.0552870419999,948.0552870419999,948.0552870419999,948.0552870419999,948.0552870419999,950.0743539939999,950.0743539939999,950.0743539939999,950.0743539939999,,,,,,,,,,,,,,,,,,,,,,,,,,,,,,,,,,,,,,,08,011,2022-09-27_09h06.39.510,test2,2022.2.4,59.999342527172786,
0,0,0,0,19,0,19,0,950.0743539939999,950.0743539939999,950.0743539939999,950.0743539939999,950.0743539939999,950.0743539939999,950.0743539939999,1,1,azul,1,['N_B'],952.660784487,952.660784487,952.660784487,952.660784487,954.679554822,954.679554822,954.679554822,954.679554822,954.679554822,954.679554822,954.679554822,954.679554822,956.6990865609998,956.6990865609998,956.6990865609998,956.6990865609998,,,,,,,,,,,,,,,,,,,,,,,,,,,,,,,,,,,,,,,08,011,2022-09-27_09h06.39.510,test2,2022.2.4,59.999342527172786,
0,0,0,0,20,0,20,0,956.6990865609998,956.6990865609998,956.6990865609998,956.6990865609998,956.6990865609998,956.6990865609998,956.6990865609998,1,-1,azul,0,['N_A'],963.3059518119999,963.3059518119999,963.3059518119999,963.3059518119999,965.342045652,965.342045652,965.342045652,965.342045652,965.342045652,965.342045652,965.342045652,965.342045652,967.360339377,967.360339377,967.360339377,967.360339377,,,,,,,,,,,,,,,,,,,,,,,,,,,,,,,,,,,,,,,08,011,2022-09-27_09h06.39.510,test2,2022.2.4,59.999342527172786,
0,0,0,0,21,0,21,0,967.360339377,967.360339377,967.360339377,967.360339377,967.360339377,967.360339377,967.360339377,1,-1,rojo,0,['N_B'],972.5661606459998,972.5661606459998,972.5661606459998,972.5661606459998,974.602022818,974.602022818,974.602022818,974.602022818,974.602022818,974.602022818,974.602022818,974.602022818,976.6203675919999,976.6203675919999,976.6203675919999,976.6203675919999,,,,,,,,,,,,,,,,,,,,,,,,,,,,,,,,,,,,,,,08,011,2022-09-27_09h06.39.510,test2,2022.2.4,59.999342527172786,
0,0,0,0,22,0,22,0,976.6203675919999,976.6203675919999,976.6203675919999,976.6203675919999,976.6203675919999,976.6203675919999,976.6203675919999,1,-1,azul,0,['N_A'],979.6742588059999,979.6742588059999,979.6742588059999,979.6742588059999,981.710115142,981.710115142,981.710115142,981.710115142,981.710115142,981.710115142,981.710115142,981.710115142,983.728005832,983.728005832,983.728005832,983.728005832,,,,,,,,,,,,,,,,,,,,,,,,,,,,,,,,,,,,,,,08,011,2022-09-27_09h06.39.510,test2,2022.2.4,59.999342527172786,
0,0,0,0,23,0,23,0,983.728005832,983.728005832,983.728005832,983.728005832,983.728005832,983.728005832,983.728005832,1,-1,rojo,1,['N_A'],988.7509783569999,988.7509783569999,988.7509783569999,988.7509783569999,990.7868717259998,990.7868717259998,990.7868717259998,990.7868717259998,990.7868717259998,990.7868717259998,990.7868717259998,990.7868717259998,992.8048513249998,992.8048513249998,992.8048513249998,992.8048513249998,,,,,,,,,,,,,,,,,,,,,,,,,,,,,,,,,,,,,,,08,011,2022-09-27_09h06.39.510,test2,2022.2.4,59.999342527172786,
0,0,0,0,24,0,24,0,992.8048513249998,992.8048513249998,992.8048513249998,992.8048513249998,992.8048513249998,992.8048513249998,992.8048513249998,1,-1,rojo,0,['N_B'],995.0410531499999,995.0410531499999,995.0410531499999,995.0410531499999,997.059738508,997.059738508,997.059738508,997.059738508,997.059738508,997.059738508,997.059738508,997.059738508,999.079090126,999.079090126,999.079090126,999.079090126,,,,,,,,,,,,,,,,,,,,,,,,,,,,,,,,,,,,,,,08,011,2022-09-27_09h06.39.510,test2,2022.2.4,59.999342527172786,
0,0,0,0,25,0,25,0,999.079090126,999.079090126,999.079090126,999.079090126,999.079090126,999.079090126,999.079090126,1,1,azul,1,['N_B'],1001.6157214269999,1001.6157214269999,1001.6157214269999,1001.6157214269999,1003.6339153209999,1003.6339153209999,1003.6339153209999,1003.6339153209999,1003.6339153209999,1003.6339153209999,1003.6339153209999,1003.6339153209999,1005.6521902239999,1005.6521902239999,1005.6521902239999,1005.6521902239999,,,,,,,,,,,,,,,,,,,,,,,,,,,,,,,,,,,,,,,08,011,2022-09-27_09h06.39.510,test2,2022.2.4,59.999342527172786,
0,0,0,0,26,0,26,0,1005.6521902239999,1005.6521902239999,1005.6521902239999,1005.6521902239999,1005.6521902239999,1005.6521902239999,1005.6521902239999,1,-1,azul,0,['N_A'],1009.039553649,1009.039553649,1009.039553649,1009.039553649,1011.0583150999998,1011.0583150999998,1011.0583150999998,1011.0583150999998,1011.0583150999998,1011.0583150999998,1011.0583150999998,1011.0583150999998,1013.077690675,1013.077690675,1013.077690675,1013.077690675,,,,,,,,,,,,,,,,,,,,,,,,,,,,,,,,,,,,,,,08,011,2022-09-27_09h06.39.510,test2,2022.2.4,59.999342527172786,
0,0,0,0,27,0,27,0,1013.077690675,1013.077690675,1013.077690675,1013.077690675,1013.077690675,1013.077690675,1013.077690675,1,1,rojo,0,['N_B'],1018.115983212,1018.115983212,1018.115983212,1018.115983212,1020.1348271509999,1020.1348271509999,1020.1348271509999,1020.1348271509999,1020.1348271509999,1020.1348271509999,1020.1348271509999,1020.1348271509999,1022.1542998699999,1022.1542998699999,1022.1542998699999,1022.1542998699999,,,,,,,,,,,,,,,,,,,,,,,,,,,,,,,,,,,,,,,08,011,2022-09-27_09h06.39.510,test2,2022.2.4,59.999342527172786,
0,0,0,0,28,0,28,0,1022.1542998699999,1022.1542998699999,1022.1542998699999,1022.1542998699999,1022.1542998699999,1022.1542998699999,1022.1542998699999,-1,-1,rojo,0,['N_A'],1025.474053431,1025.474053431,1025.474053431,1025.474053431,1027.5106229389999,1027.5106229389999,1027.5106229389999,1027.5106229389999,1027.5106229389999,1027.5106229389999,1027.5106229389999,1027.5106229389999,1029.5289730099998,1029.5289730099998,1029.5289730099998,1029.5289730099998,,,,,,,,,,,,,,,,,,,,,,,,,,,,,,,,,,,,,,,08,011,2022-09-27_09h06.39.510,test2,2022.2.4,59.999342527172786,
0,0,0,0,29,0,29,0,1029.5289730099998,1029.5289730099998,1029.5289730099998,1029.5289730099998,1029.5289730099998,1029.5289730099998,1029.5289730099998,-1,-1,azul,0,['N_B'],1031.864645126,1031.864645126,1031.864645126,1031.864645126,1033.884193613,1033.884193613,1033.884193613,1033.884193613,1033.884193613,1033.884193613,1033.884193613,1033.884193613,1035.903070209,1035.903070209,1035.903070209,1035.903070209,,,,,,,,,,,,,,,,,,,,,,,,,,,,,,,,,,,,,,,08,011,2022-09-27_09h06.39.510,test2,2022.2.4,59.999342527172786,
0,0,0,0,30,0,30,0,1035.903070209,1035.903070209,1035.903070209,1035.903070209,1035.903070209,1035.903070209,1035.903070209,1,1,azul,0,['N_A'],1040.857618027,1040.857618027,1040.857618027,1040.857618027,1042.8767599159999,1042.8767599159999,1042.8767599159999,1042.8767599159999,1042.8767599159999,1042.8767599159999,1042.8767599159999,1042.8767599159999,1044.896097652,1044.896097652,1044.896097652,1044.896097652,,,,,,,,,,,,,,,,,,,,,,,,,,,,,,,,,,,,,,,08,011,2022-09-27_09h06.39.510,test2,2022.2.4,59.999342527172786,
0,0,0,0,31,0,31,0,1044.896097652,1044.896097652,1044.896097652,1044.896097652,1044.896097652,1044.896097652,1044.896097652,1,-1,rojo,0,['N_B'],1047.199616962,1047.199616962,1047.199616962,1047.199616962,1049.23515118,1049.23515118,1049.23515118,1049.23515118,1049.23515118,1049.23515118,1049.23515118,1049.23515118,1051.2529599959998,1051.2529599959998,1051.2529599959998,1051.2529599959998,,,,,,,,,,,,,,,,,,,,,,,,,,,,,,,,,,,,,,,08,011,2022-09-27_09h06.39.510,test2,2022.2.4,59.999342527172786,
0,0,0,0,32,0,32,0,1051.2529599959998,1051.2529599959998,1051.2529599959998,1051.2529599959998,1051.2529599959998,1051.2529599959998,1051.2529599959998,1,-1,azul,1,['N_B'],1054.0560028539999,1054.0560028539999,1054.0560028539999,1054.0560028539999,1056.07526222,1056.07526222,1056.07526222,1056.07526222,1056.07526222,1056.07526222,1056.07526222,1056.07526222,1058.09369342,1058.09369342,1058.09369342,1058.09369342,,,,,,,,,,,,,,,,,,,,,,,,,,,,,,,,,,,,,,,08,011,2022-09-27_09h06.39.510,test2,2022.2.4,59.999342527172786,
0,0,0,0,33,0,33,0,1058.09369342,1058.09369342,1058.09369342,1058.09369342,1058.09369342,1058.09369342,1058.09369342,-1,1,rojo,0,['N_A'],1063.216066861,1063.216066861,1063.216066861,1063.216066861,1065.235769621,1065.235769621,1065.235769621,1065.235769621,1065.235769621,1065.235769621,1065.235769621,1065.235769621,1067.2535771579999,1067.2535771579999,1067.2535771579999,1067.2535771579999,,,,,,,,,,,,,,,,,,,,,,,,,,,,,,,,,,,,,,,08,011,2022-09-27_09h06.39.510,test2,2022.2.4,59.999342527172786,
0,0,0,0,34,0,34,0,1067.2535771579999,1067.2535771579999,1067.2535771579999,1067.2535771579999,1067.2535771579999,1067.2535771579999,1067.2535771579999,-1,1,azul,0,['N_B'],1071.274590965,1071.274590965,1071.274590965,1071.274590965,1073.293533762,1073.293533762,1073.293533762,1073.293533762,1073.293533762,1073.293533762,1073.293533762,1073.293533762,1075.3122028,1075.3122028,1075.3122028,1075.3122028,,,,,,,,,,,,,,,,,,,,,,,,,,,,,,,,,,,,,,,08,011,2022-09-27_09h06.39.510,test2,2022.2.4,59.999342527172786,
0,0,0,0,35,0,35,0,1075.3122028,1075.3122028,1075.3122028,1075.3122028,1075.3122028,1075.3122028,1075.3122028,1,-1,azul,1,['N_B'],1078.0829686979998,1078.0829686979998,1078.0829686979998,1078.0829686979998,1080.119451904,1080.119451904,1080.119451904,1080.119451904,1080.119451904,1080.119451904,1080.119451904,1080.119451904,1082.1377607739998,1082.1377607739998,1082.1377607739998,1082.1377607739998,,,,,,,,,,,,,,,,,,,,,,,,,,,,,,,,,,,,,,,08,011,2022-09-27_09h06.39.510,test2,2022.2.4,59.999342527172786,
0,0,0,0,36,0,36,0,1082.1377607739998,1082.1377607739998,1082.1377607739998,1082.1377607739998,1082.1377607739998,1082.1377607739998,1082.1377607739998,1,-1,azul,1,['N_B'],1085.6904727919998,1085.6904727919998,1085.6904727919998,1085.6904727919998,1087.709707369,1087.709707369,1087.709707369,1087.709707369,1087.709707369,1087.709707369,1087.709707369,1087.709707369,1089.7291835199999,1089.7291835199999,1089.7291835199999,1089.7291835199999,,,,,,,,,,,,,,,,,,,,,,,,,,,,,,,,,,,,,,,08,011,2022-09-27_09h06.39.510,test2,2022.2.4,59.999342527172786,
0,0,0,0,37,0,37,0,1089.7291835199999,1089.7291835199999,1089.7291835199999,1089.7291835199999,1089.7291835199999,1089.7291835199999,1089.7291835199999,1,1,azul,0,['N_A'],1097.153890633,1097.153890633,1097.153890633,1097.153890633,1099.172404452,1099.172404452,1099.172404452,1099.172404452,1099.172404452,1099.172404452,1099.172404452,1099.172404452,1101.20970623,1101.20970623,1101.20970623,1101.20970623,,,,,,,,,,,,,,,,,,,,,,,,,,,,,,,,,,,,,,,08,011,2022-09-27_09h06.39.510,test2,2022.2.4,59.999342527172786,
0,0,0,0,38,0,38,0,1101.20970623,1101.20970623,1101.20970623,1101.20970623,1101.20970623,1101.20970623,1101.20970623,1,-1,rojo,1,['N_A'],1105.1293708169999,1105.1293708169999,1105.1293708169999,1105.1293708169999,1107.14796905,1107.14796905,1107.14796905,1107.14796905,1107.14796905,1107.14796905,1107.14796905,1107.14796905,1109.1670281709999,1109.1670281709999,1109.1670281709999,1109.1670281709999,,,,,,,,,,,,,,,,,,,,,,,,,,,,,,,,,,,,,,,08,011,2022-09-27_09h06.39.510,test2,2022.2.4,59.999342527172786,
0,0,0,0,39,0,39,0,1109.1670281709999,1109.1670281709999,1109.1670281709999,1109.1670281709999,1109.1670281709999,1109.1670281709999,1109.1670281709999,-1,1,azul,0,['N_B'],1115.8411641389998,1115.8411641389998,1115.8411641389998,1115.8411641389998,1117.859671946,1117.859671946,1117.859671946,1117.859671946,1117.859671946,1117.859671946,1117.859671946,1117.859671946,1119.8787440469998,1119.8787440469998,1119.8787440469998,1119.8787440469998,,,,,,,,,,,,,,,,,,,,,,,,,,,,,,,,,,,,,,,08,011,2022-09-27_09h06.39.510,test2,2022.2.4,59.999342527172786,
0,0,0,0,40,0,40,0,1119.8787440469998,1119.8787440469998,1119.8787440469998,1119.8787440469998,1119.8787440469998,1119.8787440469998,1119.8787440469998,-1,-1,rojo,0,['N_A'],1122.097149769,1122.097149769,1122.097149769,1122.097149769,1124.13388908,1124.13388908,1124.13388908,1124.13388908,1124.13388908,1124.13388908,1124.13388908,1124.13388908,1126.1522562599998,1126.1522562599998,1126.1522562599998,1126.1522562599998,,,,,,,,,,,,,,,,,,,,,,,,,,,,,,,,,,,,,,,08,011,2022-09-27_09h06.39.510,test2,2022.2.4,59.999342527172786,
0,0,0,0,41,0,41,0,1126.1522562599998,1126.1522562599998,1126.1522562599998,1126.1522562599998,1126.1522562599998,1126.1522562599998,1126.1522562599998,-1,-1,azul,1,['N_A'],1127.9208055929998,1127.9208055929998,1127.9208055929998,1127.9208055929998,1129.9572742809999,1129.9572742809999,1129.9572742809999,1129.9572742809999,1129.9572742809999,1129.9572742809999,1129.9572742809999,1129.9572742809999,1131.974914384,1131.974914384,1131.974914384,1131.974914384,,,,,,,,,,,,,,,,,,,,,,,,,,,,,,,,,,,,,,,08,011,2022-09-27_09h06.39.510,test2,2022.2.4,59.999342527172786,
0,0,0,0,42,0,42,0,1131.974914384,1131.974914384,1131.974914384,1131.974914384,1131.974914384,1131.974914384,1131.974914384,1,-1,rojo,0,['N_B'],1134.144532243,1134.144532243,1134.144532243,1134.144532243,1136.180561311,1136.180561311,1136.180561311,1136.180561311,1136.180561311,1136.180561311,1136.180561311,1136.180561311,1138.1982462019998,1138.1982462019998,1138.1982462019998,1138.1982462019998,,,,,,,,,,,,,,,,,,,,,,,,,,,,,,,,,,,,,,,08,011,2022-09-27_09h06.39.510,test2,2022.2.4,59.999342527172786,
0,0,0,0,43,0,43,0,1138.1982462019998,1138.1982462019998,1138.1982462019998,1138.1982462019998,1138.1982462019998,1138.1982462019998,1138.1982462019998,-1,-1,rojo,1,['N_B'],1142.703646445,1142.703646445,1142.703646445,1142.703646445,1144.739989855,1144.739989855,1144.739989855,1144.739989855,1144.739989855,1144.739989855,1144.739989855,1144.739989855,1146.7580549939998,1146.7580549939998,1146.7580549939998,1146.7580549939998,,,,,,,,,,,,,,,,,,,,,,,,,,,,,,,,,,,,,,,08,011,2022-09-27_09h06.39.510,test2,2022.2.4,59.999342527172786,
0,0,0,0,44,0,44,0,1146.7580549939998,1146.7580549939998,1146.7580549939998,1146.7580549939998,1146.7580549939998,1146.7580549939998,1146.7580549939998,1,-1,azul,0,['N_A'],1149.311510685,1149.311510685,1149.311510685,1149.311510685,1151.347263439,1151.347263439,1151.347263439,1151.347263439,1151.347263439,1151.347263439,1151.347263439,1151.347263439,1153.365936172,1153.365936172,1153.365936172,1153.365936172,,,,,,,,,,,,,,,,,,,,,,,,,,,,,,,,,,,,,,,08,011,2022-09-27_09h06.39.510,test2,2022.2.4,59.999342527172786,
0,0,0,0,45,0,45,0,1153.365936172,1153.365936172,1153.365936172,1153.365936172,1153.365936172,1153.365936172,1153.365936172,1,-1,rojo,1,['N_A'],1155.751057603,1155.751057603,1155.751057603,1155.751057603,1157.788551402,1157.788551402,1157.788551402,1157.788551402,1157.788551402,1157.788551402,1157.788551402,1157.788551402,1159.805457127,1159.805457127,1159.805457127,1159.805457127,,,,,,,,,,,,,,,,,,,,,,,,,,,,,,,,,,,,,,,08,011,2022-09-27_09h06.39.510,test2,2022.2.4,59.999342527172786,
0,0,0,0,46,0,46,0,1159.805457127,1159.805457127,1159.805457127,1159.805457127,1159.805457127,1159.805457127,1159.805457127,1,-1,rojo,0,['N_B'],1163.260889874,1163.260889874,1163.260889874,1163.260889874,1165.296573297,1165.296573297,1165.296573297,1165.296573297,1165.296573297,1165.296573297,1165.296573297,1165.296573297,1167.314769293,1167.314769293,1167.314769293,1167.314769293,,,,,,,,,,,,,,,,,,,,,,,,,,,,,,,,,,,,,,,08,011,2022-09-27_09h06.39.510,test2,2022.2.4,59.999342527172786,
0,0,0,0,47,0,47,0,1167.314769293,1167.314769293,1167.314769293,1167.314769293,1167.314769293,1167.314769293,1167.314769293,1,-1,azul,0,['N_A'],1170.017029482,1170.017029482,1170.017029482,1170.017029482,1172.054083362,1172.054083362,1172.054083362,1172.054083362,1172.054083362,1172.054083362,1172.054083362,1172.054083362,1174.0723005779998,1174.0723005779998,1174.0723005779998,1174.0723005779998,,,,,,,,,,,,,,,,,,,,,,,,,,,,,,,,,,,,,,,08,011,2022-09-27_09h06.39.510,test2,2022.2.4,59.999342527172786,
0,0,0,0,48,0,48,0,1174.0723005779998,1174.0723005779998,1174.0723005779998,1174.0723005779998,1174.0723005779998,1174.0723005779998,1174.0723005779998,1,-1,rojo,0,['N_B'],1177.74296736,1177.74296736,1177.74296736,1177.74296736,1179.761396506,1179.761396506,1179.761396506,1179.761396506,1179.761396506,1179.761396506,1179.761396506,1179.761396506,1181.780087869,1181.780087869,1181.780087869,1181.780087869,,,,,,,,,,,,,,,,,,,,,,,,,,,,,,,,,,,,,,,08,011,2022-09-27_09h06.39.510,test2,2022.2.4,59.999342527172786,
0,0,0,0,49,0,49,0,1181.780087869,1181.780087869,1181.780087869,1181.780087869,1181.780087869,1181.780087869,1181.780087869,1,1,azul,1,['N_B'],1184.0495935669999,1184.0495935669999,1184.0495935669999,1184.0495935669999,1186.0701825659999,1186.0701825659999,1186.0701825659999,1186.0701825659999,1186.0701825659999,1186.0701825659999,1186.0701825659999,1186.0701825659999,1188.086950897,1188.086950897,1188.086950897,1188.086950897,,,,,,,,,,,,,,,,,,,,,,,,,,,,,,,,,,,,,,,08,011,2022-09-27_09h06.39.510,test2,2022.2.4,59.999342527172786,
0,0,0,0,50,0,50,0,1188.086950897,1188.086950897,1188.086950897,1188.086950897,1188.086950897,1188.086950897,1188.086950897,1,1,azul,1,['N_B'],1193.592667786,1193.592667786,1193.592667786,1193.592667786,1195.612151675,1195.612151675,1195.612151675,1195.612151675,1195.612151675,1195.612151675,1195.612151675,1195.612151675,1197.631575933,1197.631575933,1197.631575933,1197.631575933,,,,,,,,,,,,,,,,,,,,,,,,,,,,,,,,,,,,,,,08,011,2022-09-27_09h06.39.510,test2,2022.2.4,59.999342527172786,
0,0,0,0,51,0,51,0,1197.631575933,1197.631575933,1197.631575933,1197.631575933,1197.631575933,1197.631575933,1197.631575933,-1,-1,rojo,1,['N_B'],1201.70266432,1201.70266432,1201.70266432,1201.70266432,1203.72086322,1203.72086322,1203.72086322,1203.72086322,1203.72086322,1203.72086322,1203.72086322,1203.72086322,1205.7405580519999,1205.7405580519999,1205.7405580519999,1205.7405580519999,,,,,,,,,,,,,,,,,,,,,,,,,,,,,,,,,,,,,,,08,011,2022-09-27_09h06.39.510,test2,2022.2.4,59.999342527172786,
0,0,0,0,52,0,52,0,1205.7405580519999,1205.7405580519999,1205.7405580519999,1205.7405580519999,1205.7405580519999,1205.7405580519999,1205.7405580519999,-1,1,rojo,0,['N_A'],1209.1941980069998,1209.1941980069998,1209.1941980069998,1209.1941980069998,1211.2139808,1211.2139808,1211.2139808,1211.2139808,1211.2139808,1211.2139808,1211.2139808,1211.2139808,1213.2318026199998,1213.2318026199998,1213.2318026199998,1213.2318026199998,,,,,,,,,,,,,,,,,,,,,,,,,,,,,,,,,,,,,,,08,011,2022-09-27_09h06.39.510,test2,2022.2.4,59.999342527172786,
0,0,0,0,53,0,53,0,1213.2318026199998,1213.2318026199998,1213.2318026199998,1213.2318026199998,1213.2318026199998,1213.2318026199998,1213.2318026199998,-1,1,azul,0,['N_B'],1218.320024826,1218.320024826,1218.320024826,1218.320024826,1220.339580778,1220.339580778,1220.339580778,1220.339580778,1220.339580778,1220.339580778,1220.339580778,1220.339580778,1222.358489387,1222.358489387,1222.358489387,1222.358489387,,,,,,,,,,,,,,,,,,,,,,,,,,,,,,,,,,,,,,,08,011,2022-09-27_09h06.39.510,test2,2022.2.4,59.999342527172786,
0,0,0,0,54,0,54,0,1222.358489387,1222.358489387,1222.358489387,1222.358489387,1222.358489387,1222.358489387,1222.358489387,-1,-1,rojo,0,['N_A'],1225.294353363,1225.294353363,1225.294353363,1225.294353363,1227.330711268,1227.330711268,1227.330711268,1227.330711268,1227.330711268,1227.330711268,1227.330711268,1227.330711268,1229.349732811,1229.349732811,1229.349732811,1229.349732811,,,,,,,,,,,,,,,,,,,,,,,,,,,,,,,,,,,,,,,08,011,2022-09-27_09h06.39.510,test2,2022.2.4,59.999342527172786,
0,0,0,0,55,0,55,0,1229.349732811,1229.349732811,1229.349732811,1229.349732811,1229.349732811,1229.349732811,1229.349732811,1,-1,rojo,0,['N_B'],1232.0685982339999,1232.0685982339999,1232.0685982339999,1232.0685982339999,1234.087463823,1234.087463823,1234.087463823,1234.087463823,1234.087463823,1234.087463823,1234.087463823,1234.087463823,1236.107426824,1236.107426824,1236.107426824,1236.107426824,,,,,,,,,,,,,,,,,,,,,,,,,,,,,,,,,,,,,,,08,011,2022-09-27_09h06.39.510,test2,2022.2.4,59.999342527172786,
0,0,0,0,56,0,56,0,1236.107426824,1236.107426824,1236.107426824,1236.107426824,1236.107426824,1236.107426824,1236.107426824,-1,1,rojo,1,['N_B'],1238.776419754,1238.776419754,1238.776419754,1238.776419754,1240.795785844,1240.795785844,1240.795785844,1240.795785844,1240.795785844,1240.795785844,1240.795785844,1240.795785844,1242.813744763,1242.813744763,1242.813744763,1242.813744763,,,,,,,,,,,,,,,,,,,,,,,,,,,,,,,,,,,,,,,08,011,2022-09-27_09h06.39.510,test2,2022.2.4,59.999342527172786,
0,0,0,0,57,0,57,0,1242.813744763,1242.813744763,1242.813744763,1242.813744763,1242.813744763,1242.813744763,1242.813744763,1,-1,azul,0,['N_A'],1246.1014671179998,1246.1014671179998,1246.1014671179998,1246.1014671179998,1248.120198825,1248.120198825,1248.120198825,1248.120198825,1248.120198825,1248.120198825,1248.120198825,1248.120198825,1250.1394815019999,1250.1394815019999,1250.1394815019999,1250.1394815019999,,,,,,,,,,,,,,,,,,,,,,,,,,,,,,,,,,,,,,,08,011,2022-09-27_09h06.39.510,test2,2022.2.4,59.999342527172786,
0,0,0,0,58,0,58,0,1250.1394815019999,1250.1394815019999,1250.1394815019999,1250.1394815019999,1250.1394815019999,1250.1394815019999,1250.1394815019999,-1,1,azul,1,['N_A'],1254.192893764,1254.192893764,1254.192893764,1254.192893764,1256.212175251,1256.212175251,1256.212175251,1256.212175251,1256.212175251,1256.212175251,1256.212175251,1256.212175251,1258.2308617709998,1258.2308617709998,1258.2308617709998,1258.2308617709998,,,,,,,,,,,,,,,,,,,,,,,,,,,,,,,,,,,,,,,08,011,2022-09-27_09h06.39.510,test2,2022.2.4,59.999342527172786,
0,0,0,0,59,0,59,0,1258.2308617709998,1258.2308617709998,1258.2308617709998,1258.2308617709998,1258.2308617709998,1258.2308617709998,1258.2308617709998,1,-1,rojo,0,['N_B'],1262.018481916,1262.018481916,1262.018481916,1262.018481916,1264.0552600629999,1264.0552600629999,1264.0552600629999,1264.0552600629999,1264.0552600629999,1264.0552600629999,1264.0552600629999,1264.0552600629999,1266.074385384,1266.074385384,1266.074385384,1266.074385384,,,,,,,,,,,,,,,,,,,,,,,,,,,,,,,,,,,,,,,08,011,2022-09-27_09h06.39.510,test2,2022.2.4,59.999342527172786,
0,0,0,0,60,0,60,0,1266.074385384,1266.074385384,1266.074385384,1266.074385384,1266.074385384,1266.074385384,1266.074385384,1,-1,azul,0,['N_A'],1270.028425647,1270.028425647,1270.028425647,1270.028425647,1272.064273627,1272.064273627,1272.064273627,1272.064273627,1272.064273627,1272.064273627,1272.064273627,1272.064273627,1274.081485314,1274.081485314,1274.081485314,1274.081485314,,,,,,,,,,,,,,,,,,,,,,,,,,,,,,,,,,,,,,,08,011,2022-09-27_09h06.39.510,test2,2022.2.4,59.999342527172786,
0,0,0,0,61,0,61,0,1274.081485314,1274.081485314,1274.081485314,1274.081485314,1274.081485314,1274.081485314,1274.081485314,1,-1,rojo,1,['N_A'],1276.851648201,1276.851648201,1276.851648201,1276.851648201,1278.888527736,1278.888527736,1278.888527736,1278.888527736,1278.888527736,1278.888527736,1278.888527736,1278.888527736,1280.9058955389999,1280.9058955389999,1280.9058955389999,1280.9058955389999,,,,,,,,,,,,,,,,,,,,,,,,,,,,,,,,,,,,,,,08,011,2022-09-27_09h06.39.510,test2,2022.2.4,59.999342527172786,
0,0,0,0,62,0,62,0,1280.9058955389999,1280.9058955389999,1280.9058955389999,1280.9058955389999,1280.9058955389999,1280.9058955389999,1280.9058955389999,-1,-1,azul,1,['N_A'],1283.341680805,1283.341680805,1283.341680805,1283.341680805,1285.361025067,1285.361025067,1285.361025067,1285.361025067,1285.361025067,1285.361025067,1285.361025067,1285.361025067,1287.3797502,1287.3797502,1287.3797502,1287.3797502,,,,,,,,,,,,,,,,,,,,,,,,,,,,,,,,,,,,,,,08,011,2022-09-27_09h06.39.510,test2,2022.2.4,59.999342527172786,
0,0,0,0,63,0,63,0,1287.3797502,1287.3797502,1287.3797502,1287.3797502,1287.3797502,1287.3797502,1287.3797502,-1,1,azul,1,['N_A'],1290.633571509,1290.633571509,1290.633571509,1290.633571509,1292.6532724229999,1292.6532724229999,1292.6532724229999,1292.6532724229999,1292.6532724229999,1292.6532724229999,1292.6532724229999,1292.6532724229999,1294.6719674659998,1294.6719674659998,1294.6719674659998,1294.6719674659998,,,,,,,,,,,,,,,,,,,,,,,,,,,,,,,,,,,,,,,08,011,2022-09-27_09h06.39.510,test2,2022.2.4,59.999342527172786,
0,0,0,0,64,0,64,0,1294.6719674659998,1294.6719674659998,1294.6719674659998,1294.6719674659998,1294.6719674659998,1294.6719674659998,1294.6719674659998,1,1,rojo,0,['N_B'],1299.577187447,1299.577187447,1299.577187447,1299.577187447,1301.595309635,1301.595309635,1301.595309635,1301.595309635,1301.595309635,1301.595309635,1301.595309635,1301.595309635,1303.6151389249999,1303.6151389249999,1303.6151389249999,1303.6151389249999,,,,,,,,,,,,,,,,,,,,,,,,,,,,,,,,,,,,,,,08,011,2022-09-27_09h06.39.510,test2,2022.2.4,59.999342527172786,
0,0,0,0,65,0,65,0,1303.6151389249999,1303.6151389249999,1303.6151389249999,1303.6151389249999,1303.6151389249999,1303.6151389249999,1303.6151389249999,1,-1,azul,0,['N_A'],1305.6334147559999,1305.6334147559999,1305.6334147559999,1305.6334147559999,1307.652705837,1307.652705837,1307.652705837,1307.652705837,1307.652705837,1307.652705837,1307.652705837,1307.652705837,1309.671672177,1309.671672177,1309.671672177,1309.671672177,,,,,,,,,,,,,,,,,,,,,,,,,,,,,,,,,,,,,,,08,011,2022-09-27_09h06.39.510,test2,2022.2.4,59.999342527172786,
0,0,0,0,66,0,66,0,1309.671672177,1309.671672177,1309.671672177,1309.671672177,1309.671672177,1309.671672177,1309.671672177,1,1,rojo,1,['N_A'],1313.258652843,1313.258652843,1313.258652843,1313.258652843,1315.295325702,1315.295325702,1315.295325702,1315.295325702,1315.295325702,1315.295325702,1315.295325702,1315.295325702,1317.3129397399998,1317.3129397399998,1317.3129397399998,1317.3129397399998,,,,,,,,,,,,,,,,,,,,,,,,,,,,,,,,,,,,,,,08,011,2022-09-27_09h06.39.510,test2,2022.2.4,59.999342527172786,
0,0,0,0,67,0,67,0,1317.3129397399998,1317.3129397399998,1317.3129397399998,1317.3129397399998,1317.3129397399998,1317.3129397399998,1317.3129397399998,1,-1,rojo,0,['N_B'],1321.200764886,1321.200764886,1321.200764886,1321.200764886,1323.2373389309998,1323.2373389309998,1323.2373389309998,1323.2373389309998,1323.2373389309998,1323.2373389309998,1323.2373389309998,1323.2373389309998,1325.272912615,1325.272912615,1325.272912615,1325.272912615,,,,,,,,,,,,,,,,,,,,,,,,,,,,,,,,,,,,,,,08,011,2022-09-27_09h06.39.510,test2,2022.2.4,59.999342527172786,
0,0,0,0,68,0,68,0,1325.272912615,1325.272912615,1325.272912615,1325.272912615,1325.272912615,1325.272912615,1325.272912615,1,-1,azul,0,['N_A'],1329.176159965,1329.176159965,1329.176159965,1329.176159965,1331.212350115,1331.212350115,1331.212350115,1331.212350115,1331.212350115,1331.212350115,1331.212350115,1331.212350115,1333.2308942749999,1333.2308942749999,1333.2308942749999,1333.2308942749999,,,,,,,,,,,,,,,,,,,,,,,,,,,,,,,,,,,,,,,08,011,2022-09-27_09h06.39.510,test2,2022.2.4,59.999342527172786,
0,0,0,0,69,0,69,0,1333.2308942749999,1333.2308942749999,1333.2308942749999,1333.2308942749999,1333.2308942749999,1333.2308942749999,1333.2308942749999,-1,-1,azul,0,['N_B'],1336.416980989,1336.416980989,1336.416980989,1336.416980989,1338.4549243949998,1338.4549243949998,1338.4549243949998,1338.4549243949998,1338.4549243949998,1338.4549243949998,1338.4549243949998,1338.4549243949998,1340.472001253,1340.472001253,1340.472001253,1340.472001253,,,,,,,,,,,,,,,,,,,,,,,,,,,,,,,,,,,,,,,08,011,2022-09-27_09h06.39.510,test2,2022.2.4,59.999342527172786,
0,0,0,0,70,0,70,0,1340.472001253,1340.472001253,1340.472001253,1340.472001253,1340.472001253,1340.472001253,1340.472001253,1,-1,azul,0,['N_A'],1344.909641921,1344.909641921,1344.909641921,1344.909641921,1346.946559691,1346.946559691,1346.946559691,1346.946559691,1346.946559691,1346.946559691,1346.946559691,1346.946559691,1348.965034227,1348.965034227,1348.965034227,1348.965034227,,,,,,,,,,,,,,,,,,,,,,,,,,,,,,,,,,,,,,,08,011,2022-09-27_09h06.39.510,test2,2022.2.4,59.999342527172786,
0,0,0,0,71,0,71,0,1348.965034227,1348.965034227,1348.965034227,1348.965034227,1348.965034227,1348.965034227,1348.965034227,-1,-1,azul,0,['N_B'],1352.1677798399999,1352.1677798399999,1352.1677798399999,1352.1677798399999,1354.205181087,1354.205181087,1354.205181087,1354.205181087,1354.205181087,1354.205181087,1354.205181087,1354.205181087,1356.222504801,1356.222504801,1356.222504801,1356.222504801,,,,,,,,,,,,,,,,,,,,,,,,,,,,,,,,,,,,,,,08,011,2022-09-27_09h06.39.510,test2,2022.2.4,59.999342527172786,
0,0,0,0,72,0,72,0,1356.222504801,1356.222504801,1356.222504801,1356.222504801,1356.222504801,1356.222504801,1356.222504801,1,-1,azul,1,['N_B'],1358.174789985,1358.174789985,1358.174789985,1358.174789985,1360.211087016,1360.211087016,1360.211087016,1360.211087016,1360.211087016,1360.211087016,1360.211087016,1360.211087016,1362.229235409,1362.229235409,1362.229235409,1362.229235409,,,,,,,,,,,,,,,,,,,,,,,,,,,,,,,,,,,,,,,08,011,2022-09-27_09h06.39.510,test2,2022.2.4,59.999342527172786,
0,0,0,0,73,0,73,0,1362.229235409,1362.229235409,1362.229235409,1362.229235409,1362.229235409,1362.229235409,1362.229235409,1,-1,azul,1,['N_B'],1363.864651722,1363.864651722,1363.864651722,1363.864651722,1365.90120166,1365.90120166,1365.90120166,1365.90120166,1365.90120166,1365.90120166,1365.90120166,1365.90120166,1367.918426431,1367.918426431,1367.918426431,1367.918426431,,,,,,,,,,,,,,,,,,,,,,,,,,,,,,,,,,,,,,,08,011,2022-09-27_09h06.39.510,test2,2022.2.4,59.999342527172786,
0,0,0,0,74,0,74,0,1367.918426431,1367.918426431,1367.918426431,1367.918426431,1367.918426431,1367.918426431,1367.918426431,1,-1,azul,1,['N_B'],1369.4033984149999,1369.4033984149999,1369.4033984149999,1369.4033984149999,1371.440060985,1371.440060985,1371.440060985,1371.440060985,1371.440060985,1371.440060985,1371.440060985,1371.440060985,1373.4585713019999,1373.4585713019999,1373.4585713019999,1373.4585713019999,,,,,,,,,,,,,,,,,,,,,,,,,,,,,,,,,,,,,,,08,011,2022-09-27_09h06.39.510,test2,2022.2.4,59.999342527172786,
0,0,0,0,75,0,75,0,1373.4585713019999,1373.4585713019999,1373.4585713019999,1373.4585713019999,1373.4585713019999,1373.4585713019999,1373.4585713019999,-1,-1,rojo,0,['N_A'],1375.1100678179998,1375.1100678179998,1375.1100678179998,1375.1100678179998,1377.128787074,1377.128787074,1377.128787074,1377.128787074,1377.128787074,1377.128787074,1377.128787074,1377.128787074,1379.14847563,1379.14847563,1379.14847563,1379.14847563,,,,,,,,,,,,,,,,,,,,,,,,,,,,,,,,,,,,,,,08,011,2022-09-27_09h06.39.510,test2,2022.2.4,59.999342527172786,
0,0,0,0,76,0,76,0,1379.14847563,1379.14847563,1379.14847563,1379.14847563,1379.14847563,1379.14847563,1379.14847563,-1,1,azul,0,['N_B'],1385.4382085529999,1385.4382085529999,1385.4382085529999,1385.4382085529999,1387.456669271,1387.456669271,1387.456669271,1387.456669271,1387.456669271,1387.456669271,1387.456669271,1387.456669271,1389.475990002,1389.475990002,1389.475990002,1389.475990002,,,,,,,,,,,,,,,,,,,,,,,,,,,,,,,,,,,,,,,08,011,2022-09-27_09h06.39.510,test2,2022.2.4,59.999342527172786,
0,0,0,0,77,0,77,0,1389.475990002,1389.475990002,1389.475990002,1389.475990002,1389.475990002,1389.475990002,1389.475990002,1,-1,azul,0,['N_A'],1391.0443212339999,1391.0443212339999,1391.0443212339999,1391.0443212339999,1393.063278681,1393.063278681,1393.063278681,1393.063278681,1393.063278681,1393.063278681,1393.063278681,1393.063278681,1395.082039379,1395.082039379,1395.082039379,1395.082039379,,,,,,,,,,,,,,,,,,,,,,,,,,,,,,,,,,,,,,,08,011,2022-09-27_09h06.39.510,test2,2022.2.4,59.999342527172786,
0,0,0,0,78,0,78,0,1395.082039379,1395.082039379,1395.082039379,1395.082039379,1395.082039379,1395.082039379,1395.082039379,1,1,rojo,1,['N_A'],1397.485397819,1397.485397819,1397.485397819,1397.485397819,1399.503819006,1399.503819006,1399.503819006,1399.503819006,1399.503819006,1399.503819006,1399.503819006,1399.503819006,1401.5232440799998,1401.5232440799998,1401.5232440799998,1401.5232440799998,,,,,,,,,,,,,,,,,,,,,,,,,,,,,,,,,,,,,,,08,011,2022-09-27_09h06.39.510,test2,2022.2.4,59.999342527172786,
0,0,0,0,79,0,79,0,1401.5232440799998,1401.5232440799998,1401.5232440799998,1401.5232440799998,1401.5232440799998,1401.5232440799998,1401.5232440799998,-1,-1,azul,0,['N_B'],1404.4753905339999,1404.4753905339999,1404.4753905339999,1404.4753905339999,1406.512302441,1406.512302441,1406.512302441,1406.512302441,1406.512302441,1406.512302441,1406.512302441,1406.512302441,1408.530914348,1408.530914348,1408.530914348,1408.530914348,,,,,,,,,,,,,,,,,,,,,,,,,,,,,,,,,,,,,,,08,011,2022-09-27_09h06.39.510,test2,2022.2.4,59.999342527172786,
0,0,0,0,80,0,80,0,1408.530914348,1408.530914348,1408.530914348,1408.530914348,1408.530914348,1408.530914348,1408.530914348,1,1,azul,1,['N_B'],1411.133137712,1411.133137712,1411.133137712,1411.133137712,1413.152044705,1413.152044705,1413.152044705,1413.152044705,1413.152044705,1413.152044705,1413.152044705,1413.152044705,1415.170676939,1415.170676939,1415.170676939,1415.170676939,,,,,,,,,,,,,,,,,,,,,,,,,,,,,,,,,,,,,,,08,011,2022-09-27_09h06.39.510,test2,2022.2.4,59.999342527172786,
0,0,0,0,81,0,81,0,1415.170676939,1415.170676939,1415.170676939,1415.170676939,1415.170676939,1415.170676939,1415.170676939,1,-1,azul,0,['N_A'],1418.8749677429998,1418.8749677429998,1418.8749677429998,1418.8749677429998,1420.893615188,1420.893615188,1420.893615188,1420.893615188,1420.893615188,1420.893615188,1420.893615188,1420.893615188,1422.912482277,1422.912482277,1422.912482277,1422.912482277,,,,,,,,,,,,,,,,,,,,,,,,,,,,,,,,,,,,,,,08,011,2022-09-27_09h06.39.510,test2,2022.2.4,59.999342527172786,
0,0,0,0,82,0,82,0,1422.912482277,1422.912482277,1422.912482277,1422.912482277,1422.912482277,1422.912482277,1422.912482277,-1,1,azul,1,['N_A'],1425.598971099,1425.598971099,1425.598971099,1425.598971099,1427.61811559,1427.61811559,1427.61811559,1427.61811559,1427.61811559,1427.61811559,1427.61811559,1427.61811559,1429.636825701,1429.636825701,1429.636825701,1429.636825701,,,,,,,,,,,,,,,,,,,,,,,,,,,,,,,,,,,,,,,08,011,2022-09-27_09h06.39.510,test2,2022.2.4,59.999342527172786,
0,0,0,0,83,0,83,0,1429.636825701,1429.636825701,1429.636825701,1429.636825701,1429.636825701,1429.636825701,1429.636825701,-1,-1,azul,0,['N_B'],1434.5920451979998,1434.5920451979998,1434.5920451979998,1434.5920451979998,1436.6284715729998,1436.6284715729998,1436.6284715729998,1436.6284715729998,1436.6284715729998,1436.6284715729998,1436.6284715729998,1436.6284715729998,1438.665386337,1438.665386337,1438.665386337,1438.665386337,,,,,,,,,,,,,,,,,,,,,,,,,,,,,,,,,,,,,,,08,011,2022-09-27_09h06.39.510,test2,2022.2.4,59.999342527172786,
0,0,0,0,84,0,84,0,1438.665386337,1438.665386337,1438.665386337,1438.665386337,1438.665386337,1438.665386337,1438.665386337,1,-1,azul,0,['N_A'],1440.1983312769999,1440.1983312769999,1440.1983312769999,1440.1983312769999,1442.235235246,1442.235235246,1442.235235246,1442.235235246,1442.235235246,1442.235235246,1442.235235246,1442.235235246,1444.252690223,1444.252690223,1444.252690223,1444.252690223,,,,,,,,,,,,,,,,,,,,,,,,,,,,,,,,,,,,,,,08,011,2022-09-27_09h06.39.510,test2,2022.2.4,59.999342527172786,
0,0,0,0,85,0,85,0,1444.252690223,1444.252690223,1444.252690223,1444.252690223,1444.252690223,1444.252690223,1444.252690223,-1,-1,azul,1,['N_A'],1446.4730682699999,1446.4730682699999,1446.4730682699999,1446.4730682699999,1448.491732664,1448.491732664,1448.491732664,1448.491732664,1448.491732664,1448.491732664,1448.491732664,1448.491732664,1450.5098141879998,1450.5098141879998,1450.5098141879998,1450.5098141879998,,,,,,,,,,,,,,,,,,,,,,,,,,,,,,,,,,,,,,,08,011,2022-09-27_09h06.39.510,test2,2022.2.4,59.999342527172786,
0,0,0,0,86,0,86,0,1450.5098141879998,1450.5098141879998,1450.5098141879998,1450.5098141879998,1450.5098141879998,1450.5098141879998,1450.5098141879998,1,1,rojo,1,['N_A'],1452.77898665,1452.77898665,1452.77898665,1452.77898665,1454.79830387,1454.79830387,1454.79830387,1454.79830387,1454.79830387,1454.79830387,1454.79830387,1454.79830387,1456.8171191669999,1456.8171191669999,1456.8171191669999,1456.8171191669999,,,,,,,,,,,,,,,,,,,,,,,,,,,,,,,,,,,,,,,08,011,2022-09-27_09h06.39.510,test2,2022.2.4,59.999342527172786,
0,0,0,0,87,0,87,0,1456.8171191669999,1456.8171191669999,1456.8171191669999,1456.8171191669999,1456.8171191669999,1456.8171191669999,1456.8171191669999,1,-1,rojo,0,['N_B'],1459.419395015,1459.419395015,1459.419395015,1459.419395015,1461.4564083569999,1461.4564083569999,1461.4564083569999,1461.4564083569999,1461.4564083569999,1461.4564083569999,1461.4564083569999,1461.4564083569999,1463.474867814,1463.474867814,1463.474867814,1463.474867814,,,,,,,,,,,,,,,,,,,,,,,,,,,,,,,,,,,,,,,08,011,2022-09-27_09h06.39.510,test2,2022.2.4,59.999342527172786,
0,0,0,0,88,0,88,0,1463.474867814,1463.474867814,1463.474867814,1463.474867814,1463.474867814,1463.474867814,1463.474867814,-1,-1,rojo,0,['N_A'],1465.5605731189999,1465.5605731189999,1465.5605731189999,1465.5605731189999,1467.59581571,1467.59581571,1467.59581571,1467.59581571,1467.59581571,1467.59581571,1467.59581571,1467.59581571,1469.6139023179999,1469.6139023179999,1469.6139023179999,1469.6139023179999,,,,,,,,,,,,,,,,,,,,,,,,,,,,,,,,,,,,,,,08,011,2022-09-27_09h06.39.510,test2,2022.2.4,59.999342527172786,
0,0,0,0,89,0,89,0,1469.6139023179999,1469.6139023179999,1469.6139023179999,1469.6139023179999,1469.6139023179999,1469.6139023179999,1469.6139023179999,-1,-1,azul,0,['N_B'],1472.0502586329999,1472.0502586329999,1472.0502586329999,1472.0502586329999,1474.087160392,1474.087160392,1474.087160392,1474.087160392,1474.087160392,1474.087160392,1474.087160392,1474.087160392,1476.105230784,1476.105230784,1476.105230784,1476.105230784,,,,,,,,,,,,,,,,,,,,,,,,,,,,,,,,,,,,,,,08,011,2022-09-27_09h06.39.510,test2,2022.2.4,59.999342527172786,
0,0,0,0,90,0,90,0,1476.105230784,1476.105230784,1476.105230784,1476.105230784,1476.105230784,1476.105230784,1476.105230784,1,-1,azul,1,['N_B'],1479.10836154,1479.10836154,1479.10836154,1479.10836154,1481.144847244,1481.144847244,1481.144847244,1481.144847244,1481.144847244,1481.144847244,1481.144847244,1481.144847244,1483.1621017809998,1483.1621017809998,1483.1621017809998,1483.1621017809998,,,,,,,,,,,,,,,,,,,,,,,,,,,,,,,,,,,,,,,08,011,2022-09-27_09h06.39.510,test2,2022.2.4,59.999342527172786,
0,0,0,0,91,0,91,0,1483.1621017809998,1483.1621017809998,1483.1621017809998,1483.1621017809998,1483.1621017809998,1483.1621017809998,1483.1621017809998,1,-1,azul,0,['N_A'],1485.533383735,1485.533383735,1485.533383735,1485.533383735,1487.5510447519998,1487.5510447519998,1487.5510447519998,1487.5510447519998,1487.5510447519998,1487.5510447519998,1487.5510447519998,1487.5510447519998,1489.570327485,1489.570327485,1489.570327485,1489.570327485,,,,,,,,,,,,,,,,,,,,,,,,,,,,,,,,,,,,,,,08,011,2022-09-27_09h06.39.510,test2,2022.2.4,59.999342527172786,
0,0,0,0,92,0,92,0,1489.570327485,1489.570327485,1489.570327485,1489.570327485,1489.570327485,1489.570327485,1489.570327485,1,1,rojo,1,['N_A'],1492.806485306,1492.806485306,1492.806485306,1492.806485306,1494.8253059459998,1494.8253059459998,1494.8253059459998,1494.8253059459998,1494.8253059459998,1494.8253059459998,1494.8253059459998,1494.8253059459998,1496.843848609,1496.843848609,1496.843848609,1496.843848609,,,,,,,,,,,,,,,,,,,,,,,,,,,,,,,,,,,,,,,08,011,2022-09-27_09h06.39.510,test2,2022.2.4,59.999342527172786,
0,0,0,0,93,0,93,0,1496.843848609,1496.843848609,1496.843848609,1496.843848609,1496.843848609,1496.843848609,1496.843848609,1,-1,rojo,0,['N_B'],1498.813859809,1498.813859809,1498.813859809,1498.813859809,1500.8316921609999,1500.8316921609999,1500.8316921609999,1500.8316921609999,1500.8316921609999,1500.8316921609999,1500.8316921609999,1500.8316921609999,1502.851602214,1502.851602214,1502.851602214,1502.851602214,,,,,,,,,,,,,,,,,,,,,,,,,,,,,,,,,,,,,,,08,011,2022-09-27_09h06.39.510,test2,2022.2.4,59.999342527172786,
0,0,0,0,94,0,94,0,1502.851602214,1502.851602214,1502.851602214,1502.851602214,1502.851602214,1502.851602214,1502.851602214,-1,1,rojo,1,['N_B'],1507.990037069,1507.990037069,1507.990037069,1507.990037069,1510.008887731,1510.008887731,1510.008887731,1510.008887731,1510.008887731,1510.008887731,1510.008887731,1510.008887731,1512.027363042,1512.027363042,1512.027363042,1512.027363042,,,,,,,,,,,,,,,,,,,,,,,,,,,,,,,,,,,,,,,08,011,2022-09-27_09h06.39.510,test2,2022.2.4,59.999342527172786,
0,0,0,0,95,0,95,0,1512.027363042,1512.027363042,1512.027363042,1512.027363042,1512.027363042,1512.027363042,1512.027363042,1,-1,azul,0,['N_A'],1514.7979728599998,1514.7979728599998,1514.7979728599998,1514.7979728599998,1516.8165360649998,1516.8165360649998,1516.8165360649998,1516.8165360649998,1516.8165360649998,1516.8165360649998,1516.8165360649998,1516.8165360649998,1518.835401056,1518.835401056,1518.835401056,1518.835401056,,,,,,,,,,,,,,,,,,,,,,,,,,,,,,,,,,,,,,,08,011,2022-09-27_09h06.39.510,test2,2022.2.4,59.999342527172786,
0,0,0,0,96,0,96,0,1518.835401056,1518.835401056,1518.835401056,1518.835401056,1518.835401056,1518.835401056,1518.835401056,1,1,rojo,1,['N_A'],1522.839827721,1522.839827721,1522.839827721,1522.839827721,1524.86007738,1524.86007738,1524.86007738,1524.86007738,1524.86007738,1524.86007738,1524.86007738,1524.86007738,1526.877745283,1526.877745283,1526.877745283,1526.877745283,,,,,,,,,,,,,,,,,,,,,,,,,,,,,,,,,,,,,,,08,011,2022-09-27_09h06.39.510,test2,2022.2.4,59.999342527172786,
0,0,0,0,97,0,97,0,1526.877745283,1526.877745283,1526.877745283,1526.877745283,1526.877745283,1526.877745283,1526.877745283,1,1,rojo,0,['N_B'],1531.6832978349998,1531.6832978349998,1531.6832978349998,1531.6832978349998,1533.7021787279998,1533.7021787279998,1533.7021787279998,1533.7021787279998,1533.7021787279998,1533.7021787279998,1533.7021787279998,1533.7021787279998,1535.7382154719999,1535.7382154719999,1535.7382154719999,1535.7382154719999,,,,,,,,,,,,,,,,,,,,,,,,,,,,,,,,,,,,,,,08,011,2022-09-27_09h06.39.510,test2,2022.2.4,59.999342527172786,
0,0,0,0,98,0,98,0,1535.7382154719999,1535.7382154719999,1535.7382154719999,1535.7382154719999,1535.7382154719999,1535.7382154719999,1535.7382154719999,1,-1,azul,1,['N_B'],1537.823119036,1537.823119036,1537.823119036,1537.823119036,1539.8597350989999,1539.8597350989999,1539.8597350989999,1539.8597350989999,1539.8597350989999,1539.8597350989999,1539.8597350989999,1539.8597350989999,1541.877044843,1541.877044843,1541.877044843,1541.877044843,,,,,,,,,,,,,,,,,,,,,,,,,,,,,,,,,,,,,,,08,011,2022-09-27_09h06.39.510,test2,2022.2.4,59.999342527172786,
0,0,0,0,99,0,99,0,1541.877044843,1541.877044843,1541.877044843,1541.877044843,1541.877044843,1541.877044843,1541.877044843,1,-1,azul,0,['N_A'],1544.1964311529998,1544.1964311529998,1544.1964311529998,1544.1964311529998,1546.232913389,1546.232913389,1546.232913389,1546.232913389,1546.232913389,1546.232913389,1546.232913389,1546.232913389,1548.251564335,1548.251564335,1548.251564335,1548.251564335,,,,,,,,,,,,,,,,,,,,,,,,,,,,,,,,,,,,,,,08,011,2022-09-27_09h06.39.510,test2,2022.2.4,59.999342527172786,
0,0,0,0,100,0,100,0,1548.251564335,1548.251564335,1548.251564335,1548.251564335,1548.251564335,1548.251564335,1548.251564335,-1,-1,azul,0,['N_B'],1551.939065561,1551.939065561,1551.939065561,1551.939065561,1553.9753470409998,1553.9753470409998,1553.9753470409998,1553.9753470409998,1553.9753470409998,1553.9753470409998,1553.9753470409998,1553.9753470409998,1555.992892223,1555.992892223,1555.992892223,1555.992892223,,,,,,,,,,,,,,,,,,,,,,,,,,,,,,,,,,,,,,,08,011,2022-09-27_09h06.39.510,test2,2022.2.4,59.999342527172786,
0,0,0,0,101,0,101,0,1555.992892223,1555.992892223,1555.992892223,1555.992892223,1555.992892223,1555.992892223,1555.992892223,1,-1,azul,0,['N_A'],1558.245627776,1558.245627776,1558.245627776,1558.245627776,1560.281900819,1560.281900819,1560.281900819,1560.281900819,1560.281900819,1560.281900819,1560.281900819,1560.281900819,1562.30058543,1562.30058543,1562.30058543,1562.30058543,,,,,,,,,,,,,,,,,,,,,,,,,,,,,,,,,,,,,,,08,011,2022-09-27_09h06.39.510,test2,2022.2.4,59.999342527172786,
0,0,0,0,102,0,102,0,1562.30058543,1562.30058543,1562.30058543,1562.30058543,1562.30058543,1562.30058543,1562.30058543,1,-1,rojo,1,['N_A'],1564.1022564979999,1564.1022564979999,1564.1022564979999,1564.1022564979999,1566.1213294499998,1566.1213294499998,1566.1213294499998,1566.1213294499998,1566.1213294499998,1566.1213294499998,1566.1213294499998,1566.1213294499998,1568.139547158,1568.139547158,1568.139547158,1568.139547158,,,,,,,,,,,,,,,,,,,,,,,,,,,,,,,,,,,,,,,08,011,2022-09-27_09h06.39.510,test2,2022.2.4,59.999342527172786,
0,0,0,0,103,0,103,0,1568.139547158,1568.139547158,1568.139547158,1568.139547158,1568.139547158,1568.139547158,1568.139547158,-1,1,azul,1,['N_A'],1572.3962700119998,1572.3962700119998,1572.3962700119998,1572.3962700119998,1574.415122956,1574.415122956,1574.415122956,1574.415122956,1574.415122956,1574.415122956,1574.415122956,1574.415122956,1576.4317166179999,1576.4317166179999,1576.4317166179999,1576.4317166179999,,,,,,,,,,,,,,,,,,,,,,,,,,,,,,,,,,,,,,,08,011,2022-09-27_09h06.39.510,test2,2022.2.4,59.999342527172786,
0,0,0,0,104,0,104,0,1576.4317166179999,1576.4317166179999,1576.4317166179999,1576.4317166179999,1576.4317166179999,1576.4317166179999,1576.4317166179999,1,1,rojo,1,['N_A'],1579.06922717,1579.06922717,1579.06922717,1579.06922717,1581.087221432,1581.087221432,1581.087221432,1581.087221432,1581.087221432,1581.087221432,1581.087221432,1581.087221432,1583.106726307,1583.106726307,1583.106726307,1583.106726307,,,,,,,,,,,,,,,,,,,,,,,,,,,,,,,,,,,,,,,08,011,2022-09-27_09h06.39.510,test2,2022.2.4,59.999342527172786,
0,0,0,0,105,0,105,0,1583.106726307,1583.106726307,1583.106726307,1583.106726307,1583.106726307,1583.106726307,1583.106726307,-1,-1,azul,1,['N_A'],1585.393621582,1585.393621582,1585.393621582,1585.393621582,1587.428079093,1587.428079093,1587.428079093,1587.428079093,1587.428079093,1587.428079093,1587.428079093,1587.428079093,1589.447135123,1589.447135123,1589.447135123,1589.447135123,,,,,,,,,,,,,,,,,,,,,,,,,,,,,,,,,,,,,,,08,011,2022-09-27_09h06.39.510,test2,2022.2.4,59.999342527172786,
0,0,0,0,106,0,106,0,1589.447135123,1589.447135123,1589.447135123,1589.447135123,1589.447135123,1589.447135123,1589.447135123,1,-1,rojo,1,['N_A'],1591.2322896439998,1591.2322896439998,1591.2322896439998,1591.2322896439998,1593.251377657,1593.251377657,1593.251377657,1593.251377657,1593.251377657,1593.251377657,1593.251377657,1593.251377657,1595.269841754,1595.269841754,1595.269841754,1595.269841754,,,,,,,,,,,,,,,,,,,,,,,,,,,,,,,,,,,,,,,08,011,2022-09-27_09h06.39.510,test2,2022.2.4,59.999342527172786,
0,0,0,0,107,0,107,0,1595.269841754,1595.269841754,1595.269841754,1595.269841754,1595.269841754,1595.269841754,1595.269841754,1,1,rojo,1,['N_A'],1598.757656169,1598.757656169,1598.757656169,1598.757656169,1600.7759940629999,1600.7759940629999,1600.7759940629999,1600.7759940629999,1600.7759940629999,1600.7759940629999,1600.7759940629999,1600.7759940629999,1602.794352039,1602.794352039,1602.794352039,1602.794352039,,,,,,,,,,,,,,,,,,,,,,,,,,,,,,,,,,,,,,,08,011,2022-09-27_09h06.39.510,test2,2022.2.4,59.999342527172786,
0,0,0,0,108,0,108,0,1602.794352039,1602.794352039,1602.794352039,1602.794352039,1602.794352039,1602.794352039,1602.794352039,-1,-1,azul,0,['N_B'],1604.4961337309999,1604.4961337309999,1604.4961337309999,1604.4961337309999,1606.5153389989998,1606.5153389989998,1606.5153389989998,1606.5153389989998,1606.5153389989998,1606.5153389989998,1606.5153389989998,1606.5153389989998,1608.5349670589999,1608.5349670589999,1608.5349670589999,1608.5349670589999,,,,,,,,,,,,,,,,,,,,,,,,,,,,,,,,,,,,,,,08,011,2022-09-27_09h06.39.510,test2,2022.2.4,59.999342527172786,
0,0,0,0,109,0,109,0,1608.5349670589999,1608.5349670589999,1608.5349670589999,1608.5349670589999,1608.5349670589999,1608.5349670589999,1608.5349670589999,-1,1,rojo,1,['N_B'],1610.486695025,1610.486695025,1610.486695025,1610.486695025,1612.5067979809999,1612.5067979809999,1612.5067979809999,1612.5067979809999,1612.5067979809999,1612.5067979809999,1612.5067979809999,1612.5067979809999,1614.523852761,1614.523852761,1614.523852761,1614.523852761,,,,,,,,,,,,,,,,,,,,,,,,,,,,,,,,,,,,,,,08,011,2022-09-27_09h06.39.510,test2,2022.2.4,59.999342527172786,
0,0,0,0,110,0,110,0,1614.523852761,1614.523852761,1614.523852761,1614.523852761,1614.523852761,1614.523852761,1614.523852761,-1,1,rojo,1,['N_B'],1616.5766788189999,1616.5766788189999,1616.5766788189999,1616.5766788189999,1618.595339322,1618.595339322,1618.595339322,1618.595339322,1618.595339322,1618.595339322,1618.595339322,1618.595339322,1620.613986329,1620.613986329,1620.613986329,1620.613986329,,,,,,,,,,,,,,,,,,,,,,,,,,,,,,,,,,,,,,,08,011,2022-09-27_09h06.39.510,test2,2022.2.4,59.999342527172786,
0,0,0,0,111,0,111,0,1620.613986329,1620.613986329,1620.613986329,1620.613986329,1620.613986329,1620.613986329,1620.613986329,-1,-1,rojo,0,['N_A'],1622.8003591319998,1622.8003591319998,1622.8003591319998,1622.8003591319998,1624.8365995309998,1624.8365995309998,1624.8365995309998,1624.8365995309998,1624.8365995309998,1624.8365995309998,1624.8365995309998,1624.8365995309998,1626.854803788,1626.854803788,1626.854803788,1626.854803788,,,,,,,,,,,,,,,,,,,,,,,,,,,,,,,,,,,,,,,08,011,2022-09-27_09h06.39.510,test2,2022.2.4,59.999342527172786,
0,0,0,0,112,0,112,0,1626.854803788,1626.854803788,1626.854803788,1626.854803788,1626.854803788,1626.854803788,1626.854803788,1,-1,rojo,0,['N_B'],1629.056500705,1629.056500705,1629.056500705,1629.056500705,1631.093600605,1631.093600605,1631.093600605,1631.093600605,1631.093600605,1631.093600605,1631.093600605,1631.093600605,1633.111085482,1633.111085482,1633.111085482,1633.111085482,,,,,,,,,,,,,,,,,,,,,,,,,,,,,,,,,,,,,,,08,011,2022-09-27_09h06.39.510,test2,2022.2.4,59.999342527172786,
0,0,0,0,113,0,113,0,1633.111085482,1633.111085482,1633.111085482,1633.111085482,1633.111085482,1633.111085482,1633.111085482,-1,-1,rojo,0,['N_A'],1634.92976864,1634.92976864,1634.92976864,1634.92976864,1636.948722143,1636.948722143,1636.948722143,1636.948722143,1636.948722143,1636.948722143,1636.948722143,1636.948722143,1638.9680054719997,1638.9680054719997,1638.9680054719997,1638.9680054719997,,,,,,,,,,,,,,,,,,,,,,,,,,,,,,,,,,,,,,,08,011,2022-09-27_09h06.39.510,test2,2022.2.4,59.999342527172786,
0,0,0,0,114,0,114,0,1638.9680054719997,1638.9680054719997,1638.9680054719997,1638.9680054719997,1638.9680054719997,1638.9680054719997,1638.9680054719997,1,1,rojo,1,['N_A'],1643.940905903,1643.940905903,1643.940905903,1643.940905903,1645.9585285049998,1645.9585285049998,1645.9585285049998,1645.9585285049998,1645.9585285049998,1645.9585285049998,1645.9585285049998,1645.9585285049998,1647.9775016170001,1647.9775016170001,1647.9775016170001,1647.9775016170001,,,,,,,,,,,,,,,,,,,,,,,,,,,,,,,,,,,,,,,08,011,2022-09-27_09h06.39.510,test2,2022.2.4,59.999342527172786,
0,0,0,0,115,0,115,0,1647.9775016170001,1647.9775016170001,1647.9775016170001,1647.9775016170001,1647.9775016170001,1647.9775016170001,1647.9775016170001,1,-1,rojo,1,['N_A'],1649.9137649489999,1649.9137649489999,1649.9137649489999,1649.9137649489999,1651.9318054169999,1651.9318054169999,1651.9318054169999,1651.9318054169999,1651.9318054169999,1651.9318054169999,1651.9318054169999,1651.9318054169999,1653.9514037630001,1653.9514037630001,1653.9514037630001,1653.9514037630001,,,,,,,,,,,,,,,,,,,,,,,,,,,,,,,,,,,,,,,08,011,2022-09-27_09h06.39.510,test2,2022.2.4,59.999342527172786,
0,0,0,0,116,0,116,0,1653.9514037630001,1653.9514037630001,1653.9514037630001,1653.9514037630001,1653.9514037630001,1653.9514037630001,1653.9514037630001,1,1,rojo,0,['N_B'],1659.2565924329997,1659.2565924329997,1659.2565924329997,1659.2565924329997,1661.2752637509998,1661.2752637509998,1661.2752637509998,1661.2752637509998,1661.2752637509998,1661.2752637509998,1661.2752637509998,1661.2752637509998,1663.312904711,1663.312904711,1663.312904711,1663.312904711,,,,,,,,,,,,,,,,,,,,,,,,,,,,,,,,,,,,,,,08,011,2022-09-27_09h06.39.510,test2,2022.2.4,59.999342527172786,
0,0,0,0,117,0,117,0,1663.312904711,1663.312904711,1663.312904711,1663.312904711,1663.312904711,1663.312904711,1663.312904711,1,-1,azul,0,['N_A'],1665.6811531419999,1665.6811531419999,1665.6811531419999,1665.6811531419999,1667.6992810440001,1667.6992810440001,1667.6992810440001,1667.6992810440001,1667.6992810440001,1667.6992810440001,1667.6992810440001,1667.6992810440001,1669.7188679199999,1669.7188679199999,1669.7188679199999,1669.7188679199999,,,,,,,,,,,,,,,,,,,,,,,,,,,,,,,,,,,,,,,08,011,2022-09-27_09h06.39.510,test2,2022.2.4,59.999342527172786,
0,0,0,0,118,0,118,0,1669.7188679199999,1669.7188679199999,1669.7188679199999,1669.7188679199999,1669.7188679199999,1669.7188679199999,1669.7188679199999,1,1,rojo,1,['N_A'],1672.287958629,1672.287958629,1672.287958629,1672.287958629,1674.307180369,1674.307180369,1674.307180369,1674.307180369,1674.307180369,1674.307180369,1674.307180369,1674.307180369,1676.3260865479997,1676.3260865479997,1676.3260865479997,1676.3260865479997,,,,,,,,,,,,,,,,,,,,,,,,,,,,,,,,,,,,,,,08,011,2022-09-27_09h06.39.510,test2,2022.2.4,59.999342527172786,
0,0,0,0,119,0,119,0,1676.3260865479997,1676.3260865479997,1676.3260865479997,1676.3260865479997,1676.3260865479997,1676.3260865479997,1676.3260865479997,1,-1,rojo,1,['N_A'],1680.2468587580001,1680.2468587580001,1680.2468587580001,1680.2468587580001,1682.283486837,1682.283486837,1682.283486837,1682.283486837,1682.283486837,1682.283486837,1682.283486837,1682.283486837,1684.3008198049997,1684.3008198049997,1684.3008198049997,1684.3008198049997,,,,,,,,,,,,,,,,,,,,,,,,,,,,,,,,,,,,,,,08,011,2022-09-27_09h06.39.510,test2,2022.2.4,59.999342527172786,
0,0,0,0,120,0,120,0,1684.3008198049997,1684.3008198049997,1684.3008198049997,1684.3008198049997,1684.3008198049997,1684.3008198049997,1684.3008198049997,1,-1,rojo,1,['N_A'],1686.7709510280001,1686.7709510280001,1686.7709510280001,1686.7709510280001,1688.789132841,1688.789132841,1688.789132841,1688.789132841,1688.789132841,1688.789132841,1688.789132841,1688.789132841,1690.809448903,1690.809448903,1690.809448903,1690.809448903,,,,,,,,,,,,,,,,,,,,,,,,,,,,,,,,,,,,,,,08,011,2022-09-27_09h06.39.510,test2,2022.2.4,59.999342527172786,
0,0,0,0,121,0,121,0,1690.809448903,1690.809448903,1690.809448903,1690.809448903,1690.809448903,1690.809448903,1690.809448903,1,1,rojo,0,['N_B'],1695.062536244,1695.062536244,1695.062536244,1695.062536244,1697.083119204,1697.083119204,1697.083119204,1697.083119204,1697.083119204,1697.083119204,1697.083119204,1697.083119204,1699.1003851699998,1699.1003851699998,1699.1003851699998,1699.1003851699998,,,,,,,,,,,,,,,,,,,,,,,,,,,,,,,,,,,,,,,08,011,2022-09-27_09h06.39.510,test2,2022.2.4,59.999342527172786,
0,0,0,0,122,0,122,0,1699.1003851699998,1699.1003851699998,1699.1003851699998,1699.1003851699998,1699.1003851699998,1699.1003851699998,1699.1003851699998,-1,1,rojo,0,['N_A'],1702.1712528819999,1702.1712528819999,1702.1712528819999,1702.1712528819999,1704.1909567889998,1704.1909567889998,1704.1909567889998,1704.1909567889998,1704.1909567889998,1704.1909567889998,1704.1909567889998,1704.1909567889998,1706.2086980240001,1706.2086980240001,1706.2086980240001,1706.2086980240001,,,,,,,,,,,,,,,,,,,,,,,,,,,,,,,,,,,,,,,08,011,2022-09-27_09h06.39.510,test2,2022.2.4,59.999342527172786,
0,0,0,0,123,0,123,0,1706.2086980240001,1706.2086980240001,1706.2086980240001,1706.2086980240001,1706.2086980240001,1706.2086980240001,1706.2086980240001,1,1,rojo,0,['N_B'],1708.862142072,1708.862142072,1708.862142072,1708.862142072,1710.8809447620001,1710.8809447620001,1710.8809447620001,1710.8809447620001,1710.8809447620001,1710.8809447620001,1710.8809447620001,1710.8809447620001,1712.899533322,1712.899533322,1712.899533322,1712.899533322,,,,,,,,,,,,,,,,,,,,,,,,,,,,,,,,,,,,,,,08,011,2022-09-27_09h06.39.510,test2,2022.2.4,59.999342527172786,
0,0,0,0,124,0,124,0,1712.899533322,1712.899533322,1712.899533322,1712.899533322,1712.899533322,1712.899533322,1712.899533322,-1,-1,rojo,1,['N_B'],1715.3860240119998,1715.3860240119998,1715.3860240119998,1715.3860240119998,1717.4224706599998,1717.4224706599998,1717.4224706599998,1717.4224706599998,1717.4224706599998,1717.4224706599998,1717.4224706599998,1717.4224706599998,1719.4400159299998,1719.4400159299998,1719.4400159299998,1719.4400159299998,,,,,,,,,,,,,,,,,,,,,,,,,,,,,,,,,,,,,,,08,011,2022-09-27_09h06.39.510,test2,2022.2.4,59.999342527172786,
0,0,0,0,125,0,125,0,1719.4400159299998,1719.4400159299998,1719.4400159299998,1719.4400159299998,1719.4400159299998,1719.4400159299998,1719.4400159299998,1,-1,azul,0,['N_A'],1723.1440914169998,1723.1440914169998,1723.1440914169998,1723.1440914169998,1725.162567167,1725.162567167,1725.162567167,1725.162567167,1725.162567167,1725.162567167,1725.162567167,1725.162567167,1727.1813265360001,1727.1813265360001,1727.1813265360001,1727.1813265360001,,,,,,,,,,,,,,,,,,,,,,,,,,,,,,,,,,,,,,,08,011,2022-09-27_09h06.39.510,test2,2022.2.4,59.999342527172786,
0,0,0,0,126,0,126,0,1727.1813265360001,1727.1813265360001,1727.1813265360001,1727.1813265360001,1727.1813265360001,1727.1813265360001,1727.1813265360001,1,1,rojo,0,['N_B'],1730.8859612299998,1730.8859612299998,1730.8859612299998,1730.8859612299998,1732.905232656,1732.905232656,1732.905232656,1732.905232656,1732.905232656,1732.905232656,1732.905232656,1732.905232656,1734.923234454,1734.923234454,1734.923234454,1734.923234454,,,,,,,,,,,,,,,,,,,,,,,,,,,,,,,,,,,,,,,08,011,2022-09-27_09h06.39.510,test2,2022.2.4,59.999342527172786,
0,0,0,0,127,0,127,0,1734.923234454,1734.923234454,1734.923234454,1734.923234454,1734.923234454,1734.923234454,1734.923234454,-1,-1,rojo,0,['N_A'],1736.7089212789997,1736.7089212789997,1736.7089212789997,1736.7089212789997,1738.7285051919998,1738.7285051919998,1738.7285051919998,1738.7285051919998,1738.7285051919998,1738.7285051919998,1738.7285051919998,1738.7285051919998,1740.7468389800001,1740.7468389800001,1740.7468389800001,1740.7468389800001,,,,,,,,,,,,,,,,,,,,,,,,,,,,,,,,,,,,,,,08,011,2022-09-27_09h06.39.510,test2,2022.2.4,59.999342527172786,
0,0,0,0,128,0,128,0,1740.7468389800001,1740.7468389800001,1740.7468389800001,1740.7468389800001,1740.7468389800001,1740.7468389800001,1740.7468389800001,1,1,rojo,0,['N_B'],1743.366396114,1743.366396114,1743.366396114,1743.366396114,1745.403156939,1745.403156939,1745.403156939,1745.403156939,1745.403156939,1745.403156939,1745.403156939,1745.403156939,1747.421505542,1747.421505542,1747.421505542,1747.421505542,,,,,,,,,,,,,,,,,,,,,,,,,,,,,,,,,,,,,,,08,011,2022-09-27_09h06.39.510,test2,2022.2.4,59.999342527172786,
0,0,0,0,129,0,129,0,1747.421505542,1747.421505542,1747.421505542,1747.421505542,1747.421505542,1747.421505542,1747.421505542,1,-1,azul,0,['N_A'],1749.3745142459998,1749.3745142459998,1749.3745142459998,1749.3745142459998,1751.409557549,1751.409557549,1751.409557549,1751.409557549,1751.409557549,1751.409557549,1751.409557549,1751.409557549,1753.4271055039999,1753.4271055039999,1753.4271055039999,1753.4271055039999,,,,,,,,,,,,,,,,,,,,,,,,,,,,,,,,,,,,,,,08,011,2022-09-27_09h06.39.510,test2,2022.2.4,59.999342527172786,
0,0,0,0,130,0,130,0,1753.4271055039999,1753.4271055039999,1753.4271055039999,1753.4271055039999,1753.4271055039999,1753.4271055039999,1753.4271055039999,-1,-1,azul,1,['N_A'],1756.814222937,1756.814222937,1756.814222937,1756.814222937,1758.8507963299999,1758.8507963299999,1758.8507963299999,1758.8507963299999,1758.8507963299999,1758.8507963299999,1758.8507963299999,1758.8507963299999,1760.868500437,1760.868500437,1760.868500437,1760.868500437,,,,,,,,,,,,,,,,,,,,,,,,,,,,,,,,,,,,,,,08,011,2022-09-27_09h06.39.510,test2,2022.2.4,59.999342527172786,
0,0,0,0,131,0,131,0,1760.868500437,1760.868500437,1760.868500437,1760.868500437,1760.868500437,1760.868500437,1760.868500437,-1,-1,azul,0,['N_B'],1762.9547968329998,1762.9547968329998,1762.9547968329998,1762.9547968329998,1764.991490934,1764.991490934,1764.991490934,1764.991490934,1764.991490934,1764.991490934,1764.991490934,1764.991490934,1767.009392467,1767.009392467,1767.009392467,1767.009392467,,,,,,,,,,,,,,,,,,,,,,,,,,,,,,,,,,,,,,,08,011,2022-09-27_09h06.39.510,test2,2022.2.4,59.999342527172786,
0,0,0,0,132,0,132,0,1767.009392467,1767.009392467,1767.009392467,1767.009392467,1767.009392467,1767.009392467,1767.009392467,1,-1,azul,0,['N_A'],1768.9109469740001,1768.9109469740001,1768.9109469740001,1768.9109469740001,1770.930588529,1770.930588529,1770.930588529,1770.930588529,1770.930588529,1770.930588529,1770.930588529,1770.930588529,1772.9492048500001,1772.9492048500001,1772.9492048500001,1772.9492048500001,,,,,,,,,,,,,,,,,,,,,,,,,,,,,,,,,,,,,,,08,011,2022-09-27_09h06.39.510,test2,2022.2.4,59.999342527172786,
0,0,0,0,133,0,133,0,1772.9492048500001,1772.9492048500001,1772.9492048500001,1772.9492048500001,1772.9492048500001,1772.9492048500001,1772.9492048500001,-1,1,azul,0,['N_B'],1775.385625022,1775.385625022,1775.385625022,1775.385625022,1777.403560747,1777.403560747,1777.403560747,1777.403560747,1777.403560747,1777.403560747,1777.403560747,1777.403560747,1779.422527612,1779.422527612,1779.422527612,1779.422527612,,,,,,,,,,,,,,,,,,,,,,,,,,,,,,,,,,,,,,,08,011,2022-09-27_09h06.39.510,test2,2022.2.4,59.999342527172786,
0,0,0,0,134,0,134,0,1779.422527612,1779.422527612,1779.422527612,1779.422527612,1779.422527612,1779.422527612,1779.422527612,1,-1,azul,1,['N_B'],1781.909085161,1781.909085161,1781.909085161,1781.909085161,1783.945449064,1783.945449064,1783.945449064,1783.945449064,1783.945449064,1783.945449064,1783.945449064,1783.945449064,1785.9632106139998,1785.9632106139998,1785.9632106139998,1785.9632106139998,,,,,,,,,,,,,,,,,,,,,,,,,,,,,,,,,,,,,,,08,011,2022-09-27_09h06.39.510,test2,2022.2.4,59.999342527172786,
0,0,0,0,135,0,135,0,1785.9632106139998,1785.9632106139998,1785.9632106139998,1785.9632106139998,1785.9632106139998,1785.9632106139998,1785.9632106139998,1,-1,azul,0,['N_A'],1790.4687347079998,1790.4687347079998,1790.4687347079998,1790.4687347079998,1792.5054507129998,1792.5054507129998,1792.5054507129998,1792.5054507129998,1792.5054507129998,1792.5054507129998,1792.5054507129998,1792.5054507129998,1794.5232134039998,1794.5232134039998,1794.5232134039998,1794.5232134039998,,,,,,,,,,,,,,,,,,,,,,,,,,,,,,,,,,,,,,,08,011,2022-09-27_09h06.39.510,test2,2022.2.4,59.999342527172786,
0,0,0,0,136,0,136,0,1794.5232134039998,1794.5232134039998,1794.5232134039998,1794.5232134039998,1794.5232134039998,1794.5232134039998,1794.5232134039998,1,-1,rojo,1,['N_A'],1797.6927100869998,1797.6927100869998,1797.6927100869998,1797.6927100869998,1799.7302087879998,1799.7302087879998,1799.7302087879998,1799.7302087879998,1799.7302087879998,1799.7302087879998,1799.7302087879998,1799.7302087879998,1801.7479609009997,1801.7479609009997,1801.7479609009997,1801.7479609009997,,,,,,,,,,,,,,,,,,,,,,,,,,,,,,,,,,,,,,,08,011,2022-09-27_09h06.39.510,test2,2022.2.4,59.999342527172786,
0,0,0,0,137,0,137,0,1801.7479609009997,1801.7479609009997,1801.7479609009997,1801.7479609009997,1801.7479609009997,1801.7479609009997,1801.7479609009997,1,-1,rojo,0,['N_B'],1803.482632481,1803.482632481,1803.482632481,1803.482632481,1805.5195107149998,1805.5195107149998,1805.5195107149998,1805.5195107149998,1805.5195107149998,1805.5195107149998,1805.5195107149998,1805.5195107149998,1807.538225674,1807.538225674,1807.538225674,1807.538225674,,,,,,,,,,,,,,,,,,,,,,,,,,,,,,,,,,,,,,,08,011,2022-09-27_09h06.39.510,test2,2022.2.4,59.999342527172786,
0,0,0,0,138,0,138,0,1807.538225674,1807.538225674,1807.538225674,1807.538225674,1807.538225674,1807.538225674,1807.538225674,1,-1,azul,0,['N_A'],1809.255500011,1809.255500011,1809.255500011,1809.255500011,1811.2922223749997,1811.2922223749997,1811.2922223749997,1811.2922223749997,1811.2922223749997,1811.2922223749997,1811.2922223749997,1811.2922223749997,1813.3100428349999,1813.3100428349999,1813.3100428349999,1813.3100428349999,,,,,,,,,,,,,,,,,,,,,,,,,,,,,,,,,,,,,,,08,011,2022-09-27_09h06.39.510,test2,2022.2.4,59.999342527172786,
0,0,0,0,139,0,139,0,1813.3100428349999,1813.3100428349999,1813.3100428349999,1813.3100428349999,1813.3100428349999,1813.3100428349999,1813.3100428349999,-1,-1,azul,0,['N_B'],1815.763123585,1815.763123585,1815.763123585,1815.763123585,1817.7814872169997,1817.7814872169997,1817.7814872169997,1817.7814872169997,1817.7814872169997,1817.7814872169997,1817.7814872169997,1817.7814872169997,1819.8014076079999,1819.8014076079999,1819.8014076079999,1819.8014076079999,,,,,,,,,,,,,,,,,,,,,,,,,,,,,,,,,,,,,,,08,011,2022-09-27_09h06.39.510,test2,2022.2.4,59.999342527172786,
0,0,0,0,140,0,140,0,1819.8014076079999,1819.8014076079999,1819.8014076079999,1819.8014076079999,1819.8014076079999,1819.8014076079999,1819.8014076079999,1,1,azul,0,['N_A'],1822.7709566459998,1822.7709566459998,1822.7709566459998,1822.7709566459998,1824.78925535,1824.78925535,1824.78925535,1824.78925535,1824.78925535,1824.78925535,1824.78925535,1824.78925535,1826.8091728189997,1826.8091728189997,1826.8091728189997,1826.8091728189997,,,,,,,,,,,,,,,,,,,,,,,,,,,,,,,,,,,,,,,08,011,2022-09-27_09h06.39.510,test2,2022.2.4,59.999342527172786,
0,0,0,0,141,0,141,0,1826.8091728189997,1826.8091728189997,1826.8091728189997,1826.8091728189997,1826.8091728189997,1826.8091728189997,1826.8091728189997,-1,-1,azul,0,['N_B'],1828.643754872,1828.643754872,1828.643754872,1828.643754872,1830.663264586,1830.663264586,1830.663264586,1830.663264586,1830.663264586,1830.663264586,1830.663264586,1830.663264586,1832.681804415,1832.681804415,1832.681804415,1832.681804415,,,,,,,,,,,,,,,,,,,,,,,,,,,,,,,,,,,,,,,08,011,2022-09-27_09h06.39.510,test2,2022.2.4,59.999342527172786,
0,0,0,0,142,0,142,0,1832.681804415,1832.681804415,1832.681804415,1832.681804415,1832.681804415,1832.681804415,1832.681804415,1,1,azul,1,['N_B'],1834.6502996499999,1834.6502996499999,1834.6502996499999,1834.6502996499999,1836.6689040840001,1836.6689040840001,1836.6689040840001,1836.6689040840001,1836.6689040840001,1836.6689040840001,1836.6689040840001,1836.6689040840001,1838.687880896,1838.687880896,1838.687880896,1838.687880896,,,,,,,,,,,,,,,,,,,,,,,,,,,,,,,,,,,,,,,08,011,2022-09-27_09h06.39.510,test2,2022.2.4,59.999342527172786,
0,0,0,0,143,0,143,0,1838.687880896,1838.687880896,1838.687880896,1838.687880896,1838.687880896,1838.687880896,1838.687880896,1,-1,azul,0,['N_A'],1840.9073215949998,1840.9073215949998,1840.9073215949998,1840.9073215949998,1842.9445513619999,1842.9445513619999,1842.9445513619999,1842.9445513619999,1842.9445513619999,1842.9445513619999,1842.9445513619999,1842.9445513619999,1844.9620145879999,1844.9620145879999,1844.9620145879999,1844.9620145879999,,,,,,,,,,,,,,,,,,,,,,,,,,,,,,,,,,,,,,,08,011,2022-09-27_09h06.39.510,test2,2022.2.4,59.999342527172786,
0,0,0,0,144,0,144,0,1844.9620145879999,1844.9620145879999,1844.9620145879999,1844.9620145879999,1844.9620145879999,1844.9620145879999,1844.9620145879999,1,-1,rojo,1,['N_A'],1847.9656312040001,1847.9656312040001,1847.9656312040001,1847.9656312040001,1850.0010739529998,1850.0010739529998,1850.0010739529998,1850.0010739529998,1850.0010739529998,1850.0010739529998,1850.0010739529998,1850.0010739529998,1852.019763234,1852.019763234,1852.019763234,1852.019763234,,,,,,,,,,,,,,,,,,,,,,,,,,,,,,,,,,,,,,,08,011,2022-09-27_09h06.39.510,test2,2022.2.4,59.999342527172786,
0,0,0,0,145,0,145,0,1852.019763234,1852.019763234,1852.019763234,1852.019763234,1852.019763234,1852.019763234,1852.019763234,1,-1,rojo,1,['N_A'],1853.7714053539999,1853.7714053539999,1853.7714053539999,1853.7714053539999,1855.8082130869998,1855.8082130869998,1855.8082130869998,1855.8082130869998,1855.8082130869998,1855.8082130869998,1855.8082130869998,1855.8082130869998,1857.8256742079998,1857.8256742079998,1857.8256742079998,1857.8256742079998,,,,,,,,,,,,,,,,,,,,,,,,,,,,,,,,,,,,,,,08,011,2022-09-27_09h06.39.510,test2,2022.2.4,59.999342527172786,
0,0,0,0,146,0,146,0,1857.8256742079998,1857.8256742079998,1857.8256742079998,1857.8256742079998,1857.8256742079998,1857.8256742079998,1857.8256742079998,1,-1,rojo,0,['N_B'],1859.978222011,1859.978222011,1859.978222011,1859.978222011,1861.996916084,1861.996916084,1861.996916084,1861.996916084,1861.996916084,1861.996916084,1861.996916084,1861.996916084,1864.016365372,1864.016365372,1864.016365372,1864.016365372,,,,,,,,,,,,,,,,,,,,,,,,,,,,,,,,,,,,,,,08,011,2022-09-27_09h06.39.510,test2,2022.2.4,59.999342527172786,
0,0,0,0,147,0,147,0,1864.016365372,1864.016365372,1864.016365372,1864.016365372,1864.016365372,1864.016365372,1864.016365372,1,1,azul,1,['N_B'],1865.9019975420001,1865.9019975420001,1865.9019975420001,1865.9019975420001,1867.9200539099998,1867.9200539099998,1867.9200539099998,1867.9200539099998,1867.9200539099998,1867.9200539099998,1867.9200539099998,1867.9200539099998,1869.9388522929999,1869.9388522929999,1869.9388522929999,1869.9388522929999,,,,,,,,,,,,,,,,,,,,,,,,,,,,,,,,,,,,,,,08,011,2022-09-27_09h06.39.510,test2,2022.2.4,59.999342527172786,
0,0,0,0,148,0,148,0,1869.9388522929999,1869.9388522929999,1869.9388522929999,1869.9388522929999,1869.9388522929999,1869.9388522929999,1869.9388522929999,1,-1,azul,0,['N_A'],1871.8079704309998,1871.8079704309998,1871.8079704309998,1871.8079704309998,1873.844736135,1873.844736135,1873.844736135,1873.844736135,1873.844736135,1873.844736135,1873.844736135,1873.844736135,1875.863144072,1875.863144072,1875.863144072,1875.863144072,,,,,,,,,,,,,,,,,,,,,,,,,,,,,,,,,,,,,,,08,011,2022-09-27_09h06.39.510,test2,2022.2.4,59.999342527172786,
0,0,0,0,149,0,149,0,1875.863144072,1875.863144072,1875.863144072,1875.863144072,1875.863144072,1875.863144072,1875.863144072,1,-1,rojo,0,['N_B'],1879.6838189199998,1879.6838189199998,1879.6838189199998,1879.6838189199998,1881.7202072709997,1881.7202072709997,1881.7202072709997,1881.7202072709997,1881.7202072709997,1881.7202072709997,1881.7202072709997,1881.7202072709997,1883.7381556770001,1883.7381556770001,1883.7381556770001,1883.7381556770001,,,,,,,,,,,,,,,,,,,,,,,,,,,,,,,,,,,,,,,08,011,2022-09-27_09h06.39.510,test2,2022.2.4,59.999342527172786,
0,0,0,0,150,0,150,0,1883.7381556770001,1883.7381556770001,1883.7381556770001,1883.7381556770001,1883.7381556770001,1883.7381556770001,1883.7381556770001,1,-1,azul,1,['N_B'],1886.107845434,1886.107845434,1886.107845434,1886.107845434,1888.1440426489999,1888.1440426489999,1888.1440426489999,1888.1440426489999,1888.1440426489999,1888.1440426489999,1888.1440426489999,1888.1440426489999,1890.162218288,1890.162218288,1890.162218288,1890.162218288,,,,,,,,,,,,,,,,,,,,,,,,,,,,,,,,,,,,,,,08,011,2022-09-27_09h06.39.510,test2,2022.2.4,59.999342527172786,
0,0,0,0,151,0,151,0,1890.162218288,1890.162218288,1890.162218288,1890.162218288,1890.162218288,1890.162218288,1890.162218288,1,-1,azul,1,['N_B'],1892.0972169699999,1892.0972169699999,1892.0972169699999,1892.0972169699999,1894.134089995,1894.134089995,1894.134089995,1894.134089995,1894.134089995,1894.134089995,1894.134089995,1894.134089995,1896.1517816709998,1896.1517816709998,1896.1517816709998,1896.1517816709998,,,,,,,,,,,,,,,,,,,,,,,,,,,,,,,,,,,,,,,08,011,2022-09-27_09h06.39.510,test2,2022.2.4,59.999342527172786,
0,0,0,0,152,0,152,0,1896.1517816709998,1896.1517816709998,1896.1517816709998,1896.1517816709998,1896.1517816709998,1896.1517816709998,1896.1517816709998,1,-1,azul,0,['N_A'],1897.7539839199999,1897.7539839199999,1897.7539839199999,1897.7539839199999,1899.7901652309997,1899.7901652309997,1899.7901652309997,1899.7901652309997,1899.7901652309997,1899.7901652309997,1899.7901652309997,1899.7901652309997,1901.808875106,1901.808875106,1901.808875106,1901.808875106,,,,,,,,,,,,,,,,,,,,,,,,,,,,,,,,,,,,,,,08,011,2022-09-27_09h06.39.510,test2,2022.2.4,59.999342527172786,
0,0,0,0,153,0,153,0,1901.808875106,1901.808875106,1901.808875106,1901.808875106,1901.808875106,1901.808875106,1901.808875106,-1,-1,azul,1,['N_A'],1903.309585771,1903.309585771,1903.309585771,1903.309585771,1905.346269002,1905.346269002,1905.346269002,1905.346269002,1905.346269002,1905.346269002,1905.346269002,1905.346269002,1907.381442547,1907.381442547,1907.381442547,1907.381442547,,,,,,,,,,,,,,,,,,,,,,,,,,,,,,,,,,,,,,,08,011,2022-09-27_09h06.39.510,test2,2022.2.4,59.999342527172786,
0,0,0,0,154,0,154,0,1907.381442547,1907.381442547,1907.381442547,1907.381442547,1907.381442547,1907.381442547,1907.381442547,1,-1,rojo,0,['N_B'],1909.2500597150001,1909.2500597150001,1909.2500597150001,1909.2500597150001,1911.267800706,1911.267800706,1911.267800706,1911.267800706,1911.267800706,1911.267800706,1911.267800706,1911.267800706,1913.286692782,1913.286692782,1913.286692782,1913.286692782,,,,,,,,,,,,,,,,,,,,,,,,,,,,,,,,,,,,,,,08,011,2022-09-27_09h06.39.510,test2,2022.2.4,59.999342527172786,
0,0,0,0,155,0,155,0,1913.286692782,1913.286692782,1913.286692782,1913.286692782,1913.286692782,1913.286692782,1913.286692782,1,1,azul,1,['N_B'],1915.640067497,1915.640067497,1915.640067497,1915.640067497,1917.658148898,1917.658148898,1917.658148898,1917.658148898,1917.658148898,1917.658148898,1917.658148898,1917.658148898,1919.677539116,1919.677539116,1919.677539116,1919.677539116,,,,,,,,,,,,,,,,,,,,,,,,,,,,,,,,,,,,,,,08,011,2022-09-27_09h06.39.510,test2,2022.2.4,59.999342527172786,
0,0,0,0,156,0,156,0,1919.677539116,1919.677539116,1919.677539116,1919.677539116,1919.677539116,1919.677539116,1919.677539116,1,-1,azul,0,['N_A'],1921.763689282,1921.763689282,1921.763689282,1921.763689282,1923.800794967,1923.800794967,1923.800794967,1923.800794967,1923.800794967,1923.800794967,1923.800794967,1923.800794967,1925.8177546799998,1925.8177546799998,1925.8177546799998,1925.8177546799998,,,,,,,,,,,,,,,,,,,,,,,,,,,,,,,,,,,,,,,08,011,2022-09-27_09h06.39.510,test2,2022.2.4,59.999342527172786,
0,0,0,0,157,0,157,0,1925.8177546799998,1925.8177546799998,1925.8177546799998,1925.8177546799998,1925.8177546799998,1925.8177546799998,1925.8177546799998,-1,-1,azul,1,['N_A'],1927.635772491,1927.635772491,1927.635772491,1927.635772491,1929.6724037210001,1929.6724037210001,1929.6724037210001,1929.6724037210001,1929.6724037210001,1929.6724037210001,1929.6724037210001,1929.6724037210001,1931.690559879,1931.690559879,1931.690559879,1931.690559879,,,,,,,,,,,,,,,,,,,,,,,,,,,,,,,,,,,,,,,08,011,2022-09-27_09h06.39.510,test2,2022.2.4,59.999342527172786,
0,0,0,0,158,0,158,0,1931.690559879,1931.690559879,1931.690559879,1931.690559879,1931.690559879,1931.690559879,1931.690559879,-1,-1,azul,0,['N_B'],1933.3097062789998,1933.3097062789998,1933.3097062789998,1933.3097062789998,1935.3277152289998,1935.3277152289998,1935.3277152289998,1935.3277152289998,1935.3277152289998,1935.3277152289998,1935.3277152289998,1935.3277152289998,1937.347357006,1937.347357006,1937.347357006,1937.347357006,,,,,,,,,,,,,,,,,,,,,,,,,,,,,,,,,,,,,,,08,011,2022-09-27_09h06.39.510,test2,2022.2.4,59.999342527172786,
0,0,0,0,159,0,159,0,1937.347357006,1937.347357006,1937.347357006,1937.347357006,1937.347357006,1937.347357006,1937.347357006,-1,1,rojo,1,['N_B'],1940.4839981159998,1940.4839981159998,1940.4839981159998,1940.4839981159998,1942.50220322,1942.50220322,1942.50220322,1942.50220322,1942.50220322,1942.50220322,1942.50220322,1942.50220322,1944.521746756,1944.521746756,1944.521746756,1944.521746756,,,,,,,,,,,,,,,,,,,,,,,,,,,,,,,,,,,,,,,08,011,2022-09-27_09h06.39.510,test2,2022.2.4,59.999342527172786,
0,0,0,0,160,0,160,0,1944.521746756,1944.521746756,1944.521746756,1944.521746756,1944.521746756,1944.521746756,1944.521746756,1,-1,azul,0,['N_A'],1948.0754265699998,1948.0754265699998,1948.0754265699998,1948.0754265699998,1950.0945188249998,1950.0945188249998,1950.0945188249998,1950.0945188249998,1950.0945188249998,1950.0945188249998,1950.0945188249998,1950.0945188249998,1952.1139224610001,1952.1139224610001,1952.1139224610001,1952.1139224610001,,,,,,,,,,,,,,,,,,,,,,,,,,,,,,,,,,,,,,,08,011,2022-09-27_09h06.39.510,test2,2022.2.4,59.999342527172786,
0,0,0,0,161,0,161,0,1952.1139224610001,1952.1139224610001,1952.1139224610001,1952.1139224610001,1952.1139224610001,1952.1139224610001,1952.1139224610001,1,1,rojo,1,['N_A'],1954.1155227,1954.1155227,1954.1155227,1954.1155227,1956.1355470519998,1956.1355470519998,1956.1355470519998,1956.1355470519998,1956.1355470519998,1956.1355470519998,1956.1355470519998,1956.1355470519998,1958.155106268,1958.155106268,1958.155106268,1958.155106268,,,,,,,,,,,,,,,,,,,,,,,,,,,,,,,,,,,,,,,08,011,2022-09-27_09h06.39.510,test2,2022.2.4,59.999342527172786,
0,0,0,0,162,0,162,0,1958.155106268,1958.155106268,1958.155106268,1958.155106268,1958.155106268,1958.155106268,1958.155106268,1,1,rojo,0,['N_B'],1962.207891785,1962.207891785,1962.207891785,1962.207891785,1964.2276969239997,1964.2276969239997,1964.2276969239997,1964.2276969239997,1964.2276969239997,1964.2276969239997,1964.2276969239997,1964.2276969239997,1966.245641218,1966.245641218,1966.245641218,1966.245641218,,,,,,,,,,,,,,,,,,,,,,,,,,,,,,,,,,,,,,,08,011,2022-09-27_09h06.39.510,test2,2022.2.4,59.999342527172786,
0,0,0,0,163,0,163,0,1966.245641218,1966.245641218,1966.245641218,1966.245641218,1966.245641218,1966.245641218,1966.245641218,1,-1,azul,0,['N_A'],1968.015805335,1968.015805335,1968.015805335,1968.015805335,1970.032955475,1970.032955475,1970.032955475,1970.032955475,1970.032955475,1970.032955475,1970.032955475,1970.032955475,1972.0519935889997,1972.0519935889997,1972.0519935889997,1972.0519935889997,,,,,,,,,,,,,,,,,,,,,,,,,,,,,,,,,,,,,,,08,011,2022-09-27_09h06.39.510,test2,2022.2.4,59.999342527172786,
0,0,0,0,164,0,164,0,1972.0519935889997,1972.0519935889997,1972.0519935889997,1972.0519935889997,1972.0519935889997,1972.0519935889997,1972.0519935889997,1,1,rojo,0,['N_B'],1976.857908459,1976.857908459,1976.857908459,1976.857908459,1978.8771876749997,1978.8771876749997,1978.8771876749997,1978.8771876749997,1978.8771876749997,1978.8771876749997,1978.8771876749997,1978.8771876749997,1980.913411474,1980.913411474,1980.913411474,1980.913411474,,,,,,,,,,,,,,,,,,,,,,,,,,,,,,,,,,,,,,,08,011,2022-09-27_09h06.39.510,test2,2022.2.4,59.999342527172786,
0,0,0,0,165,0,165,0,1980.913411474,1980.913411474,1980.913411474,1980.913411474,1980.913411474,1980.913411474,1980.913411474,1,1,azul,1,['N_B'],1982.946851798,1982.946851798,1982.946851798,1982.946851798,1984.968417604,1984.968417604,1984.968417604,1984.968417604,1984.968417604,1984.968417604,1984.968417604,1984.968417604,1986.9856573879997,1986.9856573879997,1986.9856573879997,1986.9856573879997,,,,,,,,,,,,,,,,,,,,,,,,,,,,,,,,,,,,,,,08,011,2022-09-27_09h06.39.510,test2,2022.2.4,59.999342527172786,
0,0,0,0,166,0,166,0,1986.9856573879997,1986.9856573879997,1986.9856573879997,1986.9856573879997,1986.9856573879997,1986.9856573879997,1986.9856573879997,-1,1,rojo,0,['N_A'],1989.505123205,1989.505123205,1989.505123205,1989.505123205,1991.5244027959998,1991.5244027959998,1991.5244027959998,1991.5244027959998,1991.5244027959998,1991.5244027959998,1991.5244027959998,1991.5244027959998,1993.543205942,1993.543205942,1993.543205942,1993.543205942,,,,,,,,,,,,,,,,,,,,,,,,,,,,,,,,,,,,,,,08,011,2022-09-27_09h06.39.510,test2,2022.2.4,59.999342527172786,
0,0,0,0,167,0,167,0,1993.543205942,1993.543205942,1993.543205942,1993.543205942,1993.543205942,1993.543205942,1993.543205942,1,1,rojo,0,['N_B'],1997.0793006149997,1997.0793006149997,1997.0793006149997,1997.0793006149997,1999.099289711,1999.099289711,1999.099289711,1999.099289711,1999.099289711,1999.099289711,1999.099289711,1999.099289711,2001.118322622,2001.118322622,2001.118322622,2001.118322622,,,,,,,,,,,,,,,,,,,,,,,,,,,,,,,,,,,,,,,08,011,2022-09-27_09h06.39.510,test2,2022.2.4,59.999342527172786,
0,0,0,0,168,0,168,0,2001.118322622,2001.118322622,2001.118322622,2001.118322622,2001.118322622,2001.118322622,2001.118322622,1,1,azul,1,['N_B'],2003.953492823,2003.953492823,2003.953492823,2003.953492823,2005.974134561,2005.974134561,2005.974134561,2005.974134561,2005.974134561,2005.974134561,2005.974134561,2005.974134561,2007.991824963,2007.991824963,2007.991824963,2007.991824963,,,,,,,,,,,,,,,,,,,,,,,,,,,,,,,,,,,,,,,08,011,2022-09-27_09h06.39.510,test2,2022.2.4,59.999342527172786,
0,0,0,0,169,0,169,0,2007.991824963,2007.991824963,2007.991824963,2007.991824963,2007.991824963,2007.991824963,2007.991824963,1,1,azul,0,['N_A'],2012.295963861,2012.295963861,2012.295963861,2012.295963861,2014.317159061,2014.317159061,2014.317159061,2014.317159061,2014.317159061,2014.317159061,2014.317159061,2014.317159061,2016.351789966,2016.351789966,2016.351789966,2016.351789966,,,,,,,,,,,,,,,,,,,,,,,,,,,,,,,,,,,,,,,08,011,2022-09-27_09h06.39.510,test2,2022.2.4,59.999342527172786,
0,0,0,0,170,0,170,0,2016.351789966,2016.351789966,2016.351789966,2016.351789966,2016.351789966,2016.351789966,2016.351789966,1,1,rojo,1,['N_A'],2019.153685098,2019.153685098,2019.153685098,2019.153685098,2021.1733972470001,2021.1733972470001,2021.1733972470001,2021.1733972470001,2021.1733972470001,2021.1733972470001,2021.1733972470001,2021.1733972470001,2023.1913349769998,2023.1913349769998,2023.1913349769998,2023.1913349769998,,,,,,,,,,,,,,,,,,,,,,,,,,,,,,,,,,,,,,,08,011,2022-09-27_09h06.39.510,test2,2022.2.4,59.999342527172786,
0,0,0,0,171,0,171,0,2023.1913349769998,2023.1913349769998,2023.1913349769998,2023.1913349769998,2023.1913349769998,2023.1913349769998,2023.1913349769998,1,-1,rojo,1,['N_A'],2025.9620112849998,2025.9620112849998,2025.9620112849998,2025.9620112849998,2027.9809749209999,2027.9809749209999,2027.9809749209999,2027.9809749209999,2027.9809749209999,2027.9809749209999,2027.9809749209999,2027.9809749209999,2029.999911899,2029.999911899,2029.999911899,2029.999911899,,,,,,,,,,,,,,,,,,,,,,,,,,,,,,,,,,,,,,,08,011,2022-09-27_09h06.39.510,test2,2022.2.4,59.999342527172786,
0,0,0,0,172,0,172,0,2029.999911899,2029.999911899,2029.999911899,2029.999911899,2029.999911899,2029.999911899,2029.999911899,-1,1,azul,1,['N_A'],2038.307966811,2038.307966811,2038.307966811,2038.307966811,2040.328110463,2040.328110463,2040.328110463,2040.328110463,2040.328110463,2040.328110463,2040.328110463,2040.328110463,2042.3630990769998,2042.3630990769998,2042.3630990769998,2042.3630990769998,,,,,,,,,,,,,,,,,,,,,,,,,,,,,,,,,,,,,,,08,011,2022-09-27_09h06.39.510,test2,2022.2.4,59.999342527172786,
0,0,0,0,173,0,173,0,2042.3630990769998,2042.3630990769998,2042.3630990769998,2042.3630990769998,2042.3630990769998,2042.3630990769998,2042.3630990769998,-1,1,azul,0,['N_B'],2044.2320615039998,2044.2320615039998,2044.2320615039998,2044.2320615039998,2046.251202197,2046.251202197,2046.251202197,2046.251202197,2046.251202197,2046.251202197,2046.251202197,2046.251202197,2048.269359213,2048.269359213,2048.269359213,2048.269359213,,,,,,,,,,,,,,,,,,,,,,,,,,,,,,,,,,,,,,,08,011,2022-09-27_09h06.39.510,test2,2022.2.4,59.999342527172786,
0,0,0,0,174,0,174,0,2048.269359213,2048.269359213,2048.269359213,2048.269359213,2048.269359213,2048.269359213,2048.269359213,1,1,azul,1,['N_B'],2052.908280285,2052.908280285,2052.908280285,2052.908280285,2054.927030534,2054.927030534,2054.927030534,2054.927030534,2054.927030534,2054.927030534,2054.927030534,2054.927030534,2056.945556277,2056.945556277,2056.945556277,2056.945556277,,,,,,,,,,,,,,,,,,,,,,,,,,,,,,,,,,,,,,,08,011,2022-09-27_09h06.39.510,test2,2022.2.4,59.999342527172786,
0,0,0,0,175,0,175,0,2056.945556277,2056.945556277,2056.945556277,2056.945556277,2056.945556277,2056.945556277,2056.945556277,1,1,azul,0,['N_A'],2058.7315129099998,2058.7315129099998,2058.7315129099998,2058.7315129099998,2060.749566404,2060.749566404,2060.749566404,2060.749566404,2060.749566404,2060.749566404,2060.749566404,2060.749566404,2062.7683687559997,2062.7683687559997,2062.7683687559997,2062.7683687559997,,,,,,,,,,,,,,,,,,,,,,,,,,,,,,,,,,,,,,,08,011,2022-09-27_09h06.39.510,test2,2022.2.4,59.999342527172786,
0,0,0,0,176,0,176,0,2062.7683687559997,2062.7683687559997,2062.7683687559997,2062.7683687559997,2062.7683687559997,2062.7683687559997,2062.7683687559997,-1,-1,azul,1,['N_A'],2064.937693818,2064.937693818,2064.937693818,2064.937693818,2066.974388027,2066.974388027,2066.974388027,2066.974388027,2066.974388027,2066.974388027,2066.974388027,2066.974388027,2068.99188841,2068.99188841,2068.99188841,2068.99188841,,,,,,,,,,,,,,,,,,,,,,,,,,,,,,,,,,,,,,,08,011,2022-09-27_09h06.39.510,test2,2022.2.4,59.999342527172786,
0,0,0,0,177,0,177,0,2068.99188841,2068.99188841,2068.99188841,2068.99188841,2068.99188841,2068.99188841,2068.99188841,1,-1,rojo,1,['N_A'],2070.443667333,2070.443667333,2070.443667333,2070.443667333,2072.46336461,2072.46336461,2072.46336461,2072.46336461,2072.46336461,2072.46336461,2072.46336461,2072.46336461,2074.4812197389997,2074.4812197389997,2074.4812197389997,2074.4812197389997,,,,,,,,,,,,,,,,,,,,,,,,,,,,,,,,,,,,,,,08,011,2022-09-27_09h06.39.510,test2,2022.2.4,59.999342527172786,
0,0,0,0,178,0,178,0,2074.4812197389997,2074.4812197389997,2074.4812197389997,2074.4812197389997,2074.4812197389997,2074.4812197389997,2074.4812197389997,1,1,rojo,1,['N_A'],2076.401466883,2076.401466883,2076.401466883,2076.401466883,2078.4205911579998,2078.4205911579998,2078.4205911579998,2078.4205911579998,2078.4205911579998,2078.4205911579998,2078.4205911579998,2078.4205911579998,2080.438218439,2080.438218439,2080.438218439,2080.438218439,,,,,,,,,,,,,,,,,,,,,,,,,,,,,,,,,,,,,,,08,011,2022-09-27_09h06.39.510,test2,2022.2.4,59.999342527172786,
0,0,0,0,179,0,179,0,2080.438218439,2080.438218439,2080.438218439,2080.438218439,2080.438218439,2080.438218439,2080.438218439,1,1,rojo,0,['N_B'],2082.256905851,2082.256905851,2082.256905851,2082.256905851,2084.276276658,2084.276276658,2084.276276658,2084.276276658,2084.276276658,2084.276276658,2084.276276658,2084.276276658,2086.2944511299997,2086.2944511299997,2086.2944511299997,2086.2944511299997,,,,,,,,,,,,,,,,,,,,,,,,,,,,,,,,,,,,,,,08,011,2022-09-27_09h06.39.510,test2,2022.2.4,59.999342527172786,
0,0,0,0,180,0,180,0,2086.2944511299997,2086.2944511299997,2086.2944511299997,2086.2944511299997,2086.2944511299997,2086.2944511299997,2086.2944511299997,1,-1,azul,1,['N_B'],2088.163371266,2088.163371266,2088.163371266,2088.163371266,2090.200565373,2090.200565373,2090.200565373,2090.200565373,2090.200565373,2090.200565373,2090.200565373,2090.200565373,2092.217813363,2092.217813363,2092.217813363,2092.217813363,,,,,,,,,,,,,,,,,,,,,,,,,,,,,,,,,,,,,,,08,011,2022-09-27_09h06.39.510,test2,2022.2.4,59.999342527172786,
0,0,0,0,181,0,181,0,2092.217813363,2092.217813363,2092.217813363,2092.217813363,2092.217813363,2092.217813363,2092.217813363,-1,-1,rojo,1,['N_B'],2093.654120418,2093.654120418,2093.654120418,2093.654120418,2095.689662829,2095.689662829,2095.689662829,2095.689662829,2095.689662829,2095.689662829,2095.689662829,2095.689662829,2097.7069707729997,2097.7069707729997,2097.7069707729997,2097.7069707729997,,,,,,,,,,,,,,,,,,,,,,,,,,,,,,,,,,,,,,,08,011,2022-09-27_09h06.39.510,test2,2022.2.4,59.999342527172786,
0,0,0,0,182,0,182,0,2097.7069707729997,2097.7069707729997,2097.7069707729997,2097.7069707729997,2097.7069707729997,2097.7069707729997,2097.7069707729997,-1,-1,rojo,1,['N_B'],2100.194012499,2100.194012499,2100.194012499,2100.194012499,2102.212315491,2102.212315491,2102.212315491,2102.212315491,2102.212315491,2102.212315491,2102.212315491,2102.212315491,2104.230992934,2104.230992934,2104.230992934,2104.230992934,,,,,,,,,,,,,,,,,,,,,,,,,,,,,,,,,,,,,,,08,011,2022-09-27_09h06.39.510,test2,2022.2.4,59.999342527172786,
0,0,0,0,183,0,183,0,2104.230992934,2104.230992934,2104.230992934,2104.230992934,2104.230992934,2104.230992934,2104.230992934,-1,1,rojo,1,['N_B'],2106.268182086,2106.268182086,2106.268182086,2106.268182086,2108.286771637,2108.286771637,2108.286771637,2108.286771637,2108.286771637,2108.286771637,2108.286771637,2108.286771637,2110.304205048,2110.304205048,2110.304205048,2110.304205048,,,,,,,,,,,,,,,,,,,,,,,,,,,,,,,,,,,,,,,08,011,2022-09-27_09h06.39.510,test2,2022.2.4,59.999342527172786,
0,0,0,0,184,0,184,0,2110.304205048,2110.304205048,2110.304205048,2110.304205048,2110.304205048,2110.304205048,2110.304205048,1,1,azul,1,['N_B'],2111.823158936,2111.823158936,2111.823158936,2111.823158936,2113.8429147439997,2113.8429147439997,2113.8429147439997,2113.8429147439997,2113.8429147439997,2113.8429147439997,2113.8429147439997,2113.8429147439997,2115.860353678,2115.860353678,2115.860353678,2115.860353678,,,,,,,,,,,,,,,,,,,,,,,,,,,,,,,,,,,,,,,08,011,2022-09-27_09h06.39.510,test2,2022.2.4,59.999342527172786,
0,0,0,0,185,0,185,0,2115.860353678,2115.860353678,2115.860353678,2115.860353678,2115.860353678,2115.860353678,2115.860353678,-1,1,rojo,0,['N_A'],2118.665226607,2118.665226607,2118.665226607,2118.665226607,2120.682666244,2120.682666244,2120.682666244,2120.682666244,2120.682666244,2120.682666244,2120.682666244,2120.682666244,2122.701972749,2122.701972749,2122.701972749,2122.701972749,,,,,,,,,,,,,,,,,,,,,,,,,,,,,,,,,,,,,,,08,011,2022-09-27_09h06.39.510,test2,2022.2.4,59.999342527172786,
0,0,0,0,186,0,186,0,2122.701972749,2122.701972749,2122.701972749,2122.701972749,2122.701972749,2122.701972749,2122.701972749,-1,-1,azul,1,['N_A'],2124.6209349319997,2124.6209349319997,2124.6209349319997,2124.6209349319997,2126.657042151,2126.657042151,2126.657042151,2126.657042151,2126.657042151,2126.657042151,2126.657042151,2126.657042151,2128.674720222,2128.674720222,2128.674720222,2128.674720222,,,,,,,,,,,,,,,,,,,,,,,,,,,,,,,,,,,,,,,08,011,2022-09-27_09h06.39.510,test2,2022.2.4,59.999342527172786,
0,0,0,0,187,0,187,0,2128.674720222,2128.674720222,2128.674720222,2128.674720222,2128.674720222,2128.674720222,2128.674720222,1,-1,rojo,0,['N_B'],2130.209542734,2130.209542734,2130.209542734,2130.209542734,2132.246458479,2132.246458479,2132.246458479,2132.246458479,2132.246458479,2132.246458479,2132.246458479,2132.246458479,2134.263700348,2134.263700348,2134.263700348,2134.263700348,,,,,,,,,,,,,,,,,,,,,,,,,,,,,,,,,,,,,,,08,011,2022-09-27_09h06.39.510,test2,2022.2.4,59.999342527172786,
0,0,0,0,188,0,188,0,2134.263700348,2134.263700348,2134.263700348,2134.263700348,2134.263700348,2134.263700348,2134.263700348,-1,-1,rojo,0,['N_A'],2135.698892768,2135.698892768,2135.698892768,2135.698892768,2137.736213321,2137.736213321,2137.736213321,2137.736213321,2137.736213321,2137.736213321,2137.736213321,2137.736213321,2139.7538163639997,2139.7538163639997,2139.7538163639997,2139.7538163639997,,,,,,,,,,,,,,,,,,,,,,,,,,,,,,,,,,,,,,,08,011,2022-09-27_09h06.39.510,test2,2022.2.4,59.999342527172786,
