trials_2.thisRepN,trials_2.thisTrialN,trials_2.thisN,trials_2.thisIndex,trials.thisRepN,trials.thisTrialN,trials.thisN,trials.thisIndex,Stimuli_1.started,Stimuli_2.started,Instrucción.started,N_A.started,N_B.started,Exitos.started,Dias.started,mouse.started,mouse.x,mouse.y,mouse.leftButton,mouse.midButton,mouse.rightButton,mouse.time,mouse.clicked_name,Transitions,Rewards,Mode,Stay,Neighbour,mouse_3.x,mouse_3.y,mouse_3.leftButton,mouse_3.midButton,mouse_3.rightButton,mouse_3.time,mouse_3.clicked_name,Stimuli_3.started,Exitos2.started,Modo.started,Dias2.started,Stimuli_3.stopped,Exitos2.stopped,Modo.stopped,Dias2.stopped,Reward.started,Stimuli_reward.started,Exitos3.started,Dias3.started,Reward.stopped,Stimuli_reward.stopped,Exitos3.stopped,Dias3.stopped,Cue_text.started,Stimuli_4.started,Exitos4.started,Dias4.started,Stimuli_3_3.started,Stimuli_2_3.started,Instrucción_2.started,N_C_3.started,N_B_3.started,N_A_3.started,Exitos_2.started,Dias_2.started,mouse_3.started,Stimuli_1_3.started,Stimuli_3_2.started,Stimuli_2_2.started,Pregunta.started,N_A_2.started,N_B_2.started,N_C_2.started,Exitos5.started,Dias5.started,Stimuli_1_2.started,Resp_final_1,Modo2.started,Modo1.started,Pregunta_2.started,Exitos7.started,Dias6.started,Modo3.started,Resp_final_2,Modo1_2.started,Pregunta_3.started,Exitos8.started,Dias7.started,Modo2_2.started,Resp_final_3,Exitos6.started,Mensaje_Final.started,participant,session,date,expName,psychopyVersion,frameRate,
0,0,0,0,0,0,0,0,819.1469982520001,819.1469982520001,819.1469982520001,819.1469982520001,819.1469982520001,819.1469982520001,819.1469982520001,0.048535040999922785,[],[],[],[],[],[],[],0,0,0,0,['N_A'],[],[],[],[],[],[],[],826.4041043230001,826.4041043230001,826.4041043230001,826.4041043230001,828.4741826979999,828.4741826979999,828.4741826979999,828.4741826979999,828.4741826979999,828.4741826979999,828.4741826979999,828.4741826979999,830.593629933,830.593629933,830.593629933,830.593629933,,,,,,,,,,,,,,,,,,,,,,,,,,,,,,,,,,,,,,,,08,002,2022-09-20_17h14.28.144,test2,2022.2.4,60.07171722032411,
0,0,0,0,1,0,1,0,830.593629933,830.593629933,830.593629933,830.593629933,830.593629933,830.593629933,830.593629933,0.1070538479998504,[],[],[],[],[],[],[],1,-1,rojo,0,['N_B'],[],[],[],[],[],[],[],835.3634549320001,835.3634549320001,835.3634549320001,835.3634549320001,837.416227698,837.416227698,837.416227698,837.416227698,837.416227698,837.416227698,837.416227698,837.416227698,839.434870831,839.434870831,839.434870831,839.434870831,,,,,,,,,,,,,,,,,,,,,,,,,,,,,,,,,,,,,,,,08,002,2022-09-20_17h14.28.144,test2,2022.2.4,60.07171722032411,
0,0,0,0,2,0,2,0,839.434870831,839.434870831,839.434870831,839.434870831,839.434870831,839.434870831,839.434870831,0.020342959000117844,[],[],[],[],[],[],[],1,1,azul,1,['N_B'],[],[],[],[],[],[],[],843.4058497500001,843.4058497500001,843.4058497500001,843.4058497500001,845.4425896280001,845.4425896280001,845.4425896280001,845.4425896280001,845.4425896280001,845.4425896280001,845.4425896280001,845.4425896280001,847.460277007,847.460277007,847.460277007,847.460277007,,,,,,,,,,,,,,,,,,,,,,,,,,,,,,,,,,,,,,,,08,002,2022-09-20_17h14.28.144,test2,2022.2.4,60.07171722032411,
0,0,0,0,3,0,3,0,847.460277007,847.460277007,847.460277007,847.460277007,847.460277007,847.460277007,847.460277007,0.018625929000108954,[],[],[],[],[],[],[],1,-1,azul,1,['N_B'],[],[],[],[],[],[],[],849.4972540520001,849.4972540520001,849.4972540520001,849.4972540520001,851.5320407580001,851.5320407580001,851.5320407580001,851.5320407580001,851.5320407580001,851.5320407580001,851.5320407580001,851.5320407580001,853.5681632280001,853.5681632280001,853.5681632280001,853.5681632280001,,,,,,,,,,,,,,,,,,,,,,,,,,,,,,,,,,,,,,,,08,002,2022-09-20_17h14.28.144,test2,2022.2.4,60.07171722032411,
0,0,0,0,4,0,4,0,853.5681632280001,853.5681632280001,853.5681632280001,853.5681632280001,853.5681632280001,853.5681632280001,853.5681632280001,0.01983113799997227,[],[],[],[],[],[],[],1,1,azul,0,['N_A'],[],[],[],[],[],[],[],855.5025912530001,855.5025912530001,855.5025912530001,855.5025912530001,857.540045648,857.540045648,857.540045648,857.540045648,857.540045648,857.540045648,857.540045648,857.540045648,859.556824356,859.556824356,859.556824356,859.556824356,,,,,,,,,,,,,,,,,,,,,,,,,,,,,,,,,,,,,,,,08,002,2022-09-20_17h14.28.144,test2,2022.2.4,60.07171722032411,
0,0,0,0,5,0,5,0,859.556824356,859.556824356,859.556824356,859.556824356,859.556824356,859.556824356,859.556824356,0.019170800999972926,[],[],[],[],[],[],[],-1,-1,azul,0,['N_B'],[],[],[],[],[],[],[],861.609199722,861.609199722,861.609199722,861.609199722,863.645076917,863.645076917,863.645076917,863.645076917,863.645076917,863.645076917,863.645076917,863.645076917,865.664959844,865.664959844,865.664959844,865.664959844,,,,,,,,,,,,,,,,,,,,,,,,,,,,,,,,,,,,,,,,08,002,2022-09-20_17h14.28.144,test2,2022.2.4,60.07171722032411,
0,0,0,0,6,0,6,0,865.664959844,865.664959844,865.664959844,865.664959844,865.664959844,865.664959844,865.664959844,0.01847983200013914,[],[],[],[],[],[],[],1,1,azul,0,['N_A'],[],[],[],[],[],[],[],869.003864206,869.003864206,869.003864206,869.003864206,871.037949274,871.037949274,871.037949274,871.037949274,871.037949274,871.037949274,871.037949274,871.037949274,873.0557321719999,873.0557321719999,873.0557321719999,873.0557321719999,,,,,,,,,,,,,,,,,,,,,,,,,,,,,,,,,,,,,,,,08,002,2022-09-20_17h14.28.144,test2,2022.2.4,60.07171722032411,
0,0,0,0,7,0,7,0,873.0557321719999,873.0557321719999,873.0557321719999,873.0557321719999,873.0557321719999,873.0557321719999,873.0557321719999,0.01873613100019611,[],[],[],[],[],[],[],-1,1,azul,0,['N_B'],[],[],[],[],[],[],[],879.813022276,879.813022276,879.813022276,879.813022276,881.849308058,881.849308058,881.849308058,881.849308058,881.849308058,881.849308058,881.849308058,881.849308058,883.885687464,883.885687464,883.885687464,883.885687464,,,,,,,,,,,,,,,,,,,,,,,,,,,,,,,,,,,,,,,,08,002,2022-09-20_17h14.28.144,test2,2022.2.4,60.07171722032411,
0,0,0,0,8,0,8,0,883.885687464,883.885687464,883.885687464,883.885687464,883.885687464,883.885687464,883.885687464,0.018035361000102057,[],[],[],[],[],[],[],1,1,azul,1,['N_B'],[],[],[],[],[],[],[],884.92098587,884.92098587,884.92098587,884.92098587,886.9550549649999,886.9550549649999,886.9550549649999,886.9550549649999,886.9550549649999,886.9550549649999,886.9550549649999,886.9550549649999,888.972646131,888.972646131,888.972646131,888.972646131,,,,,,,,,,,,,,,,,,,,,,,,,,,,,,,,,,,,,,,,08,002,2022-09-20_17h14.28.144,test2,2022.2.4,60.07171722032411,
0,0,0,0,9,0,9,0,888.972646131,888.972646131,888.972646131,888.972646131,888.972646131,888.972646131,888.972646131,0.017151637000097253,[],[],[],[],[],[],[],1,1,azul,0,['N_A'],[],[],[],[],[],[],[],890.7410208350001,890.7410208350001,890.7410208350001,890.7410208350001,892.777559836,892.777559836,892.777559836,892.777559836,892.777559836,892.777559836,892.777559836,892.777559836,894.7959637099999,894.7959637099999,894.7959637099999,894.7959637099999,,,,,,,,,,,,,,,,,,,,,,,,,,,,,,,,,,,,,,,,08,002,2022-09-20_17h14.28.144,test2,2022.2.4,60.07171722032411,
0,0,0,0,10,0,10,0,894.7959637099999,894.7959637099999,894.7959637099999,894.7959637099999,894.7959637099999,894.7959637099999,894.7959637099999,0.01795195399995464,[],[],[],[],[],[],[],1,-1,rojo,0,['N_B'],[],[],[],[],[],[],[],897.7002153930001,897.7002153930001,897.7002153930001,897.7002153930001,899.7343586420001,899.7343586420001,899.7343586420001,899.7343586420001,899.7343586420001,899.7343586420001,899.7343586420001,899.7343586420001,901.7706599889999,901.7706599889999,901.7706599889999,901.7706599889999,,,,,,,,,,,,,,,,,,,,,,,,,,,,,,,,,,,,,,,,08,002,2022-09-20_17h14.28.144,test2,2022.2.4,60.07171722032411,
0,0,0,0,11,0,11,0,901.7706599889999,901.7706599889999,901.7706599889999,901.7706599889999,901.7706599889999,901.7706599889999,901.7706599889999,0.018794080000134272,[],[],[],[],[],[],[],1,1,azul,1,['N_B'],[],[],[],[],[],[],[],903.5065434280001,903.5065434280001,903.5065434280001,903.5065434280001,905.542528734,905.542528734,905.542528734,905.542528734,905.542528734,905.542528734,905.542528734,905.542528734,907.5599283949999,907.5599283949999,907.5599283949999,907.5599283949999,,,,,,,,,,,,,,,,,,,,,,,,,,,,,,,,,,,,,,,,08,002,2022-09-20_17h14.28.144,test2,2022.2.4,60.07171722032411,
0,0,0,0,12,0,12,0,907.5599283949999,907.5599283949999,907.5599283949999,907.5599283949999,907.5599283949999,907.5599283949999,907.5599283949999,0.017330069999843545,[],[],[],[],[],[],[],-1,-1,rojo,0,['N_A'],[],[],[],[],[],[],[],909.73002224,909.73002224,909.73002224,909.73002224,911.764940317,911.764940317,911.764940317,911.764940317,911.764940317,911.764940317,911.764940317,911.764940317,913.7835911139999,913.7835911139999,913.7835911139999,913.7835911139999,,,,,,,,,,,,,,,,,,,,,,,,,,,,,,,,,,,,,,,,08,002,2022-09-20_17h14.28.144,test2,2022.2.4,60.07171722032411,
0,0,0,0,13,0,13,0,913.7835911139999,913.7835911139999,913.7835911139999,913.7835911139999,913.7835911139999,913.7835911139999,913.7835911139999,0.017634933000181263,[],[],[],[],[],[],[],1,-1,rojo,1,['N_A'],[],[],[],[],[],[],[],916.637522187,916.637522187,916.637522187,916.637522187,918.672731951,918.672731951,918.672731951,918.672731951,918.672731951,918.672731951,918.672731951,918.672731951,920.691733647,920.691733647,920.691733647,920.691733647,,,,,,,,,,,,,,,,,,,,,,,,,,,,,,,,,,,,,,,,08,002,2022-09-20_17h14.28.144,test2,2022.2.4,60.07171722032411,
0,0,0,0,14,0,14,0,920.691733647,920.691733647,920.691733647,920.691733647,920.691733647,920.691733647,920.691733647,0.017770563999874867,[],[],[],[],[],[],[],-1,1,azul,0,['N_B'],[],[],[],[],[],[],[],922.7455560239999,922.7455560239999,922.7455560239999,922.7455560239999,924.7805721190001,924.7805721190001,924.7805721190001,924.7805721190001,924.7805721190001,924.7805721190001,924.7805721190001,924.7805721190001,926.7978450280001,926.7978450280001,926.7978450280001,926.7978450280001,,,,,,,,,,,,,,,,,,,,,,,,,,,,,,,,,,,,,,,,08,002,2022-09-20_17h14.28.144,test2,2022.2.4,60.07171722032411,
0,0,0,0,15,0,15,0,926.7978450280001,926.7978450280001,926.7978450280001,926.7978450280001,926.7978450280001,926.7978450280001,926.7978450280001,0.017419760000166207,[],[],[],[],[],[],[],-1,-1,rojo,1,['N_B'],[],[],[],[],[],[],[],928.9677292130001,928.9677292130001,928.9677292130001,928.9677292130001,931.020099618,931.020099618,931.020099618,931.020099618,931.020099618,931.020099618,931.020099618,931.020099618,933.038335605,933.038335605,933.038335605,933.038335605,,,,,,,,,,,,,,,,,,,,,,,,,,,,,,,,,,,,,,,,08,002,2022-09-20_17h14.28.144,test2,2022.2.4,60.07171722032411,
0,0,0,0,16,0,16,0,933.038335605,933.038335605,933.038335605,933.038335605,933.038335605,933.038335605,933.038335605,0.017876152999861006,[],[],[],[],[],[],[],1,-1,azul,1,['N_B'],[],[],[],[],[],[],[],934.572697852,934.572697852,934.572697852,934.572697852,936.628110037,936.628110037,936.628110037,936.628110037,936.628110037,936.628110037,936.628110037,936.628110037,938.644925385,938.644925385,938.644925385,938.644925385,,,,,,,,,,,,,,,,,,,,,,,,,,,,,,,,,,,,,,,,08,002,2022-09-20_17h14.28.144,test2,2022.2.4,60.07171722032411,
0,0,0,0,17,0,17,0,938.644925385,938.644925385,938.644925385,938.644925385,938.644925385,938.644925385,938.644925385,0.017329273000086687,[],[],[],[],[],[],[],1,-1,azul,0,['N_A'],[],[],[],[],[],[],[],941.5311297920001,941.5311297920001,941.5311297920001,941.5311297920001,943.5836979679999,943.5836979679999,943.5836979679999,943.5836979679999,943.5836979679999,943.5836979679999,943.5836979679999,943.5836979679999,945.602119042,945.602119042,945.602119042,945.602119042,,,,,,,,,,,,,,,,,,,,,,,,,,,,,,,,,,,,,,,,08,002,2022-09-20_17h14.28.144,test2,2022.2.4,60.07171722032411,
0,0,0,0,18,0,18,0,945.602119042,945.602119042,945.602119042,945.602119042,945.602119042,945.602119042,945.602119042,0.018212424000012106,[],[],[],[],[],[],[],1,-1,rojo,1,['N_A'],[],[],[],[],[],[],[],947.8395122800001,947.8395122800001,947.8395122800001,947.8395122800001,949.8732583770001,949.8732583770001,949.8732583770001,949.8732583770001,949.8732583770001,949.8732583770001,949.8732583770001,949.8732583770001,951.8930660720001,951.8930660720001,951.8930660720001,951.8930660720001,,,,,,,,,,,,,,,,,,,,,,,,,,,,,,,,,,,,,,,,08,002,2022-09-20_17h14.28.144,test2,2022.2.4,60.07171722032411,
0,0,0,0,19,0,19,0,951.8930660720001,951.8930660720001,951.8930660720001,951.8930660720001,951.8930660720001,951.8930660720001,951.8930660720001,0.017974420999962604,[],[],[],[],[],[],[],-1,1,azul,1,['N_A'],[],[],[],[],[],[],[],953.712412985,953.712412985,953.712412985,953.712412985,955.7486486859999,955.7486486859999,955.7486486859999,955.7486486859999,955.7486486859999,955.7486486859999,955.7486486859999,955.7486486859999,957.766118049,957.766118049,957.766118049,957.766118049,,,,,,,,,,,,,,,,,,,,,,,,,,,,,,,,,,,,,,,,08,002,2022-09-20_17h14.28.144,test2,2022.2.4,60.07171722032411,
0,0,0,0,20,0,20,0,957.766118049,957.766118049,957.766118049,957.766118049,957.766118049,957.766118049,957.766118049,0.01867128899993986,[],[],[],[],[],[],[],1,1,rojo,0,['N_B'],[],[],[],[],[],[],[],960.4031676589999,960.4031676589999,960.4031676589999,960.4031676589999,962.4383803050001,962.4383803050001,962.4383803050001,962.4383803050001,962.4383803050001,962.4383803050001,962.4383803050001,962.4383803050001,964.4567157970001,964.4567157970001,964.4567157970001,964.4567157970001,,,,,,,,,,,,,,,,,,,,,,,,,,,,,,,,,,,,,,,,08,002,2022-09-20_17h14.28.144,test2,2022.2.4,60.07171722032411,
0,0,0,0,21,0,21,0,964.4567157970001,964.4567157970001,964.4567157970001,964.4567157970001,964.4567157970001,964.4567157970001,964.4567157970001,0.017429396999887103,[],[],[],[],[],[],[],1,-1,azul,1,['N_B'],[],[],[],[],[],[],[],966.1078405290001,966.1078405290001,966.1078405290001,966.1078405290001,968.143914079,968.143914079,968.143914079,968.143914079,968.143914079,968.143914079,968.143914079,968.143914079,970.162498002,970.162498002,970.162498002,970.162498002,,,,,,,,,,,,,,,,,,,,,,,,,,,,,,,,,,,,,,,,08,002,2022-09-20_17h14.28.144,test2,2022.2.4,60.07171722032411,
0,0,0,0,22,0,22,0,970.162498002,970.162498002,970.162498002,970.162498002,970.162498002,970.162498002,970.162498002,0.017983925000180534,[],[],[],[],[],[],[],-1,-1,rojo,1,['N_B'],[],[],[],[],[],[],[],971.866283252,971.866283252,971.866283252,971.866283252,973.9177189180001,973.9177189180001,973.9177189180001,973.9177189180001,973.9177189180001,973.9177189180001,973.9177189180001,973.9177189180001,975.936630952,975.936630952,975.936630952,975.936630952,,,,,,,,,,,,,,,,,,,,,,,,,,,,,,,,,,,,,,,,08,002,2022-09-20_17h14.28.144,test2,2022.2.4,60.07171722032411,
0,0,0,0,23,0,23,0,975.936630952,975.936630952,975.936630952,975.936630952,975.936630952,975.936630952,975.936630952,0.01854277400002502,[],[],[],[],[],[],[],1,-1,azul,0,['N_A'],[],[],[],[],[],[],[],977.52030112,977.52030112,977.52030112,977.52030112,979.5742359950001,979.5742359950001,979.5742359950001,979.5742359950001,979.5742359950001,979.5742359950001,979.5742359950001,979.5742359950001,981.591403925,981.591403925,981.591403925,981.591403925,,,,,,,,,,,,,,,,,,,,,,,,,,,,,,,,,,,,,,,,08,002,2022-09-20_17h14.28.144,test2,2022.2.4,60.07171722032411,
0,0,0,0,24,0,24,0,981.591403925,981.591403925,981.591403925,981.591403925,981.591403925,981.591403925,981.591403925,0.017365036000001055,[],[],[],[],[],[],[],1,-1,rojo,1,['N_A'],[],[],[],[],[],[],[],983.2767337480001,983.2767337480001,983.2767337480001,983.2767337480001,985.312629718,985.312629718,985.312629718,985.312629718,985.312629718,985.312629718,985.312629718,985.312629718,987.3319739,987.3319739,987.3319739,987.3319739,,,,,,,,,,,,,,,,,,,,,,,,,,,,,,,,,,,,,,,,08,002,2022-09-20_17h14.28.144,test2,2022.2.4,60.07171722032411,
0,0,0,0,25,0,25,0,987.3319739,987.3319739,987.3319739,987.3319739,987.3319739,987.3319739,987.3319739,0.017284522999943874,[],[],[],[],[],[],[],1,1,rojo,1,['N_A'],[],[],[],[],[],[],[],989.1163787700001,989.1163787700001,989.1163787700001,989.1163787700001,991.152696661,991.152696661,991.152696661,991.152696661,991.152696661,991.152696661,991.152696661,991.152696661,993.171067701,993.171067701,993.171067701,993.171067701,,,,,,,,,,,,,,,,,,,,,,,,,,,,,,,,,,,,,,,,08,002,2022-09-20_17h14.28.144,test2,2022.2.4,60.07171722032411,
0,0,0,0,26,0,26,0,993.171067701,993.171067701,993.171067701,993.171067701,993.171067701,993.171067701,993.171067701,0.01786727500007146,[],[],[],[],[],[],[],1,1,rojo,1,['N_A'],[],[],[],[],[],[],[],994.9250555909999,994.9250555909999,994.9250555909999,994.9250555909999,996.9593348479999,996.9593348479999,996.9593348479999,996.9593348479999,996.9593348479999,996.9593348479999,996.9593348479999,996.9593348479999,998.9780041319999,998.9780041319999,998.9780041319999,998.9780041319999,,,,,,,,,,,,,,,,,,,,,,,,,,,,,,,,,,,,,,,,08,002,2022-09-20_17h14.28.144,test2,2022.2.4,60.07171722032411,
0,0,0,0,27,0,27,0,998.9780041319999,998.9780041319999,998.9780041319999,998.9780041319999,998.9780041319999,998.9780041319999,998.9780041319999,0.017264432000047236,[],[],[],[],[],[],[],-1,-1,azul,0,['N_B'],[],[],[],[],[],[],[],1000.898402462,1000.898402462,1000.898402462,1000.898402462,1002.932277348,1002.932277348,1002.932277348,1002.932277348,1002.932277348,1002.932277348,1002.932277348,1002.932277348,1004.951396152,1004.951396152,1004.951396152,1004.951396152,,,,,,,,,,,,,,,,,,,,,,,,,,,,,,,,,,,,,,,,08,002,2022-09-20_17h14.28.144,test2,2022.2.4,60.07171722032411,
0,0,0,0,28,0,28,0,1004.951396152,1004.951396152,1004.951396152,1004.951396152,1004.951396152,1004.951396152,1004.951396152,0.017768049000096653,[],[],[],[],[],[],[],1,-1,azul,1,['N_B'],[],[],[],[],[],[],[],1006.102417296,1006.102417296,1006.102417296,1006.102417296,1008.1379564780001,1008.1379564780001,1008.1379564780001,1008.1379564780001,1008.1379564780001,1008.1379564780001,1008.1379564780001,1008.1379564780001,1010.175070014,1010.175070014,1010.175070014,1010.175070014,,,,,,,,,,,,,,,,,,,,,,,,,,,,,,,,,,,,,,,,08,002,2022-09-20_17h14.28.144,test2,2022.2.4,60.07171722032411,
0,0,0,0,29,0,29,0,1010.175070014,1010.175070014,1010.175070014,1010.175070014,1010.175070014,1010.175070014,1010.175070014,0.030178809999824807,[],[],[],[],[],[],[],1,-1,azul,0,['N_A'],[],[],[],[],[],[],[],1013.0280481389999,1013.0280481389999,1013.0280481389999,1013.0280481389999,1015.062732855,1015.062732855,1015.062732855,1015.062732855,1015.062732855,1015.062732855,1015.062732855,1015.062732855,1017.081057947,1017.081057947,1017.081057947,1017.081057947,,,,,,,,,,,,,,,,,,,,,,,,,,,,,,,,,,,,,,,,08,002,2022-09-20_17h14.28.144,test2,2022.2.4,60.07171722032411,
0,0,0,0,30,0,30,0,1017.081057947,1017.081057947,1017.081057947,1017.081057947,1017.081057947,1017.081057947,1017.081057947,0.01719599099988045,[],[],[],[],[],[],[],1,-1,rojo,1,['N_A'],[],[],[],[],[],[],[],1018.6512091799999,1018.6512091799999,1018.6512091799999,1018.6512091799999,1020.6856038280001,1020.6856038280001,1020.6856038280001,1020.6856038280001,1020.6856038280001,1020.6856038280001,1020.6856038280001,1020.6856038280001,1022.70398057,1022.70398057,1022.70398057,1022.70398057,,,,,,,,,,,,,,,,,,,,,,,,,,,,,,,,,,,,,,,,08,002,2022-09-20_17h14.28.144,test2,2022.2.4,60.07171722032411,
0,0,0,0,31,0,31,0,1022.70398057,1022.70398057,1022.70398057,1022.70398057,1022.70398057,1022.70398057,1022.70398057,0.017742285999929663,[],[],[],[],[],[],[],1,-1,rojo,1,['N_A'],[],[],[],[],[],[],[],1024.290691224,1024.290691224,1024.290691224,1024.290691224,1026.324877211,1026.324877211,1026.324877211,1026.324877211,1026.324877211,1026.324877211,1026.324877211,1026.324877211,1028.343830671,1028.343830671,1028.343830671,1028.343830671,,,,,,,,,,,,,,,,,,,,,,,,,,,,,,,,,,,,,,,,08,002,2022-09-20_17h14.28.144,test2,2022.2.4,60.07171722032411,
0,0,0,0,32,0,32,0,1028.343830671,1028.343830671,1028.343830671,1028.343830671,1028.343830671,1028.343830671,1028.343830671,0.01744939200011686,[],[],[],[],[],[],[],1,-1,rojo,0,['N_B'],[],[],[],[],[],[],[],1029.8792331690001,1029.8792331690001,1029.8792331690001,1029.8792331690001,1031.914969511,1031.914969511,1031.914969511,1031.914969511,1031.914969511,1031.914969511,1031.914969511,1031.914969511,1033.932839575,1033.932839575,1033.932839575,1033.932839575,,,,,,,,,,,,,,,,,,,,,,,,,,,,,,,,,,,,,,,,08,002,2022-09-20_17h14.28.144,test2,2022.2.4,60.07171722032411,
0,0,0,0,33,0,33,0,1033.932839575,1033.932839575,1033.932839575,1033.932839575,1033.932839575,1033.932839575,1033.932839575,0.017126425000014933,[],[],[],[],[],[],[],1,1,azul,1,['N_B'],[],[],[],[],[],[],[],1035.6862320310001,1035.6862320310001,1035.6862320310001,1035.6862320310001,1037.7209551659998,1037.7209551659998,1037.7209551659998,1037.7209551659998,1037.7209551659998,1037.7209551659998,1037.7209551659998,1037.7209551659998,1039.73947908,1039.73947908,1039.73947908,1039.73947908,,,,,,,,,,,,,,,,,,,,,,,,,,,,,,,,,,,,,,,,08,002,2022-09-20_17h14.28.144,test2,2022.2.4,60.07171722032411,
0,0,0,0,34,0,34,0,1039.73947908,1039.73947908,1039.73947908,1039.73947908,1039.73947908,1039.73947908,1039.73947908,0.016971022000006997,[],[],[],[],[],[],[],1,-1,azul,1,['N_B'],[],[],[],[],[],[],[],1041.292470939,1041.292470939,1041.292470939,1041.292470939,1043.3268689330002,1043.3268689330002,1043.3268689330002,1043.3268689330002,1043.3268689330002,1043.3268689330002,1043.3268689330002,1043.3268689330002,1045.345365868,1045.345365868,1045.345365868,1045.345365868,,,,,,,,,,,,,,,,,,,,,,,,,,,,,,,,,,,,,,,,08,002,2022-09-20_17h14.28.144,test2,2022.2.4,60.07171722032411,
0,0,0,0,35,0,35,0,1045.345365868,1045.345365868,1045.345365868,1045.345365868,1045.345365868,1045.345365868,1045.345365868,0.016980748000150925,[],[],[],[],[],[],[],-1,-1,rojo,1,['N_B'],[],[],[],[],[],[],[],1047.2993547320002,1047.2993547320002,1047.2993547320002,1047.2993547320002,1049.334184706,1049.334184706,1049.334184706,1049.334184706,1049.334184706,1049.334184706,1049.334184706,1049.334184706,1051.352498201,1051.352498201,1051.352498201,1051.352498201,,,,,,,,,,,,,,,,,,,,,,,,,,,,,,,,,,,,,,,,08,002,2022-09-20_17h14.28.144,test2,2022.2.4,60.07171722032411,
0,0,0,0,36,0,36,0,1051.352498201,1051.352498201,1051.352498201,1051.352498201,1051.352498201,1051.352498201,1051.352498201,0.017195380999964982,[],[],[],[],[],[],[],-1,1,rojo,1,['N_B'],[],[],[],[],[],[],[],1053.705121545,1053.705121545,1053.705121545,1053.705121545,1055.7407458530001,1055.7407458530001,1055.7407458530001,1055.7407458530001,1055.7407458530001,1055.7407458530001,1055.7407458530001,1055.7407458530001,1057.759296833,1057.759296833,1057.759296833,1057.759296833,,,,,,,,,,,,,,,,,,,,,,,,,,,,,,,,,,,,,,,,08,002,2022-09-20_17h14.28.144,test2,2022.2.4,60.07171722032411,
0,0,0,0,37,0,37,0,1057.759296833,1057.759296833,1057.759296833,1057.759296833,1057.759296833,1057.759296833,1057.759296833,0.01764921900007721,[],[],[],[],[],[],[],1,-1,azul,0,['N_A'],[],[],[],[],[],[],[],1059.1944302430002,1059.1944302430002,1059.1944302430002,1059.1944302430002,1061.246776601,1061.246776601,1061.246776601,1061.246776601,1061.246776601,1061.246776601,1061.246776601,1061.246776601,1063.2653054900002,1063.2653054900002,1063.2653054900002,1063.2653054900002,,,,,,,,,,,,,,,,,,,,,,,,,,,,,,,,,,,,,,,,08,002,2022-09-20_17h14.28.144,test2,2022.2.4,60.07171722032411,
0,0,0,0,38,0,38,0,1063.2653054900002,1063.2653054900002,1063.2653054900002,1063.2653054900002,1063.2653054900002,1063.2653054900002,1063.2653054900002,0.01719614199987518,[],[],[],[],[],[],[],1,-1,rojo,1,['N_A'],[],[],[],[],[],[],[],1064.7182501759999,1064.7182501759999,1064.7182501759999,1064.7182501759999,1066.7700508520002,1066.7700508520002,1066.7700508520002,1066.7700508520002,1066.7700508520002,1066.7700508520002,1066.7700508520002,1066.7700508520002,1068.788561844,1068.788561844,1068.788561844,1068.788561844,,,,,,,,,,,,,,,,,,,,,,,,,,,,,,,,,,,,,,,,08,002,2022-09-20_17h14.28.144,test2,2022.2.4,60.07171722032411,
0,0,0,0,39,0,39,0,1068.788561844,1068.788561844,1068.788561844,1068.788561844,1068.788561844,1068.788561844,1068.788561844,0.017277261999879556,[],[],[],[],[],[],[],1,-1,rojo,1,['N_A'],[],[],[],[],[],[],[],1070.3069453389999,1070.3069453389999,1070.3069453389999,1070.3069453389999,1072.3421632700001,1072.3421632700001,1072.3421632700001,1072.3421632700001,1072.3421632700001,1072.3421632700001,1072.3421632700001,1072.3421632700001,1074.361242458,1074.361242458,1074.361242458,1074.361242458,,,,,,,,,,,,,,,,,,,,,,,,,,,,,,,,,,,,,,,,08,002,2022-09-20_17h14.28.144,test2,2022.2.4,60.07171722032411,
0,0,0,0,40,0,40,0,1074.361242458,1074.361242458,1074.361242458,1074.361242458,1074.361242458,1074.361242458,1074.361242458,0.017316833999984738,[],[],[],[],[],[],[],1,-1,rojo,1,['N_A'],[],[],[],[],[],[],[],1075.946764929,1075.946764929,1075.946764929,1075.946764929,1077.98205169,1077.98205169,1077.98205169,1077.98205169,1077.98205169,1077.98205169,1077.98205169,1077.98205169,1080.000839241,1080.000839241,1080.000839241,1080.000839241,,,,,,,,,,,,,,,,,,,,,,,,,,,,,,,,,,,,,,,,08,002,2022-09-20_17h14.28.144,test2,2022.2.4,60.07171722032411,
0,0,0,0,41,0,41,0,1080.000839241,1080.000839241,1080.000839241,1080.000839241,1080.000839241,1080.000839241,1080.000839241,0.017592438000065158,[],[],[],[],[],[],[],1,-1,rojo,1,['N_A'],[],[],[],[],[],[],[],1081.786418048,1081.786418048,1081.786418048,1081.786418048,1083.8218797190002,1083.8218797190002,1083.8218797190002,1083.8218797190002,1083.8218797190002,1083.8218797190002,1083.8218797190002,1083.8218797190002,1085.8403780980002,1085.8403780980002,1085.8403780980002,1085.8403780980002,,,,,,,,,,,,,,,,,,,,,,,,,,,,,,,,,,,,,,,,08,002,2022-09-20_17h14.28.144,test2,2022.2.4,60.07171722032411,
0,0,0,0,42,0,42,0,1085.8403780980002,1085.8403780980002,1085.8403780980002,1085.8403780980002,1085.8403780980002,1085.8403780980002,1085.8403780980002,0.017458879000059824,[],[],[],[],[],[],[],1,-1,rojo,0,['N_B'],[],[],[],[],[],[],[],1088.2614455789999,1088.2614455789999,1088.2614455789999,1088.2614455789999,1090.312770955,1090.312770955,1090.312770955,1090.312770955,1090.312770955,1090.312770955,1090.312770955,1090.312770955,1092.331233584,1092.331233584,1092.331233584,1092.331233584,,,,,,,,,,,,,,,,,,,,,,,,,,,,,,,,,,,,,,,,08,002,2022-09-20_17h14.28.144,test2,2022.2.4,60.07171722032411,
0,0,0,0,43,0,43,0,1092.331233584,1092.331233584,1092.331233584,1092.331233584,1092.331233584,1092.331233584,1092.331233584,0.01705434400014383,[],[],[],[],[],[],[],-1,-1,rojo,0,['N_A'],[],[],[],[],[],[],[],1094.083811178,1094.083811178,1094.083811178,1094.083811178,1096.1359156940002,1096.1359156940002,1096.1359156940002,1096.1359156940002,1096.1359156940002,1096.1359156940002,1096.1359156940002,1096.1359156940002,1098.1541467910001,1098.1541467910001,1098.1541467910001,1098.1541467910001,,,,,,,,,,,,,,,,,,,,,,,,,,,,,,,,,,,,,,,,08,002,2022-09-20_17h14.28.144,test2,2022.2.4,60.07171722032411,
0,0,0,0,44,0,44,0,1098.1541467910001,1098.1541467910001,1098.1541467910001,1098.1541467910001,1098.1541467910001,1098.1541467910001,1098.1541467910001,0.017353099999809274,[],[],[],[],[],[],[],1,-1,rojo,0,['N_B'],[],[],[],[],[],[],[],1099.7067960610002,1099.7067960610002,1099.7067960610002,1099.7067960610002,1101.7591000070001,1101.7591000070001,1101.7591000070001,1101.7591000070001,1101.7591000070001,1101.7591000070001,1101.7591000070001,1101.7591000070001,1103.777036521,1103.777036521,1103.777036521,1103.777036521,,,,,,,,,,,,,,,,,,,,,,,,,,,,,,,,,,,,,,,,08,002,2022-09-20_17h14.28.144,test2,2022.2.4,60.07171722032411,
0,0,0,0,45,0,45,0,1103.777036521,1103.777036521,1103.777036521,1103.777036521,1103.777036521,1103.777036521,1103.777036521,0.017617186000052243,[],[],[],[],[],[],[],1,-1,azul,0,['N_A'],[],[],[],[],[],[],[],1105.1795181870002,1105.1795181870002,1105.1795181870002,1105.1795181870002,1107.215191108,1107.215191108,1107.215191108,1107.215191108,1107.215191108,1107.215191108,1107.215191108,1107.215191108,1109.232556039,1109.232556039,1109.232556039,1109.232556039,,,,,,,,,,,,,,,,,,,,,,,,,,,,,,,,,,,,,,,,08,002,2022-09-20_17h14.28.144,test2,2022.2.4,60.07171722032411,
0,0,0,0,46,0,46,0,1109.232556039,1109.232556039,1109.232556039,1109.232556039,1109.232556039,1109.232556039,1109.232556039,0.017714885000032154,[],[],[],[],[],[],[],-1,1,azul,1,['N_A'],[],[],[],[],[],[],[],1111.0027003159998,1111.0027003159998,1111.0027003159998,1111.0027003159998,1113.036802961,1113.036802961,1113.036802961,1113.036802961,1113.036802961,1113.036802961,1113.036802961,1113.036802961,1115.056145171,1115.056145171,1115.056145171,1115.056145171,,,,,,,,,,,,,,,,,,,,,,,,,,,,,,,,,,,,,,,,08,002,2022-09-20_17h14.28.144,test2,2022.2.4,60.07171722032411,
0,0,0,0,47,0,47,0,1115.056145171,1115.056145171,1115.056145171,1115.056145171,1115.056145171,1115.056145171,1115.056145171,0.017337414999929024,[],[],[],[],[],[],[],1,-1,rojo,0,['N_B'],[],[],[],[],[],[],[],1116.8928014980002,1116.8928014980002,1116.8928014980002,1116.8928014980002,1118.927137188,1118.927137188,1118.927137188,1118.927137188,1118.927137188,1118.927137188,1118.927137188,1118.927137188,1120.946086077,1120.946086077,1120.946086077,1120.946086077,,,,,,,,,,,,,,,,,,,,,,,,,,,,,,,,,,,,,,,,08,002,2022-09-20_17h14.28.144,test2,2022.2.4,60.07171722032411,
0,0,0,0,48,0,48,0,1120.946086077,1120.946086077,1120.946086077,1120.946086077,1120.946086077,1120.946086077,1120.946086077,0.01768578500013973,[],[],[],[],[],[],[],1,-1,azul,1,['N_B'],[],[],[],[],[],[],[],1122.5318506009999,1122.5318506009999,1122.5318506009999,1122.5318506009999,1124.5664584840001,1124.5664584840001,1124.5664584840001,1124.5664584840001,1124.5664584840001,1124.5664584840001,1124.5664584840001,1124.5664584840001,1126.584606502,1126.584606502,1126.584606502,1126.584606502,,,,,,,,,,,,,,,,,,,,,,,,,,,,,,,,,,,,,,,,08,002,2022-09-20_17h14.28.144,test2,2022.2.4,60.07171722032411,
0,0,0,0,49,0,49,0,1126.584606502,1126.584606502,1126.584606502,1126.584606502,1126.584606502,1126.584606502,1126.584606502,0.01728537100007088,[],[],[],[],[],[],[],1,1,azul,1,['N_B'],[],[],[],[],[],[],[],1128.054272329,1128.054272329,1128.054272329,1128.054272329,1130.0905022900001,1130.0905022900001,1130.0905022900001,1130.0905022900001,1130.0905022900001,1130.0905022900001,1130.0905022900001,1130.0905022900001,1132.1085285469999,1132.1085285469999,1132.1085285469999,1132.1085285469999,,,,,,,,,,,,,,,,,,,,,,,,,,,,,,,,,,,,,,,,08,002,2022-09-20_17h14.28.144,test2,2022.2.4,60.07171722032411,
0,0,0,0,50,0,50,0,1132.1085285469999,1132.1085285469999,1132.1085285469999,1132.1085285469999,1132.1085285469999,1132.1085285469999,1132.1085285469999,0.017087635000052614,[],[],[],[],[],[],[],1,-1,azul,1,['N_B'],[],[],[],[],[],[],[],1133.6119961650002,1133.6119961650002,1133.6119961650002,1133.6119961650002,1135.646023401,1135.646023401,1135.646023401,1135.646023401,1135.646023401,1135.646023401,1135.646023401,1135.646023401,1137.6636533269998,1137.6636533269998,1137.6636533269998,1137.6636533269998,,,,,,,,,,,,,,,,,,,,,,,,,,,,,,,,,,,,,,,,08,002,2022-09-20_17h14.28.144,test2,2022.2.4,60.07171722032411,
0,0,0,0,51,0,51,0,1137.6636533269998,1137.6636533269998,1137.6636533269998,1137.6636533269998,1137.6636533269998,1137.6636533269998,1137.6636533269998,0.01705318799986344,[],[],[],[],[],[],[],1,1,azul,1,['N_B'],[],[],[],[],[],[],[],1139.3008573289999,1139.3008573289999,1139.3008573289999,1139.3008573289999,1141.334539337,1141.334539337,1141.334539337,1141.334539337,1141.334539337,1141.334539337,1141.334539337,1141.334539337,1143.371291544,1143.371291544,1143.371291544,1143.371291544,,,,,,,,,,,,,,,,,,,,,,,,,,,,,,,,,,,,,,,,08,002,2022-09-20_17h14.28.144,test2,2022.2.4,60.07171722032411,
0,0,0,0,52,0,52,0,1143.371291544,1143.371291544,1143.371291544,1143.371291544,1143.371291544,1143.371291544,1143.371291544,0.017941422000149032,[],[],[],[],[],[],[],1,-1,azul,1,['N_B'],[],[],[],[],[],[],[],1145.6575121720002,1145.6575121720002,1145.6575121720002,1145.6575121720002,1147.692522979,1147.692522979,1147.692522979,1147.692522979,1147.692522979,1147.692522979,1147.692522979,1147.692522979,1149.7109268590002,1149.7109268590002,1149.7109268590002,1149.7109268590002,,,,,,,,,,,,,,,,,,,,,,,,,,,,,,,,,,,,,,,,08,002,2022-09-20_17h14.28.144,test2,2022.2.4,60.07171722032411,
0,0,0,0,53,0,53,0,1149.7109268590002,1149.7109268590002,1149.7109268590002,1149.7109268590002,1149.7109268590002,1149.7109268590002,1149.7109268590002,0.017758736000132558,[],[],[],[],[],[],[],1,1,azul,1,['N_B'],[],[],[],[],[],[],[],1151.4294207399998,1151.4294207399998,1151.4294207399998,1151.4294207399998,1153.4653409789998,1153.4653409789998,1153.4653409789998,1153.4653409789998,1153.4653409789998,1153.4653409789998,1153.4653409789998,1153.4653409789998,1155.4835217670002,1155.4835217670002,1155.4835217670002,1155.4835217670002,,,,,,,,,,,,,,,,,,,,,,,,,,,,,,,,,,,,,,,,08,002,2022-09-20_17h14.28.144,test2,2022.2.4,60.07171722032411,
0,0,0,0,54,0,54,0,1155.4835217670002,1155.4835217670002,1155.4835217670002,1155.4835217670002,1155.4835217670002,1155.4835217670002,1155.4835217670002,0.01751344700005575,[],[],[],[],[],[],[],1,-1,azul,1,['N_B'],[],[],[],[],[],[],[],1157.120108173,1157.120108173,1157.120108173,1157.120108173,1159.1549943569999,1159.1549943569999,1159.1549943569999,1159.1549943569999,1159.1549943569999,1159.1549943569999,1159.1549943569999,1159.1549943569999,1161.1731742890001,1161.1731742890001,1161.1731742890001,1161.1731742890001,,,,,,,,,,,,,,,,,,,,,,,,,,,,,,,,,,,,,,,,08,002,2022-09-20_17h14.28.144,test2,2022.2.4,60.07171722032411,
0,0,0,0,55,0,55,0,1161.1731742890001,1161.1731742890001,1161.1731742890001,1161.1731742890001,1161.1731742890001,1161.1731742890001,1161.1731742890001,0.01701090100004876,[],[],[],[],[],[],[],1,1,azul,1,['N_B'],[],[],[],[],[],[],[],1162.692836181,1162.692836181,1162.692836181,1162.692836181,1164.7279794770002,1164.7279794770002,1164.7279794770002,1164.7279794770002,1164.7279794770002,1164.7279794770002,1164.7279794770002,1164.7279794770002,1166.7464484460002,1166.7464484460002,1166.7464484460002,1166.7464484460002,,,,,,,,,,,,,,,,,,,,,,,,,,,,,,,,,,,,,,,,08,002,2022-09-20_17h14.28.144,test2,2022.2.4,60.07171722032411,
0,0,0,0,56,0,56,0,1166.7464484460002,1166.7464484460002,1166.7464484460002,1166.7464484460002,1166.7464484460002,1166.7464484460002,1166.7464484460002,0.017713838999952713,[],[],[],[],[],[],[],1,1,azul,1,['N_B'],[],[],[],[],[],[],[],1168.1826724779999,1168.1826724779999,1168.1826724779999,1168.1826724779999,1170.2171824480001,1170.2171824480001,1170.2171824480001,1170.2171824480001,1170.2171824480001,1170.2171824480001,1170.2171824480001,1170.2171824480001,1172.235644711,1172.235644711,1172.235644711,1172.235644711,,,,,,,,,,,,,,,,,,,,,,,,,,,,,,,,,,,,,,,,08,002,2022-09-20_17h14.28.144,test2,2022.2.4,60.07171722032411,
0,0,0,0,57,0,57,0,1172.235644711,1172.235644711,1172.235644711,1172.235644711,1172.235644711,1172.235644711,1172.235644711,0.01742924999985007,[],[],[],[],[],[],[],1,-1,azul,1,['N_B'],[],[],[],[],[],[],[],1173.7547404910001,1173.7547404910001,1173.7547404910001,1173.7547404910001,1175.7904357410002,1175.7904357410002,1175.7904357410002,1175.7904357410002,1175.7904357410002,1175.7904357410002,1175.7904357410002,1175.7904357410002,1177.808611248,1177.808611248,1177.808611248,1177.808611248,,,,,,,,,,,,,,,,,,,,,,,,,,,,,,,,,,,,,,,,08,002,2022-09-20_17h14.28.144,test2,2022.2.4,60.07171722032411,
0,0,0,0,58,0,58,0,1177.808611248,1177.808611248,1177.808611248,1177.808611248,1177.808611248,1177.808611248,1177.808611248,0.01779978200011101,[],[],[],[],[],[],[],1,-1,azul,1,['N_B'],[],[],[],[],[],[],[],1180.129043389,1180.129043389,1180.129043389,1180.129043389,1182.1815937320002,1182.1815937320002,1182.1815937320002,1182.1815937320002,1182.1815937320002,1182.1815937320002,1182.1815937320002,1182.1815937320002,1184.215840466,1184.215840466,1184.215840466,1184.215840466,,,,,,,,,,,,,,,,,,,,,,,,,,,,,,,,,,,,,,,,08,002,2022-09-20_17h14.28.144,test2,2022.2.4,60.07171722032411,
0,0,0,0,59,0,59,0,1184.215840466,1184.215840466,1184.215840466,1184.215840466,1184.215840466,1184.215840466,1184.215840466,0.017483517999835385,[],[],[],[],[],[],[],-1,-1,rojo,0,['N_A'],[],[],[],[],[],[],[],1185.667991331,1185.667991331,1185.667991331,1185.667991331,1187.7208930299998,1187.7208930299998,1187.7208930299998,1187.7208930299998,1187.7208930299998,1187.7208930299998,1187.7208930299998,1187.7208930299998,1189.7387351399998,1189.7387351399998,1189.7387351399998,1189.7387351399998,,,,,,,,,,,,,,,,,,,,,,,,,,,,,,,,,,,,,,,,08,002,2022-09-20_17h14.28.144,test2,2022.2.4,60.07171722032411,
0,0,0,0,60,0,60,0,1189.7387351399998,1189.7387351399998,1189.7387351399998,1189.7387351399998,1189.7387351399998,1189.7387351399998,1189.7387351399998,0.017741078999961246,[],[],[],[],[],[],[],1,-1,rojo,1,['N_A'],[],[],[],[],[],[],[],1191.241318931,1191.241318931,1191.241318931,1191.241318931,1193.2760275229998,1193.2760275229998,1193.2760275229998,1193.2760275229998,1193.2760275229998,1193.2760275229998,1193.2760275229998,1193.2760275229998,1195.2940666969998,1195.2940666969998,1195.2940666969998,1195.2940666969998,,,,,,,,,,,,,,,,,,,,,,,,,,,,,,,,,,,,,,,,08,002,2022-09-20_17h14.28.144,test2,2022.2.4,60.07171722032411,
0,0,0,0,61,0,61,0,1195.2940666969998,1195.2940666969998,1195.2940666969998,1195.2940666969998,1195.2940666969998,1195.2940666969998,1195.2940666969998,0.018286226000100214,[],[],[],[],[],[],[],1,-1,rojo,0,['N_B'],[],[],[],[],[],[],[],1196.9640765600002,1196.9640765600002,1196.9640765600002,1196.9640765600002,1198.9987500920001,1198.9987500920001,1198.9987500920001,1198.9987500920001,1198.9987500920001,1198.9987500920001,1198.9987500920001,1198.9987500920001,1201.017414674,1201.017414674,1201.017414674,1201.017414674,,,,,,,,,,,,,,,,,,,,,,,,,,,,,,,,,,,,,,,,08,002,2022-09-20_17h14.28.144,test2,2022.2.4,60.07171722032411,
0,0,0,0,62,0,62,0,1201.017414674,1201.017414674,1201.017414674,1201.017414674,1201.017414674,1201.017414674,1201.017414674,0.01711025100007646,[],[],[],[],[],[],[],-1,-1,rojo,1,['N_B'],[],[],[],[],[],[],[],1202.4701377309998,1202.4701377309998,1202.4701377309998,1202.4701377309998,1204.522687963,1204.522687963,1204.522687963,1204.522687963,1204.522687963,1204.522687963,1204.522687963,1204.522687963,1206.539985807,1206.539985807,1206.539985807,1206.539985807,,,,,,,,,,,,,,,,,,,,,,,,,,,,,,,,,,,,,,,,08,002,2022-09-20_17h14.28.144,test2,2022.2.4,60.07171722032411,
0,0,0,0,63,0,63,0,1206.539985807,1206.539985807,1206.539985807,1206.539985807,1206.539985807,1206.539985807,1206.539985807,0.017206406000013885,[],[],[],[],[],[],[],1,-1,azul,1,['N_B'],[],[],[],[],[],[],[],1207.960622255,1207.960622255,1207.960622255,1207.960622255,1209.994009779,1209.994009779,1209.994009779,1209.994009779,1209.994009779,1209.994009779,1209.994009779,1209.994009779,1212.012326945,1212.012326945,1212.012326945,1212.012326945,,,,,,,,,,,,,,,,,,,,,,,,,,,,,,,,,,,,,,,,08,002,2022-09-20_17h14.28.144,test2,2022.2.4,60.07171722032411,
0,0,0,0,64,0,64,0,1212.012326945,1212.012326945,1212.012326945,1212.012326945,1212.012326945,1212.012326945,1212.012326945,0.017030167000029905,[],[],[],[],[],[],[],1,1,azul,1,['N_B'],[],[],[],[],[],[],[],1213.4152534099999,1213.4152534099999,1213.4152534099999,1213.4152534099999,1215.4492308590002,1215.4492308590002,1215.4492308590002,1215.4492308590002,1215.4492308590002,1215.4492308590002,1215.4492308590002,1215.4492308590002,1217.4865128669999,1217.4865128669999,1217.4865128669999,1217.4865128669999,,,,,,,,,,,,,,,,,,,,,,,,,,,,,,,,,,,,,,,,08,002,2022-09-20_17h14.28.144,test2,2022.2.4,60.07171722032411,
0,0,0,0,65,0,65,0,1217.4865128669999,1217.4865128669999,1217.4865128669999,1217.4865128669999,1217.4865128669999,1217.4865128669999,1217.4865128669999,0.01730914099994152,[],[],[],[],[],[],[],-1,-1,rojo,0,['N_A'],[],[],[],[],[],[],[],1218.972037168,1218.972037168,1218.972037168,1218.972037168,1221.024184715,1221.024184715,1221.024184715,1221.024184715,1221.024184715,1221.024184715,1221.024184715,1221.024184715,1223.0601437609998,1223.0601437609998,1223.0601437609998,1223.0601437609998,,,,,,,,,,,,,,,,,,,,,,,,,,,,,,,,,,,,,,,,08,002,2022-09-20_17h14.28.144,test2,2022.2.4,60.07171722032411,
0,0,0,0,66,0,66,0,1223.0601437609998,1223.0601437609998,1223.0601437609998,1223.0601437609998,1223.0601437609998,1223.0601437609998,1223.0601437609998,0.017593923000049472,[],[],[],[],[],[],[],1,-1,rojo,1,['N_A'],[],[],[],[],[],[],[],1224.4624754010001,1224.4624754010001,1224.4624754010001,1224.4624754010001,1226.513503142,1226.513503142,1226.513503142,1226.513503142,1226.513503142,1226.513503142,1226.513503142,1226.513503142,1228.5318126390002,1228.5318126390002,1228.5318126390002,1228.5318126390002,,,,,,,,,,,,,,,,,,,,,,,,,,,,,,,,,,,,,,,,08,002,2022-09-20_17h14.28.144,test2,2022.2.4,60.07171722032411,
0,0,0,0,67,0,67,0,1228.5318126390002,1228.5318126390002,1228.5318126390002,1228.5318126390002,1228.5318126390002,1228.5318126390002,1228.5318126390002,0.017624154000031922,[],[],[],[],[],[],[],-1,-1,azul,1,['N_A'],[],[],[],[],[],[],[],1230.150122598,1230.150122598,1230.150122598,1230.150122598,1232.2026497339998,1232.2026497339998,1232.2026497339998,1232.2026497339998,1232.2026497339998,1232.2026497339998,1232.2026497339998,1232.2026497339998,1234.221164087,1234.221164087,1234.221164087,1234.221164087,,,,,,,,,,,,,,,,,,,,,,,,,,,,,,,,,,,,,,,,08,002,2022-09-20_17h14.28.144,test2,2022.2.4,60.07171722032411,
0,0,0,0,68,0,68,0,1234.221164087,1234.221164087,1234.221164087,1234.221164087,1234.221164087,1234.221164087,1234.221164087,0.01703186999998252,[],[],[],[],[],[],[],1,-1,rojo,1,['N_A'],[],[],[],[],[],[],[],1236.274375934,1236.274375934,1236.274375934,1236.274375934,1238.32601226,1238.32601226,1238.32601226,1238.32601226,1238.32601226,1238.32601226,1238.32601226,1238.32601226,1240.344093309,1240.344093309,1240.344093309,1240.344093309,,,,,,,,,,,,,,,,,,,,,,,,,,,,,,,,,,,,,,,,08,002,2022-09-20_17h14.28.144,test2,2022.2.4,60.07171722032411,
0,0,0,0,69,0,69,0,1240.344093309,1240.344093309,1240.344093309,1240.344093309,1240.344093309,1240.344093309,1240.344093309,0.01715728800013494,[],[],[],[],[],[],[],1,-1,rojo,0,['N_B'],[],[],[],[],[],[],[],1242.0146473250002,1242.0146473250002,1242.0146473250002,1242.0146473250002,1244.0485022930002,1244.0485022930002,1244.0485022930002,1244.0485022930002,1244.0485022930002,1244.0485022930002,1244.0485022930002,1244.0485022930002,1246.0670983539999,1246.0670983539999,1246.0670983539999,1246.0670983539999,,,,,,,,,,,,,,,,,,,,,,,,,,,,,,,,,,,,,,,,08,002,2022-09-20_17h14.28.144,test2,2022.2.4,60.07171722032411,
0,0,0,0,70,0,70,0,1246.0670983539999,1246.0670983539999,1246.0670983539999,1246.0670983539999,1246.0670983539999,1246.0670983539999,1246.0670983539999,0.017392729999983203,[],[],[],[],[],[],[],1,-1,azul,1,['N_B'],[],[],[],[],[],[],[],1247.6361777799998,1247.6361777799998,1247.6361777799998,1247.6361777799998,1249.689264664,1249.689264664,1249.689264664,1249.689264664,1249.689264664,1249.689264664,1249.689264664,1249.689264664,1251.7071646580002,1251.7071646580002,1251.7071646580002,1251.7071646580002,,,,,,,,,,,,,,,,,,,,,,,,,,,,,,,,,,,,,,,,08,002,2022-09-20_17h14.28.144,test2,2022.2.4,60.07171722032411,
0,0,0,0,71,0,71,0,1251.7071646580002,1251.7071646580002,1251.7071646580002,1251.7071646580002,1251.7071646580002,1251.7071646580002,1251.7071646580002,0.01747049299979153,[],[],[],[],[],[],[],1,-1,azul,1,['N_B'],[],[],[],[],[],[],[],1253.075537025,1253.075537025,1253.075537025,1253.075537025,1255.128602233,1255.128602233,1255.128602233,1255.128602233,1255.128602233,1255.128602233,1255.128602233,1255.128602233,1257.1459811969999,1257.1459811969999,1257.1459811969999,1257.1459811969999,,,,,,,,,,,,,,,,,,,,,,,,,,,,,,,,,,,,,,,,08,002,2022-09-20_17h14.28.144,test2,2022.2.4,60.07171722032411,
0,0,0,0,72,0,72,0,1257.1459811969999,1257.1459811969999,1257.1459811969999,1257.1459811969999,1257.1459811969999,1257.1459811969999,1257.1459811969999,0.01768120000019735,[],[],[],[],[],[],[],1,-1,azul,0,['N_A'],[],[],[],[],[],[],[],1258.398893132,1258.398893132,1258.398893132,1258.398893132,1260.433624322,1260.433624322,1260.433624322,1260.433624322,1260.433624322,1260.433624322,1260.433624322,1260.433624322,1262.451970435,1262.451970435,1262.451970435,1262.451970435,,,,,,,,,,,,,,,,,,,,,,,,,,,,,,,,,,,,,,,,08,002,2022-09-20_17h14.28.144,test2,2022.2.4,60.07171722032411,
0,0,0,0,73,0,73,0,1262.451970435,1262.451970435,1262.451970435,1262.451970435,1262.451970435,1262.451970435,1262.451970435,0.017543392000106905,[],[],[],[],[],[],[],-1,1,azul,1,['N_A'],[],[],[],[],[],[],[],1263.988197108,1263.988197108,1263.988197108,1263.988197108,1266.0236308489998,1266.0236308489998,1266.0236308489998,1266.0236308489998,1266.0236308489998,1266.0236308489998,1266.0236308489998,1266.0236308489998,1268.041664382,1268.041664382,1268.041664382,1268.041664382,,,,,,,,,,,,,,,,,,,,,,,,,,,,,,,,,,,,,,,,08,002,2022-09-20_17h14.28.144,test2,2022.2.4,60.07171722032411,
0,0,0,0,74,0,74,0,1268.041664382,1268.041664382,1268.041664382,1268.041664382,1268.041664382,1268.041664382,1268.041664382,0.01754488400001719,[],[],[],[],[],[],[],1,-1,rojo,1,['N_A'],[],[],[],[],[],[],[],1269.476814144,1269.476814144,1269.476814144,1269.476814144,1271.5123574959998,1271.5123574959998,1271.5123574959998,1271.5123574959998,1271.5123574959998,1271.5123574959998,1271.5123574959998,1271.5123574959998,1273.5306287560002,1273.5306287560002,1273.5306287560002,1273.5306287560002,,,,,,,,,,,,,,,,,,,,,,,,,,,,,,,,,,,,,,,,08,002,2022-09-20_17h14.28.144,test2,2022.2.4,60.07171722032411,
0,0,0,0,75,0,75,0,1273.5306287560002,1273.5306287560002,1273.5306287560002,1273.5306287560002,1273.5306287560002,1273.5306287560002,1273.5306287560002,0.017242886999838447,[],[],[],[],[],[],[],1,-1,rojo,1,['N_A'],[],[],[],[],[],[],[],1275.266277839,1275.266277839,1275.266277839,1275.266277839,1277.320411099,1277.320411099,1277.320411099,1277.320411099,1277.320411099,1277.320411099,1277.320411099,1277.320411099,1279.354240787,1279.354240787,1279.354240787,1279.354240787,,,,,,,,,,,,,,,,,,,,,,,,,,,,,,,,,,,,,,,,08,002,2022-09-20_17h14.28.144,test2,2022.2.4,60.07171722032411,
0,0,0,0,76,0,76,0,1279.354240787,1279.354240787,1279.354240787,1279.354240787,1279.354240787,1279.354240787,1279.354240787,0.018150204999983544,[],[],[],[],[],[],[],1,-1,rojo,1,['N_A'],[],[],[],[],[],[],[],1280.789066546,1280.789066546,1280.789066546,1280.789066546,1282.82477005,1282.82477005,1282.82477005,1282.82477005,1282.82477005,1282.82477005,1282.82477005,1282.82477005,1284.861390697,1284.861390697,1284.861390697,1284.861390697,,,,,,,,,,,,,,,,,,,,,,,,,,,,,,,,,,,,,,,,08,002,2022-09-20_17h14.28.144,test2,2022.2.4,60.07171722032411,
0,0,0,0,77,0,77,0,1284.861390697,1284.861390697,1284.861390697,1284.861390697,1284.861390697,1284.861390697,1284.861390697,0.017659292999951504,[],[],[],[],[],[],[],-1,-1,azul,1,['N_A'],[],[],[],[],[],[],[],1286.8970696770002,1286.8970696770002,1286.8970696770002,1286.8970696770002,1288.931064116,1288.931064116,1288.931064116,1288.931064116,1288.931064116,1288.931064116,1288.931064116,1288.931064116,1290.9498612359998,1290.9498612359998,1290.9498612359998,1290.9498612359998,,,,,,,,,,,,,,,,,,,,,,,,,,,,,,,,,,,,,,,,08,002,2022-09-20_17h14.28.144,test2,2022.2.4,60.07171722032411,
0,0,0,0,78,0,78,0,1290.9498612359998,1290.9498612359998,1290.9498612359998,1290.9498612359998,1290.9498612359998,1290.9498612359998,1290.9498612359998,0.017061625999986063,[],[],[],[],[],[],[],1,-1,rojo,0,['N_B'],[],[],[],[],[],[],[],1292.754032117,1292.754032117,1292.754032117,1292.754032117,1294.805701227,1294.805701227,1294.805701227,1294.805701227,1294.805701227,1294.805701227,1294.805701227,1294.805701227,1296.8225222810001,1296.8225222810001,1296.8225222810001,1296.8225222810001,,,,,,,,,,,,,,,,,,,,,,,,,,,,,,,,,,,,,,,,08,002,2022-09-20_17h14.28.144,test2,2022.2.4,60.07171722032411,
0,0,0,0,79,0,79,0,1296.8225222810001,1296.8225222810001,1296.8225222810001,1296.8225222810001,1296.8225222810001,1296.8225222810001,1296.8225222810001,0.017214274000025398,[],[],[],[],[],[],[],1,-1,azul,1,['N_B'],[],[],[],[],[],[],[],1298.442027918,1298.442027918,1298.442027918,1298.442027918,1300.4950183720002,1300.4950183720002,1300.4950183720002,1300.4950183720002,1300.4950183720002,1300.4950183720002,1300.4950183720002,1300.4950183720002,1302.512752485,1302.512752485,1302.512752485,1302.512752485,,,,,,,,,,,,,,,,,,,,,,,,,,,,,,,,,,,,,,,,08,002,2022-09-20_17h14.28.144,test2,2022.2.4,60.07171722032411,
0,0,0,0,80,0,80,0,1302.512752485,1302.512752485,1302.512752485,1302.512752485,1302.512752485,1302.512752485,1302.512752485,0.01726136799993583,[],[],[],[],[],[],[],1,-1,azul,1,['N_B'],[],[],[],[],[],[],[],1304.04873907,1304.04873907,1304.04873907,1304.04873907,1306.100412836,1306.100412836,1306.100412836,1306.100412836,1306.100412836,1306.100412836,1306.100412836,1306.100412836,1308.1362955559998,1308.1362955559998,1308.1362955559998,1308.1362955559998,,,,,,,,,,,,,,,,,,,,,,,,,,,,,,,,,,,,,,,,08,002,2022-09-20_17h14.28.144,test2,2022.2.4,60.07171722032411,
0,0,0,0,81,0,81,0,1308.1362955559998,1308.1362955559998,1308.1362955559998,1308.1362955559998,1308.1362955559998,1308.1362955559998,1308.1362955559998,0.01773343200011368,[],[],[],[],[],[],[],1,-1,azul,1,['N_B'],[],[],[],[],[],[],[],1310.2220478469999,1310.2220478469999,1310.2220478469999,1310.2220478469999,1312.275557732,1312.275557732,1312.275557732,1312.275557732,1312.275557732,1312.275557732,1312.275557732,1312.275557732,1314.310207912,1314.310207912,1314.310207912,1314.310207912,,,,,,,,,,,,,,,,,,,,,,,,,,,,,,,,,,,,,,,,08,002,2022-09-20_17h14.28.144,test2,2022.2.4,60.07171722032411,
0,0,0,0,82,0,82,0,1314.310207912,1314.310207912,1314.310207912,1314.310207912,1314.310207912,1314.310207912,1314.310207912,0.0178052100000059,[],[],[],[],[],[],[],1,-1,azul,0,['N_A'],[],[],[],[],[],[],[],1316.346373066,1316.346373066,1316.346373066,1316.346373066,1318.3986835730002,1318.3986835730002,1318.3986835730002,1318.3986835730002,1318.3986835730002,1318.3986835730002,1318.3986835730002,1318.3986835730002,1320.415181451,1320.415181451,1320.415181451,1320.415181451,,,,,,,,,,,,,,,,,,,,,,,,,,,,,,,,,,,,,,,,08,002,2022-09-20_17h14.28.144,test2,2022.2.4,60.07171722032411,
0,0,0,0,83,0,83,0,1320.415181451,1320.415181451,1320.415181451,1320.415181451,1320.415181451,1320.415181451,1320.415181451,0.017207654999992883,[],[],[],[],[],[],[],-1,-1,azul,1,['N_A'],[],[],[],[],[],[],[],1322.2854469499998,1322.2854469499998,1322.2854469499998,1322.2854469499998,1324.320162645,1324.320162645,1324.320162645,1324.320162645,1324.320162645,1324.320162645,1324.320162645,1324.320162645,1326.3393189859999,1326.3393189859999,1326.3393189859999,1326.3393189859999,,,,,,,,,,,,,,,,,,,,,,,,,,,,,,,,,,,,,,,,08,002,2022-09-20_17h14.28.144,test2,2022.2.4,60.07171722032411,
0,0,0,0,84,0,84,0,1326.3393189859999,1326.3393189859999,1326.3393189859999,1326.3393189859999,1326.3393189859999,1326.3393189859999,1326.3393189859999,0.01728780700000243,[],[],[],[],[],[],[],-1,1,azul,1,['N_A'],[],[],[],[],[],[],[],1328.2241978450002,1328.2241978450002,1328.2241978450002,1328.2241978450002,1330.259343408,1330.259343408,1330.259343408,1330.259343408,1330.259343408,1330.259343408,1330.259343408,1330.259343408,1332.297022231,1332.297022231,1332.297022231,1332.297022231,,,,,,,,,,,,,,,,,,,,,,,,,,,,,,,,,,,,,,,,08,002,2022-09-20_17h14.28.144,test2,2022.2.4,60.07171722032411,
0,0,0,0,85,0,85,0,1332.297022231,1332.297022231,1332.297022231,1332.297022231,1332.297022231,1332.297022231,1332.297022231,0.01793932600003245,[],[],[],[],[],[],[],1,-1,rojo,1,['N_A'],[],[],[],[],[],[],[],1333.6981315960002,1333.6981315960002,1333.6981315960002,1333.6981315960002,1335.7504507869999,1335.7504507869999,1335.7504507869999,1335.7504507869999,1335.7504507869999,1335.7504507869999,1335.7504507869999,1335.7504507869999,1337.768434146,1337.768434146,1337.768434146,1337.768434146,,,,,,,,,,,,,,,,,,,,,,,,,,,,,,,,,,,,,,,,08,002,2022-09-20_17h14.28.144,test2,2022.2.4,60.07171722032411,
0,0,0,0,86,0,86,0,1337.768434146,1337.768434146,1337.768434146,1337.768434146,1337.768434146,1337.768434146,1337.768434146,0.017086702000142395,[],[],[],[],[],[],[],1,-1,rojo,1,['N_A'],[],[],[],[],[],[],[],1339.3200256599998,1339.3200256599998,1339.3200256599998,1339.3200256599998,1341.3747772699999,1341.3747772699999,1341.3747772699999,1341.3747772699999,1341.3747772699999,1341.3747772699999,1341.3747772699999,1341.3747772699999,1343.4088331130001,1343.4088331130001,1343.4088331130001,1343.4088331130001,,,,,,,,,,,,,,,,,,,,,,,,,,,,,,,,,,,,,,,,08,002,2022-09-20_17h14.28.144,test2,2022.2.4,60.07171722032411,
0,0,0,0,87,0,87,0,1343.4088331130001,1343.4088331130001,1343.4088331130001,1343.4088331130001,1343.4088331130001,1343.4088331130001,1343.4088331130001,0.017514162999987093,[],[],[],[],[],[],[],1,-1,rojo,1,['N_A'],[],[],[],[],[],[],[],1345.0432399370002,1345.0432399370002,1345.0432399370002,1345.0432399370002,1347.0955672139999,1347.0955672139999,1347.0955672139999,1347.0955672139999,1347.0955672139999,1347.0955672139999,1347.0955672139999,1347.0955672139999,1349.1143654460002,1349.1143654460002,1349.1143654460002,1349.1143654460002,,,,,,,,,,,,,,,,,,,,,,,,,,,,,,,,,,,,,,,,08,002,2022-09-20_17h14.28.144,test2,2022.2.4,60.07171722032411,
0,0,0,0,88,0,88,0,1349.1143654460002,1349.1143654460002,1349.1143654460002,1349.1143654460002,1349.1143654460002,1349.1143654460002,1349.1143654460002,0.017578671999899598,[],[],[],[],[],[],[],1,-1,rojo,0,['N_B'],[],[],[],[],[],[],[],1351.1838322570002,1351.1838322570002,1351.1838322570002,1351.1838322570002,1353.237634612,1353.237634612,1353.237634612,1353.237634612,1353.237634612,1353.237634612,1353.237634612,1353.237634612,1355.2542406779999,1355.2542406779999,1355.2542406779999,1355.2542406779999,,,,,,,,,,,,,,,,,,,,,,,,,,,,,,,,,,,,,,,,08,002,2022-09-20_17h14.28.144,test2,2022.2.4,60.07171722032411,
0,0,0,0,89,0,89,0,1355.2542406779999,1355.2542406779999,1355.2542406779999,1355.2542406779999,1355.2542406779999,1355.2542406779999,1355.2542406779999,0.01704119700002593,[],[],[],[],[],[],[],-1,-1,rojo,1,['N_B'],[],[],[],[],[],[],[],1357.5075444539998,1357.5075444539998,1357.5075444539998,1357.5075444539998,1359.559981026,1359.559981026,1359.559981026,1359.559981026,1359.559981026,1359.559981026,1359.559981026,1359.559981026,1361.596284278,1361.596284278,1361.596284278,1361.596284278,,,,,,,,,,,,,,,,,,,,,,,,,,,,,,,,,,,,,,,,08,002,2022-09-20_17h14.28.144,test2,2022.2.4,60.07171722032411,
0,0,0,0,90,0,90,0,1361.596284278,1361.596284278,1361.596284278,1361.596284278,1361.596284278,1361.596284278,1361.596284278,0.017608985999913784,[],[],[],[],[],[],[],1,-1,azul,1,['N_B'],[],[],[],[],[],[],[],1363.0468602300002,1363.0468602300002,1363.0468602300002,1363.0468602300002,1365.0832274559998,1365.0832274559998,1365.0832274559998,1365.0832274559998,1365.0832274559998,1365.0832274559998,1365.0832274559998,1365.0832274559998,1367.1176710979998,1367.1176710979998,1367.1176710979998,1367.1176710979998,,,,,,,,,,,,,,,,,,,,,,,,,,,,,,,,,,,,,,,,08,002,2022-09-20_17h14.28.144,test2,2022.2.4,60.07171722032411,
0,0,0,0,91,0,91,0,1367.1176710979998,1367.1176710979998,1367.1176710979998,1367.1176710979998,1367.1176710979998,1367.1176710979998,1367.1176710979998,0.01719905999993898,[],[],[],[],[],[],[],1,1,azul,1,['N_B'],[],[],[],[],[],[],[],1368.803723161,1368.803723161,1368.803723161,1368.803723161,1370.8375511079998,1370.8375511079998,1370.8375511079998,1370.8375511079998,1370.8375511079998,1370.8375511079998,1370.8375511079998,1370.8375511079998,1372.856871651,1372.856871651,1372.856871651,1372.856871651,,,,,,,,,,,,,,,,,,,,,,,,,,,,,,,,,,,,,,,,08,002,2022-09-20_17h14.28.144,test2,2022.2.4,60.07171722032411,
0,0,0,0,92,0,92,0,1372.856871651,1372.856871651,1372.856871651,1372.856871651,1372.856871651,1372.856871651,1372.856871651,0.017143223999937618,[],[],[],[],[],[],[],-1,-1,rojo,1,['N_B'],[],[],[],[],[],[],[],1374.3096640439999,1374.3096640439999,1374.3096640439999,1374.3096640439999,1376.345649757,1376.345649757,1376.345649757,1376.345649757,1376.345649757,1376.345649757,1376.345649757,1376.345649757,1378.363397174,1378.363397174,1378.363397174,1378.363397174,,,,,,,,,,,,,,,,,,,,,,,,,,,,,,,,,,,,,,,,08,002,2022-09-20_17h14.28.144,test2,2022.2.4,60.07171722032411,
0,0,0,0,93,0,93,0,1378.363397174,1378.363397174,1378.363397174,1378.363397174,1378.363397174,1378.363397174,1378.363397174,0.016906038000115586,[],[],[],[],[],[],[],1,1,azul,1,['N_B'],[],[],[],[],[],[],[],1379.981798503,1379.981798503,1379.981798503,1379.981798503,1382.0174120279999,1382.0174120279999,1382.0174120279999,1382.0174120279999,1382.0174120279999,1382.0174120279999,1382.0174120279999,1382.0174120279999,1384.0364363540002,1384.0364363540002,1384.0364363540002,1384.0364363540002,,,,,,,,,,,,,,,,,,,,,,,,,,,,,,,,,,,,,,,,08,002,2022-09-20_17h14.28.144,test2,2022.2.4,60.07171722032411,
0,0,0,0,94,0,94,0,1384.0364363540002,1384.0364363540002,1384.0364363540002,1384.0364363540002,1384.0364363540002,1384.0364363540002,1384.0364363540002,0.01737700900002892,[],[],[],[],[],[],[],1,1,azul,1,['N_B'],[],[],[],[],[],[],[],1385.4888145660002,1385.4888145660002,1385.4888145660002,1385.4888145660002,1387.5227367329999,1387.5227367329999,1387.5227367329999,1387.5227367329999,1387.5227367329999,1387.5227367329999,1387.5227367329999,1387.5227367329999,1389.5419675029998,1389.5419675029998,1389.5419675029998,1389.5419675029998,,,,,,,,,,,,,,,,,,,,,,,,,,,,,,,,,,,,,,,,08,002,2022-09-20_17h14.28.144,test2,2022.2.4,60.07171722032411,
0,0,0,0,95,0,95,0,1389.5419675029998,1389.5419675029998,1389.5419675029998,1389.5419675029998,1389.5419675029998,1389.5419675029998,1389.5419675029998,0.016916831999878923,[],[],[],[],[],[],[],1,-1,azul,1,['N_B'],[],[],[],[],[],[],[],1392.062307355,1392.062307355,1392.062307355,1392.062307355,1394.097344288,1394.097344288,1394.097344288,1394.097344288,1394.097344288,1394.097344288,1394.097344288,1394.097344288,1396.13385385,1396.13385385,1396.13385385,1396.13385385,,,,,,,,,,,,,,,,,,,,,,,,,,,,,,,,,,,,,,,,08,002,2022-09-20_17h14.28.144,test2,2022.2.4,60.07171722032411,
0,0,0,0,96,0,96,0,1396.13385385,1396.13385385,1396.13385385,1396.13385385,1396.13385385,1396.13385385,1396.13385385,0.017156105000140087,[],[],[],[],[],[],[],1,1,azul,1,['N_B'],[],[],[],[],[],[],[],1397.568023663,1397.568023663,1397.568023663,1397.568023663,1399.604430729,1399.604430729,1399.604430729,1399.604430729,1399.604430729,1399.604430729,1399.604430729,1399.604430729,1401.6221542050002,1401.6221542050002,1401.6221542050002,1401.6221542050002,,,,,,,,,,,,,,,,,,,,,,,,,,,,,,,,,,,,,,,,08,002,2022-09-20_17h14.28.144,test2,2022.2.4,60.07171722032411,
0,0,0,0,97,0,97,0,1401.6221542050002,1401.6221542050002,1401.6221542050002,1401.6221542050002,1401.6221542050002,1401.6221542050002,1401.6221542050002,0.016509907999989082,[],[],[],[],[],[],[],1,1,azul,1,['N_B'],[],[],[],[],[],[],[],1403.0084358539998,1403.0084358539998,1403.0084358539998,1403.0084358539998,1405.04309372,1405.04309372,1405.04309372,1405.04309372,1405.04309372,1405.04309372,1405.04309372,1405.04309372,1407.0615404700002,1407.0615404700002,1407.0615404700002,1407.0615404700002,,,,,,,,,,,,,,,,,,,,,,,,,,,,,,,,,,,,,,,,08,002,2022-09-20_17h14.28.144,test2,2022.2.4,60.07171722032411,
0,0,0,0,98,0,98,0,1407.0615404700002,1407.0615404700002,1407.0615404700002,1407.0615404700002,1407.0615404700002,1407.0615404700002,1407.0615404700002,0.01694611499988241,[],[],[],[],[],[],[],1,1,azul,1,['N_B'],[],[],[],[],[],[],[],1408.4462129570002,1408.4462129570002,1408.4462129570002,1408.4462129570002,1410.482152387,1410.482152387,1410.482152387,1410.482152387,1410.482152387,1410.482152387,1410.482152387,1410.482152387,1412.501066368,1412.501066368,1412.501066368,1412.501066368,,,,,,,,,,,,,,,,,,,,,,,,,,,,,,,,,,,,,,,,08,002,2022-09-20_17h14.28.144,test2,2022.2.4,60.07171722032411,
0,0,0,0,99,0,99,0,1412.501066368,1412.501066368,1412.501066368,1412.501066368,1412.501066368,1412.501066368,1412.501066368,0.016991881999956604,[],[],[],[],[],[],[],1,1,azul,1,['N_B'],[],[],[],[],[],[],[],1413.9038701539998,1413.9038701539998,1413.9038701539998,1413.9038701539998,1415.9375379849998,1415.9375379849998,1415.9375379849998,1415.9375379849998,1415.9375379849998,1415.9375379849998,1415.9375379849998,1415.9375379849998,1417.9571137399998,1417.9571137399998,1417.9571137399998,1417.9571137399998,,,,,,,,,,,,,,,,,,,,,,,,,,,,,,,,,,,,,,,,08,002,2022-09-20_17h14.28.144,test2,2022.2.4,60.07171722032411,
0,0,0,0,100,0,100,0,1417.9571137399998,1417.9571137399998,1417.9571137399998,1417.9571137399998,1417.9571137399998,1417.9571137399998,1417.9571137399998,0.017005749999952968,[],[],[],[],[],[],[],1,-1,azul,1,['N_B'],[],[],[],[],[],[],[],1419.2759134809999,1419.2759134809999,1419.2759134809999,1419.2759134809999,1421.3281561140002,1421.3281561140002,1421.3281561140002,1421.3281561140002,1421.3281561140002,1421.3281561140002,1421.3281561140002,1421.3281561140002,1423.345651442,1423.345651442,1423.345651442,1423.345651442,,,,,,,,,,,,,,,,,,,,,,,,,,,,,,,,,,,,,,,,08,002,2022-09-20_17h14.28.144,test2,2022.2.4,60.07171722032411,
0,0,0,0,101,0,101,0,1423.345651442,1423.345651442,1423.345651442,1423.345651442,1423.345651442,1423.345651442,1423.345651442,0.01675921199989716,[],[],[],[],[],[],[],1,-1,azul,1,['N_B'],[],[],[],[],[],[],[],1424.698472768,1424.698472768,1424.698472768,1424.698472768,1426.7509558450001,1426.7509558450001,1426.7509558450001,1426.7509558450001,1426.7509558450001,1426.7509558450001,1426.7509558450001,1426.7509558450001,1428.768857468,1428.768857468,1428.768857468,1428.768857468,,,,,,,,,,,,,,,,,,,,,,,,,,,,,,,,,,,,,,,,08,002,2022-09-20_17h14.28.144,test2,2022.2.4,60.07171722032411,
0,0,0,0,102,0,102,0,1428.768857468,1428.768857468,1428.768857468,1428.768857468,1428.768857468,1428.768857468,1428.768857468,0.016678672999887567,[],[],[],[],[],[],[],1,-1,azul,1,['N_B'],[],[],[],[],[],[],[],1430.3049373220001,1430.3049373220001,1430.3049373220001,1430.3049373220001,1432.3389162899998,1432.3389162899998,1432.3389162899998,1432.3389162899998,1432.3389162899998,1432.3389162899998,1432.3389162899998,1432.3389162899998,1434.3586759979999,1434.3586759979999,1434.3586759979999,1434.3586759979999,,,,,,,,,,,,,,,,,,,,,,,,,,,,,,,,,,,,,,,,08,002,2022-09-20_17h14.28.144,test2,2022.2.4,60.07171722032411,
0,0,0,0,103,0,103,0,1434.3586759979999,1434.3586759979999,1434.3586759979999,1434.3586759979999,1434.3586759979999,1434.3586759979999,1434.3586759979999,0.016987706000008984,[],[],[],[],[],[],[],1,1,azul,1,['N_B'],[],[],[],[],[],[],[],1435.810244026,1435.810244026,1435.810244026,1435.810244026,1437.8455027589998,1437.8455027589998,1437.8455027589998,1437.8455027589998,1437.8455027589998,1437.8455027589998,1437.8455027589998,1437.8455027589998,1439.864122479,1439.864122479,1439.864122479,1439.864122479,,,,,,,,,,,,,,,,,,,,,,,,,,,,,,,,,,,,,,,,08,002,2022-09-20_17h14.28.144,test2,2022.2.4,60.07171722032411,
0,0,0,0,104,0,104,0,1439.864122479,1439.864122479,1439.864122479,1439.864122479,1439.864122479,1439.864122479,1439.864122479,0.016938191000008374,[],[],[],[],[],[],[],1,-1,azul,0,['N_A'],[],[],[],[],[],[],[],1441.583787009,1441.583787009,1441.583787009,1441.583787009,1443.636255982,1443.636255982,1443.636255982,1443.636255982,1443.636255982,1443.636255982,1443.636255982,1443.636255982,1445.6719919299999,1445.6719919299999,1445.6719919299999,1445.6719919299999,,,,,,,,,,,,,,,,,,,,,,,,,,,,,,,,,,,,,,,,08,002,2022-09-20_17h14.28.144,test2,2022.2.4,60.07171722032411,
0,0,0,0,105,0,105,0,1445.6719919299999,1445.6719919299999,1445.6719919299999,1445.6719919299999,1445.6719919299999,1445.6719919299999,1445.6719919299999,0.016917449999937162,[],[],[],[],[],[],[],1,-1,rojo,0,['N_B'],[],[],[],[],[],[],[],1447.039764749,1447.039764749,1447.039764749,1447.039764749,1449.092409503,1449.092409503,1449.092409503,1449.092409503,1449.092409503,1449.092409503,1449.092409503,1449.092409503,1451.110555627,1451.110555627,1451.110555627,1451.110555627,,,,,,,,,,,,,,,,,,,,,,,,,,,,,,,,,,,,,,,,08,002,2022-09-20_17h14.28.144,test2,2022.2.4,60.07171722032411,
0,0,0,0,106,0,106,0,1451.110555627,1451.110555627,1451.110555627,1451.110555627,1451.110555627,1451.110555627,1451.110555627,0.017151431999991473,[],[],[],[],[],[],[],1,-1,azul,0,['N_A'],[],[],[],[],[],[],[],1453.0286467199999,1453.0286467199999,1453.0286467199999,1453.0286467199999,1455.082112689,1455.082112689,1455.082112689,1455.082112689,1455.082112689,1455.082112689,1455.082112689,1455.082112689,1457.1177951600002,1457.1177951600002,1457.1177951600002,1457.1177951600002,,,,,,,,,,,,,,,,,,,,,,,,,,,,,,,,,,,,,,,,08,002,2022-09-20_17h14.28.144,test2,2022.2.4,60.07171722032411,
0,0,0,0,107,0,107,0,1457.1177951600002,1457.1177951600002,1457.1177951600002,1457.1177951600002,1457.1177951600002,1457.1177951600002,1457.1177951600002,0.017436581000083606,[],[],[],[],[],[],[],1,-1,rojo,1,['N_A'],[],[],[],[],[],[],[],1458.6196922499998,1458.6196922499998,1458.6196922499998,1458.6196922499998,1460.671641033,1460.671641033,1460.671641033,1460.671641033,1460.671641033,1460.671641033,1460.671641033,1460.671641033,1462.689358655,1462.689358655,1462.689358655,1462.689358655,,,,,,,,,,,,,,,,,,,,,,,,,,,,,,,,,,,,,,,,08,002,2022-09-20_17h14.28.144,test2,2022.2.4,60.07171722032411,
0,0,0,0,108,0,108,0,1462.689358655,1462.689358655,1462.689358655,1462.689358655,1462.689358655,1462.689358655,1462.689358655,0.01695077800013678,[],[],[],[],[],[],[],1,-1,rojo,0,['N_B'],[],[],[],[],[],[],[],1464.1257709269998,1464.1257709269998,1464.1257709269998,1464.1257709269998,1466.178081742,1466.178081742,1466.178081742,1466.178081742,1466.178081742,1466.178081742,1466.178081742,1466.178081742,1468.213835339,1468.213835339,1468.213835339,1468.213835339,,,,,,,,,,,,,,,,,,,,,,,,,,,,,,,,,,,,,,,,08,002,2022-09-20_17h14.28.144,test2,2022.2.4,60.07171722032411,
0,0,0,0,109,0,109,0,1468.213835339,1468.213835339,1468.213835339,1468.213835339,1468.213835339,1468.213835339,1468.213835339,0.01715178999984346,[],[],[],[],[],[],[],-1,-1,rojo,1,['N_B'],[],[],[],[],[],[],[],1469.731722464,1469.731722464,1469.731722464,1469.731722464,1471.784636298,1471.784636298,1471.784636298,1471.784636298,1471.784636298,1471.784636298,1471.784636298,1471.784636298,1473.802377006,1473.802377006,1473.802377006,1473.802377006,,,,,,,,,,,,,,,,,,,,,,,,,,,,,,,,,,,,,,,,08,002,2022-09-20_17h14.28.144,test2,2022.2.4,60.07171722032411,
0,0,0,0,110,0,110,0,1473.802377006,1473.802377006,1473.802377006,1473.802377006,1473.802377006,1473.802377006,1473.802377006,0.016528419999986,[],[],[],[],[],[],[],1,-1,azul,1,['N_B'],[],[],[],[],[],[],[],1475.186914496,1475.186914496,1475.186914496,1475.186914496,1477.239594905,1477.239594905,1477.239594905,1477.239594905,1477.239594905,1477.239594905,1477.239594905,1477.239594905,1479.2580048159998,1479.2580048159998,1479.2580048159998,1479.2580048159998,,,,,,,,,,,,,,,,,,,,,,,,,,,,,,,,,,,,,,,,08,002,2022-09-20_17h14.28.144,test2,2022.2.4,60.07171722032411,
0,0,0,0,111,0,111,0,1479.2580048159998,1479.2580048159998,1479.2580048159998,1479.2580048159998,1479.2580048159998,1479.2580048159998,1479.2580048159998,0.01659911599995212,[],[],[],[],[],[],[],-1,-1,rojo,1,['N_B'],[],[],[],[],[],[],[],1480.577366825,1480.577366825,1480.577366825,1480.577366825,1482.629625946,1482.629625946,1482.629625946,1482.629625946,1482.629625946,1482.629625946,1482.629625946,1482.629625946,1484.6471279080001,1484.6471279080001,1484.6471279080001,1484.6471279080001,,,,,,,,,,,,,,,,,,,,,,,,,,,,,,,,,,,,,,,,08,002,2022-09-20_17h14.28.144,test2,2022.2.4,60.07171722032411,
0,0,0,0,112,0,112,0,1484.6471279080001,1484.6471279080001,1484.6471279080001,1484.6471279080001,1484.6471279080001,1484.6471279080001,1484.6471279080001,0.016895186000056128,[],[],[],[],[],[],[],1,-1,azul,1,['N_B'],[],[],[],[],[],[],[],1486.232644111,1486.232644111,1486.232644111,1486.232644111,1488.285419019,1488.285419019,1488.285419019,1488.285419019,1488.285419019,1488.285419019,1488.285419019,1488.285419019,1490.320866483,1490.320866483,1490.320866483,1490.320866483,,,,,,,,,,,,,,,,,,,,,,,,,,,,,,,,,,,,,,,,08,002,2022-09-20_17h14.28.144,test2,2022.2.4,60.07171722032411,
0,0,0,0,113,0,113,0,1490.320866483,1490.320866483,1490.320866483,1490.320866483,1490.320866483,1490.320866483,1490.320866483,0.01692874400009714,[],[],[],[],[],[],[],1,-1,azul,0,['N_A'],[],[],[],[],[],[],[],1492.139629592,1492.139629592,1492.139629592,1492.139629592,1494.1923732580003,1494.1923732580003,1494.1923732580003,1494.1923732580003,1494.1923732580003,1494.1923732580003,1494.1923732580003,1494.1923732580003,1496.2278946010001,1496.2278946010001,1496.2278946010001,1496.2278946010001,,,,,,,,,,,,,,,,,,,,,,,,,,,,,,,,,,,,,,,,08,002,2022-09-20_17h14.28.144,test2,2022.2.4,60.07171722032411,
0,0,0,0,114,0,114,0,1496.2278946010001,1496.2278946010001,1496.2278946010001,1496.2278946010001,1496.2278946010001,1496.2278946010001,1496.2278946010001,0.01753269500022725,[],[],[],[],[],[],[],1,-1,rojo,1,['N_A'],[],[],[],[],[],[],[],1497.713228746,1497.713228746,1497.713228746,1497.713228746,1499.765170304,1499.765170304,1499.765170304,1499.765170304,1499.765170304,1499.765170304,1499.765170304,1499.765170304,1501.78284408,1501.78284408,1501.78284408,1501.78284408,,,,,,,,,,,,,,,,,,,,,,,,,,,,,,,,,,,,,,,,08,002,2022-09-20_17h14.28.144,test2,2022.2.4,60.07171722032411,
0,0,0,0,115,0,115,0,1501.78284408,1501.78284408,1501.78284408,1501.78284408,1501.78284408,1501.78284408,1501.78284408,0.01720213099997636,[],[],[],[],[],[],[],1,-1,rojo,1,['N_A'],[],[],[],[],[],[],[],1503.1850688120003,1503.1850688120003,1503.1850688120003,1503.1850688120003,1505.2368729540003,1505.2368729540003,1505.2368729540003,1505.2368729540003,1505.2368729540003,1505.2368729540003,1505.2368729540003,1505.2368729540003,1507.2554825820002,1507.2554825820002,1507.2554825820002,1507.2554825820002,,,,,,,,,,,,,,,,,,,,,,,,,,,,,,,,,,,,,,,,08,002,2022-09-20_17h14.28.144,test2,2022.2.4,60.07171722032411,
0,0,0,0,116,0,116,0,1507.2554825820002,1507.2554825820002,1507.2554825820002,1507.2554825820002,1507.2554825820002,1507.2554825820002,1507.2554825820002,0.016718556999876455,[],[],[],[],[],[],[],1,-1,rojo,1,['N_A'],[],[],[],[],[],[],[],1509.0081343730003,1509.0081343730003,1509.0081343730003,1509.0081343730003,1511.059746154,1511.059746154,1511.059746154,1511.059746154,1511.059746154,1511.059746154,1511.059746154,1511.059746154,1513.0962145540002,1513.0962145540002,1513.0962145540002,1513.0962145540002,,,,,,,,,,,,,,,,,,,,,,,,,,,,,,,,,,,,,,,,08,002,2022-09-20_17h14.28.144,test2,2022.2.4,60.07171722032411,
0,0,0,0,117,0,117,0,1513.0962145540002,1513.0962145540002,1513.0962145540002,1513.0962145540002,1513.0962145540002,1513.0962145540002,1513.0962145540002,0.01707364799995048,[],[],[],[],[],[],[],-1,-1,azul,1,['N_A'],[],[],[],[],[],[],[],1514.5467979120003,1514.5467979120003,1514.5467979120003,1514.5467979120003,1516.6001508900004,1516.6001508900004,1516.6001508900004,1516.6001508900004,1516.6001508900004,1516.6001508900004,1516.6001508900004,1516.6001508900004,1518.617958416,1518.617958416,1518.617958416,1518.617958416,,,,,,,,,,,,,,,,,,,,,,,,,,,,,,,,,,,,,,,,08,002,2022-09-20_17h14.28.144,test2,2022.2.4,60.07171722032411,
0,0,0,0,118,0,118,0,1518.617958416,1518.617958416,1518.617958416,1518.617958416,1518.617958416,1518.617958416,1518.617958416,0.016552148000300804,[],[],[],[],[],[],[],-1,-1,azul,0,['N_B'],[],[],[],[],[],[],[],1520.038287725,1520.038287725,1520.038287725,1520.038287725,1522.0899511370003,1522.0899511370003,1522.0899511370003,1522.0899511370003,1522.0899511370003,1522.0899511370003,1522.0899511370003,1522.0899511370003,1524.125394437,1524.125394437,1524.125394437,1524.125394437,,,,,,,,,,,,,,,,,,,,,,,,,,,,,,,,,,,,,,,,08,002,2022-09-20_17h14.28.144,test2,2022.2.4,60.07171722032411,
0,0,0,0,119,0,119,0,1524.125394437,1524.125394437,1524.125394437,1524.125394437,1524.125394437,1524.125394437,1524.125394437,0.017265825999857043,[],[],[],[],[],[],[],-1,-1,rojo,0,['N_A'],[],[],[],[],[],[],[],1525.5254158430002,1525.5254158430002,1525.5254158430002,1525.5254158430002,1527.5787144380001,1527.5787144380001,1527.5787144380001,1527.5787144380001,1527.5787144380001,1527.5787144380001,1527.5787144380001,1527.5787144380001,1529.5969529030003,1529.5969529030003,1529.5969529030003,1529.5969529030003,,,,,,,,,,,,,,,,,,,,,,,,,,,,,,,,,,,,,,,,08,002,2022-09-20_17h14.28.144,test2,2022.2.4,60.07171722032411,
0,0,0,0,120,0,120,0,1529.5969529030003,1529.5969529030003,1529.5969529030003,1529.5969529030003,1529.5969529030003,1529.5969529030003,1529.5969529030003,0.016961598999841954,[],[],[],[],[],[],[],1,-1,rojo,0,['N_B'],[],[],[],[],[],[],[],1531.249376924,1531.249376924,1531.249376924,1531.249376924,1533.3030056900002,1533.3030056900002,1533.3030056900002,1533.3030056900002,1533.3030056900002,1533.3030056900002,1533.3030056900002,1533.3030056900002,1535.3369954960003,1535.3369954960003,1535.3369954960003,1535.3369954960003,,,,,,,,,,,,,,,,,,,,,,,,,,,,,,,,,,,,,,,,08,002,2022-09-20_17h14.28.144,test2,2022.2.4,60.07171722032411,
0,0,0,0,121,0,121,0,1535.3369954960003,1535.3369954960003,1535.3369954960003,1535.3369954960003,1535.3369954960003,1535.3369954960003,1535.3369954960003,0.017211206999945716,[],[],[],[],[],[],[],1,-1,azul,1,['N_B'],[],[],[],[],[],[],[],1536.738160195,1536.738160195,1536.738160195,1536.738160195,1538.7908788550003,1538.7908788550003,1538.7908788550003,1538.7908788550003,1538.7908788550003,1538.7908788550003,1538.7908788550003,1538.7908788550003,1540.8261167260002,1540.8261167260002,1540.8261167260002,1540.8261167260002,,,,,,,,,,,,,,,,,,,,,,,,,,,,,,,,,,,,,,,,08,002,2022-09-20_17h14.28.144,test2,2022.2.4,60.07171722032411,
0,0,0,0,122,0,122,0,1540.8261167260002,1540.8261167260002,1540.8261167260002,1540.8261167260002,1540.8261167260002,1540.8261167260002,1540.8261167260002,0.016768597999998747,[],[],[],[],[],[],[],1,-1,azul,1,['N_B'],[],[],[],[],[],[],[],1542.2609110870003,1542.2609110870003,1542.2609110870003,1542.2609110870003,1544.2961252660002,1544.2961252660002,1544.2961252660002,1544.2961252660002,1544.2961252660002,1544.2961252660002,1544.2961252660002,1544.2961252660002,1546.315101435,1546.315101435,1546.315101435,1546.315101435,,,,,,,,,,,,,,,,,,,,,,,,,,,,,,,,,,,,,,,,08,002,2022-09-20_17h14.28.144,test2,2022.2.4,60.07171722032411,
0,0,0,0,123,0,123,0,1546.315101435,1546.315101435,1546.315101435,1546.315101435,1546.315101435,1546.315101435,1546.315101435,0.016616342999896005,[],[],[],[],[],[],[],1,1,azul,1,['N_B'],[],[],[],[],[],[],[],1547.733724091,1547.733724091,1547.733724091,1547.733724091,1549.7699282190001,1549.7699282190001,1549.7699282190001,1549.7699282190001,1549.7699282190001,1549.7699282190001,1549.7699282190001,1549.7699282190001,1551.7876711030003,1551.7876711030003,1551.7876711030003,1551.7876711030003,,,,,,,,,,,,,,,,,,,,,,,,,,,,,,,,,,,,,,,,08,002,2022-09-20_17h14.28.144,test2,2022.2.4,60.07171722032411,
0,0,0,0,124,0,124,0,1551.7876711030003,1551.7876711030003,1551.7876711030003,1551.7876711030003,1551.7876711030003,1551.7876711030003,1551.7876711030003,0.016602395000063552,[],[],[],[],[],[],[],-1,-1,rojo,1,['N_B'],[],[],[],[],[],[],[],1553.507780629,1553.507780629,1553.507780629,1553.507780629,1555.559855341,1555.559855341,1555.559855341,1555.559855341,1555.559855341,1555.559855341,1555.559855341,1555.559855341,1557.5951665950001,1557.5951665950001,1557.5951665950001,1557.5951665950001,,,,,,,,,,,,,,,,,,,,,,,,,,,,,,,,,,,,,,,,08,002,2022-09-20_17h14.28.144,test2,2022.2.4,60.07171722032411,
0,0,0,0,125,0,125,0,1557.5951665950001,1557.5951665950001,1557.5951665950001,1557.5951665950001,1557.5951665950001,1557.5951665950001,1557.5951665950001,0.017146589999811113,[],[],[],[],[],[],[],-1,-1,rojo,1,['N_B'],[],[],[],[],[],[],[],1559.03053185,1559.03053185,1559.03053185,1559.03053185,1561.0653121740002,1561.0653121740002,1561.0653121740002,1561.0653121740002,1561.0653121740002,1561.0653121740002,1561.0653121740002,1561.0653121740002,1563.0838102390003,1563.0838102390003,1563.0838102390003,1563.0838102390003,,,,,,,,,,,,,,,,,,,,,,,,,,,,,,,,,,,,,,,,08,002,2022-09-20_17h14.28.144,test2,2022.2.4,60.07171722032411,
0,0,0,0,126,0,126,0,1563.0838102390003,1563.0838102390003,1563.0838102390003,1563.0838102390003,1563.0838102390003,1563.0838102390003,1563.0838102390003,0.01647657400008029,[],[],[],[],[],[],[],1,1,azul,1,['N_B'],[],[],[],[],[],[],[],1564.4352625410002,1564.4352625410002,1564.4352625410002,1564.4352625410002,1566.472134011,1566.472134011,1566.472134011,1566.472134011,1566.472134011,1566.472134011,1566.472134011,1566.472134011,1568.489817096,1568.489817096,1568.489817096,1568.489817096,,,,,,,,,,,,,,,,,,,,,,,,,,,,,,,,,,,,,,,,08,002,2022-09-20_17h14.28.144,test2,2022.2.4,60.07171722032411,
0,0,0,0,127,0,127,0,1568.489817096,1568.489817096,1568.489817096,1568.489817096,1568.489817096,1568.489817096,1568.489817096,0.016616135999811377,[],[],[],[],[],[],[],1,1,azul,1,['N_B'],[],[],[],[],[],[],[],1569.824975819,1569.824975819,1569.824975819,1569.824975819,1571.8592679040003,1571.8592679040003,1571.8592679040003,1571.8592679040003,1571.8592679040003,1571.8592679040003,1571.8592679040003,1571.8592679040003,1573.8787457890003,1573.8787457890003,1573.8787457890003,1573.8787457890003,,,,,,,,,,,,,,,,,,,,,,,,,,,,,,,,,,,,,,,,08,002,2022-09-20_17h14.28.144,test2,2022.2.4,60.07171722032411,
0,0,0,0,128,0,128,0,1573.8787457890003,1573.8787457890003,1573.8787457890003,1573.8787457890003,1573.8787457890003,1573.8787457890003,1573.8787457890003,0.01669923999997991,[],[],[],[],[],[],[],-1,-1,rojo,1,['N_B'],[],[],[],[],[],[],[],1575.2312869830002,1575.2312869830002,1575.2312869830002,1575.2312869830002,1577.26534455,1577.26534455,1577.26534455,1577.26534455,1577.26534455,1577.26534455,1577.26534455,1577.26534455,1579.285158578,1579.285158578,1579.285158578,1579.285158578,,,,,,,,,,,,,,,,,,,,,,,,,,,,,,,,,,,,,,,,08,002,2022-09-20_17h14.28.144,test2,2022.2.4,60.07171722032411,
0,0,0,0,129,0,129,0,1579.285158578,1579.285158578,1579.285158578,1579.285158578,1579.285158578,1579.285158578,1579.285158578,0.016859291999935522,[],[],[],[],[],[],[],-1,1,rojo,1,['N_B'],[],[],[],[],[],[],[],1580.7039378610002,1580.7039378610002,1580.7039378610002,1580.7039378610002,1582.738744501,1582.738744501,1582.738744501,1582.738744501,1582.738744501,1582.738744501,1582.738744501,1582.738744501,1584.7579345230001,1584.7579345230001,1584.7579345230001,1584.7579345230001,,,,,,,,,,,,,,,,,,,,,,,,,,,,,,,,,,,,,,,,08,002,2022-09-20_17h14.28.144,test2,2022.2.4,60.07171722032411,
0,0,0,0,130,0,130,0,1584.7579345230001,1584.7579345230001,1584.7579345230001,1584.7579345230001,1584.7579345230001,1584.7579345230001,1584.7579345230001,0.01675765499976478,[],[],[],[],[],[],[],1,-1,azul,1,['N_B'],[],[],[],[],[],[],[],1586.1934262500004,1586.1934262500004,1586.1934262500004,1586.1934262500004,1588.2458083710003,1588.2458083710003,1588.2458083710003,1588.2458083710003,1588.2458083710003,1588.2458083710003,1588.2458083710003,1588.2458083710003,1590.2812980010003,1590.2812980010003,1590.2812980010003,1590.2812980010003,,,,,,,,,,,,,,,,,,,,,,,,,,,,,,,,,,,,,,,,08,002,2022-09-20_17h14.28.144,test2,2022.2.4,60.07171722032411,
0,0,0,0,131,0,131,0,1590.2812980010003,1590.2812980010003,1590.2812980010003,1590.2812980010003,1590.2812980010003,1590.2812980010003,1590.2812980010003,0.01704448600003161,[],[],[],[],[],[],[],1,-1,azul,1,['N_B'],[],[],[],[],[],[],[],1591.715892964,1591.715892964,1591.715892964,1591.715892964,1593.7686837370002,1593.7686837370002,1593.7686837370002,1593.7686837370002,1593.7686837370002,1593.7686837370002,1593.7686837370002,1593.7686837370002,1595.7866909950003,1595.7866909950003,1595.7866909950003,1595.7866909950003,,,,,,,,,,,,,,,,,,,,,,,,,,,,,,,,,,,,,,,,08,002,2022-09-20_17h14.28.144,test2,2022.2.4,60.07171722032411,
0,0,0,0,132,0,132,0,1595.7866909950003,1595.7866909950003,1595.7866909950003,1595.7866909950003,1595.7866909950003,1595.7866909950003,1595.7866909950003,0.01660351000009541,[],[],[],[],[],[],[],-1,-1,rojo,1,['N_B'],[],[],[],[],[],[],[],1597.171997198,1597.171997198,1597.171997198,1597.171997198,1599.222955498,1599.222955498,1599.222955498,1599.222955498,1599.222955498,1599.222955498,1599.222955498,1599.222955498,1601.260338138,1601.260338138,1601.260338138,1601.260338138,,,,,,,,,,,,,,,,,,,,,,,,,,,,,,,,,,,,,,,,08,002,2022-09-20_17h14.28.144,test2,2022.2.4,60.07171722032411,
0,0,0,0,133,0,133,0,1601.260338138,1601.260338138,1601.260338138,1601.260338138,1601.260338138,1601.260338138,1601.260338138,0.017334847999791236,[],[],[],[],[],[],[],-1,-1,rojo,0,['N_A'],[],[],[],[],[],[],[],1602.8441318140003,1602.8441318140003,1602.8441318140003,1602.8441318140003,1604.8977661890003,1604.8977661890003,1604.8977661890003,1604.8977661890003,1604.8977661890003,1604.8977661890003,1604.8977661890003,1604.8977661890003,1606.9334516570002,1606.9334516570002,1606.9334516570002,1606.9334516570002,,,,,,,,,,,,,,,,,,,,,,,,,,,,,,,,,,,,,,,,08,002,2022-09-20_17h14.28.144,test2,2022.2.4,60.07171722032411,
0,0,0,0,134,0,134,0,1606.9334516570002,1606.9334516570002,1606.9334516570002,1606.9334516570002,1606.9334516570002,1606.9334516570002,1606.9334516570002,0.01705700499996965,[],[],[],[],[],[],[],1,-1,rojo,1,['N_A'],[],[],[],[],[],[],[],1608.334040056,1608.334040056,1608.334040056,1608.334040056,1610.387952174,1610.387952174,1610.387952174,1610.387952174,1610.387952174,1610.387952174,1610.387952174,1610.387952174,1612.421948268,1612.421948268,1612.421948268,1612.421948268,,,,,,,,,,,,,,,,,,,,,,,,,,,,,,,,,,,,,,,,08,002,2022-09-20_17h14.28.144,test2,2022.2.4,60.07171722032411,
0,0,0,0,135,0,135,0,1612.421948268,1612.421948268,1612.421948268,1612.421948268,1612.421948268,1612.421948268,1612.421948268,0.01663543600034245,[],[],[],[],[],[],[],1,-1,rojo,1,['N_A'],[],[],[],[],[],[],[],1613.9401595080003,1613.9401595080003,1613.9401595080003,1613.9401595080003,1615.9931792860002,1615.9931792860002,1615.9931792860002,1615.9931792860002,1615.9931792860002,1615.9931792860002,1615.9931792860002,1615.9931792860002,1618.0108206250002,1618.0108206250002,1618.0108206250002,1618.0108206250002,,,,,,,,,,,,,,,,,,,,,,,,,,,,,,,,,,,,,,,,08,002,2022-09-20_17h14.28.144,test2,2022.2.4,60.07171722032411,
0,0,0,0,136,0,136,0,1618.0108206250002,1618.0108206250002,1618.0108206250002,1618.0108206250002,1618.0108206250002,1618.0108206250002,1618.0108206250002,0.016577005999806715,[],[],[],[],[],[],[],1,-1,rojo,1,['N_A'],[],[],[],[],[],[],[],1619.430354134,1619.430354134,1619.430354134,1619.430354134,1621.482538236,1621.482538236,1621.482538236,1621.482538236,1621.482538236,1621.482538236,1621.482538236,1621.482538236,1623.500419459,1623.500419459,1623.500419459,1623.500419459,,,,,,,,,,,,,,,,,,,,,,,,,,,,,,,,,,,,,,,,08,002,2022-09-20_17h14.28.144,test2,2022.2.4,60.07171722032411,
0,0,0,0,137,0,137,0,1623.500419459,1623.500419459,1623.500419459,1623.500419459,1623.500419459,1623.500419459,1623.500419459,0.016820928000015556,[],[],[],[],[],[],[],1,-1,rojo,0,['N_B'],[],[],[],[],[],[],[],1624.853413374,1624.853413374,1624.853413374,1624.853413374,1626.886723087,1626.886723087,1626.886723087,1626.886723087,1626.886723087,1626.886723087,1626.886723087,1626.886723087,1628.906720983,1628.906720983,1628.906720983,1628.906720983,,,,,,,,,,,,,,,,,,,,,,,,,,,,,,,,,,,,,,,,08,002,2022-09-20_17h14.28.144,test2,2022.2.4,60.07171722032411,
0,0,0,0,138,0,138,0,1628.906720983,1628.906720983,1628.906720983,1628.906720983,1628.906720983,1628.906720983,1628.906720983,0.017528500000025815,[],[],[],[],[],[],[],1,1,azul,1,['N_B'],[],[],[],[],[],[],[],1630.2420528890002,1630.2420528890002,1630.2420528890002,1630.2420528890002,1632.276344207,1632.276344207,1632.276344207,1632.276344207,1632.276344207,1632.276344207,1632.276344207,1632.276344207,1634.295595654,1634.295595654,1634.295595654,1634.295595654,,,,,,,,,,,,,,,,,,,,,,,,,,,,,,,,,,,,,,,,08,002,2022-09-20_17h14.28.144,test2,2022.2.4,60.07171722032411,
0,0,0,0,139,0,139,0,1634.295595654,1634.295595654,1634.295595654,1634.295595654,1634.295595654,1634.295595654,1634.295595654,0.016845374000240554,[],[],[],[],[],[],[],-1,-1,rojo,1,['N_B'],[],[],[],[],[],[],[],1635.7146225770002,1635.7146225770002,1635.7146225770002,1635.7146225770002,1637.7668708200003,1637.7668708200003,1637.7668708200003,1637.7668708200003,1637.7668708200003,1637.7668708200003,1637.7668708200003,1637.7668708200003,1639.7851579140001,1639.7851579140001,1639.7851579140001,1639.7851579140001,,,,,,,,,,,,,,,,,,,,,,,,,,,,,,,,,,,,,,,,08,002,2022-09-20_17h14.28.144,test2,2022.2.4,60.07171722032411,
0,0,0,0,140,0,140,0,1639.7851579140001,1639.7851579140001,1639.7851579140001,1639.7851579140001,1639.7851579140001,1639.7851579140001,1639.7851579140001,0.016871068000000378,[],[],[],[],[],[],[],1,-1,azul,1,['N_B'],[],[],[],[],[],[],[],1641.3373366350002,1641.3373366350002,1641.3373366350002,1641.3373366350002,1643.390087156,1643.390087156,1643.390087156,1643.390087156,1643.390087156,1643.390087156,1643.390087156,1643.390087156,1645.425322306,1645.425322306,1645.425322306,1645.425322306,,,,,,,,,,,,,,,,,,,,,,,,,,,,,,,,,,,,,,,,08,002,2022-09-20_17h14.28.144,test2,2022.2.4,60.07171722032411,
0,0,0,0,141,0,141,0,1645.425322306,1645.425322306,1645.425322306,1645.425322306,1645.425322306,1645.425322306,1645.425322306,0.018004861000008532,[],[],[],[],[],[],[],-1,-1,rojo,1,['N_B'],[],[],[],[],[],[],[],1646.8434201540003,1646.8434201540003,1646.8434201540003,1646.8434201540003,1648.878524266,1648.878524266,1648.878524266,1648.878524266,1648.878524266,1648.878524266,1648.878524266,1648.878524266,1650.914687975,1650.914687975,1650.914687975,1650.914687975,,,,,,,,,,,,,,,,,,,,,,,,,,,,,,,,,,,,,,,,08,002,2022-09-20_17h14.28.144,test2,2022.2.4,60.07171722032411,
0,0,0,0,142,0,142,0,1650.914687975,1650.914687975,1650.914687975,1650.914687975,1650.914687975,1650.914687975,1650.914687975,0.017395995000242692,[],[],[],[],[],[],[],-1,1,rojo,1,['N_B'],[],[],[],[],[],[],[],1652.3323533100001,1652.3323533100001,1652.3323533100001,1652.3323533100001,1654.3673061630002,1654.3673061630002,1654.3673061630002,1654.3673061630002,1654.3673061630002,1654.3673061630002,1654.3673061630002,1654.3673061630002,1656.4045836760001,1656.4045836760001,1656.4045836760001,1656.4045836760001,,,,,,,,,,,,,,,,,,,,,,,,,,,,,,,,,,,,,,,,08,002,2022-09-20_17h14.28.144,test2,2022.2.4,60.07171722032411,
0,0,0,0,143,0,143,0,1656.4045836760001,1656.4045836760001,1656.4045836760001,1656.4045836760001,1656.4045836760001,1656.4045836760001,1656.4045836760001,0.017031404000135808,[],[],[],[],[],[],[],1,-1,azul,1,['N_B'],[],[],[],[],[],[],[],1657.789377219,1657.789377219,1657.789377219,1657.789377219,1659.823579241,1659.823579241,1659.823579241,1659.823579241,1659.823579241,1659.823579241,1659.823579241,1659.823579241,1661.842977497,1661.842977497,1661.842977497,1661.842977497,,,,,,,,,,,,,,,,,,,,,,,,,,,,,,,,,,,,,,,,08,002,2022-09-20_17h14.28.144,test2,2022.2.4,60.07171722032411,
0,0,0,0,144,0,144,0,1661.842977497,1661.842977497,1661.842977497,1661.842977497,1661.842977497,1661.842977497,1661.842977497,0.01694081499999811,[],[],[],[],[],[],[],1,1,azul,1,['N_B'],[],[],[],[],[],[],[],1663.3610520500001,1663.3610520500001,1663.3610520500001,1663.3610520500001,1665.3968723470002,1665.3968723470002,1665.3968723470002,1665.3968723470002,1665.3968723470002,1665.3968723470002,1665.3968723470002,1665.3968723470002,1667.432506602,1667.432506602,1667.432506602,1667.432506602,,,,,,,,,,,,,,,,,,,,,,,,,,,,,,,,,,,,,,,,08,002,2022-09-20_17h14.28.144,test2,2022.2.4,60.07171722032411,
0,0,0,0,145,0,145,0,1667.432506602,1667.432506602,1667.432506602,1667.432506602,1667.432506602,1667.432506602,1667.432506602,0.01690896900026928,[],[],[],[],[],[],[],-1,-1,rojo,1,['N_B'],[],[],[],[],[],[],[],1668.817716004,1668.817716004,1668.817716004,1668.817716004,1670.8520015,1670.8520015,1670.8520015,1670.8520015,1670.8520015,1670.8520015,1670.8520015,1670.8520015,1672.8895731430002,1672.8895731430002,1672.8895731430002,1672.8895731430002,,,,,,,,,,,,,,,,,,,,,,,,,,,,,,,,,,,,,,,,08,002,2022-09-20_17h14.28.144,test2,2022.2.4,60.07171722032411,
0,0,0,0,146,0,146,0,1672.8895731430002,1672.8895731430002,1672.8895731430002,1672.8895731430002,1672.8895731430002,1672.8895731430002,1672.8895731430002,0.017382652000378584,[],[],[],[],[],[],[],1,1,azul,0,['N_A'],[],[],[],[],[],[],[],1674.2895846340002,1674.2895846340002,1674.2895846340002,1674.2895846340002,1676.3251149980001,1676.3251149980001,1676.3251149980001,1676.3251149980001,1676.3251149980001,1676.3251149980001,1676.3251149980001,1676.3251149980001,1678.361613223,1678.361613223,1678.361613223,1678.361613223,,,,,,,,,,,,,,,,,,,,,,,,,,,,,,,,,,,,,,,,08,002,2022-09-20_17h14.28.144,test2,2022.2.4,60.07171722032411,
0,0,0,0,147,0,147,0,1678.361613223,1678.361613223,1678.361613223,1678.361613223,1678.361613223,1678.361613223,1678.361613223,0.016983477999929164,[],[],[],[],[],[],[],1,-1,rojo,0,['N_B'],[],[],[],[],[],[],[],1679.729464775,1679.729464775,1679.729464775,1679.729464775,1681.765599065,1681.765599065,1681.765599065,1681.765599065,1681.765599065,1681.765599065,1681.765599065,1681.765599065,1683.8009377030003,1683.8009377030003,1683.8009377030003,1683.8009377030003,,,,,,,,,,,,,,,,,,,,,,,,,,,,,,,,,,,,,,,,08,002,2022-09-20_17h14.28.144,test2,2022.2.4,60.07171722032411,
0,0,0,0,148,0,148,0,1683.8009377030003,1683.8009377030003,1683.8009377030003,1683.8009377030003,1683.8009377030003,1683.8009377030003,1683.8009377030003,0.017028449999997974,[],[],[],[],[],[],[],1,1,azul,0,['N_A'],[],[],[],[],[],[],[],1685.6187586210003,1685.6187586210003,1685.6187586210003,1685.6187586210003,1687.654055555,1687.654055555,1687.654055555,1687.654055555,1687.654055555,1687.654055555,1687.654055555,1687.654055555,1689.690650207,1689.690650207,1689.690650207,1689.690650207,,,,,,,,,,,,,,,,,,,,,,,,,,,,,,,,,,,,,,,,08,002,2022-09-20_17h14.28.144,test2,2022.2.4,60.07171722032411,
0,0,0,0,149,0,149,0,1689.690650207,1689.690650207,1689.690650207,1689.690650207,1689.690650207,1689.690650207,1689.690650207,0.01691326000036497,[],[],[],[],[],[],[],1,-1,rojo,0,['N_B'],[],[],[],[],[],[],[],1691.075813088,1691.075813088,1691.075813088,1691.075813088,1693.128197301,1693.128197301,1693.128197301,1693.128197301,1693.128197301,1693.128197301,1693.128197301,1693.128197301,1695.1473777,1695.1473777,1695.1473777,1695.1473777,,,,,,,,,,,,,,,,,,,,,,,,,,,,,,,,,,,,,,,,08,002,2022-09-20_17h14.28.144,test2,2022.2.4,60.07171722032411,
0,0,0,0,,,,,,,,,,,,,,,,,,,,,,,,,,,,,,,,,,,,,,,,,,,,,,,,1695.1473777,1695.1473777,1695.1473777,1695.1473777,,,,,,,,,,,,,,,,,,,,,,,,,,,,,,,,,,,,08,002,2022-09-20_17h14.28.144,test2,2022.2.4,60.07171722032411,
1,0,1,0,0,0,0,0,,,,,,,,,[],[],[],[],[],[],[],1,-1,azul,0,['N_C_3'],[],[],[],[],[],[],[],1703.3717889970003,1703.3717889970003,1703.3717889970003,1703.3717889970003,1705.4074321900002,1705.4074321900002,1705.4074321900002,1705.4074321900002,1705.4074321900002,1705.4074321900002,1705.4074321900002,1705.4074321900002,1707.461172876,1707.461172876,1707.461172876,1707.461172876,,,,,1698.183176472,1698.183176472,1698.183176472,1698.183176472,1698.183176472,1698.183176472,1698.183176472,1698.183176472,0.02004815600002985,1698.183176472,,,,,,,,,,,,,,,,,,,,,,,,,,08,002,2022-09-20_17h14.28.144,test2,2022.2.4,60.07171722032411,
1,0,1,0,1,0,1,0,,,,,,,,,[],[],[],[],[],[],[],1,1,verde,1,['N_C_3'],[],[],[],[],[],[],[],1709.0289659230002,1709.0289659230002,1709.0289659230002,1709.0289659230002,1711.0629743540003,1711.0629743540003,1711.0629743540003,1711.0629743540003,1711.0629743540003,1711.0629743540003,1711.0629743540003,1711.0629743540003,1713.1167686520002,1713.1167686520002,1713.1167686520002,1713.1167686520002,,,,,1707.461172876,1707.461172876,1707.461172876,1707.461172876,1707.461172876,1707.461172876,1707.461172876,1707.461172876,0.022049283999876934,1707.461172876,,,,,,,,,,,,,,,,,,,,,,,,,,08,002,2022-09-20_17h14.28.144,test2,2022.2.4,60.07171722032411,
1,0,1,0,2,0,2,0,,,,,,,,,[],[],[],[],[],[],[],-1,-1,rojo,1,['N_C_3'],[],[],[],[],[],[],[],1714.8684379660003,1714.8684379660003,1714.8684379660003,1714.8684379660003,1716.9223120440001,1716.9223120440001,1716.9223120440001,1716.9223120440001,1716.9223120440001,1716.9223120440001,1716.9223120440001,1716.9223120440001,1718.9727608960002,1718.9727608960002,1718.9727608960002,1718.9727608960002,,,,,1713.1167686520002,1713.1167686520002,1713.1167686520002,1713.1167686520002,1713.1167686520002,1713.1167686520002,1713.1167686520002,1713.1167686520002,0.020600220000233094,1713.1167686520002,,,,,,,,,,,,,,,,,,,,,,,,,,08,002,2022-09-20_17h14.28.144,test2,2022.2.4,60.07171722032411,
1,0,1,0,3,0,3,0,,,,,,,,,[],[],[],[],[],[],[],1,-1,verde,1,['N_C_3'],[],[],[],[],[],[],[],1720.6412414010001,1720.6412414010001,1720.6412414010001,1720.6412414010001,1722.693550987,1722.693550987,1722.693550987,1722.693550987,1722.693550987,1722.693550987,1722.693550987,1722.693550987,1724.745763804,1724.745763804,1724.745763804,1724.745763804,,,,,1718.9727608960002,1718.9727608960002,1718.9727608960002,1718.9727608960002,1718.9727608960002,1718.9727608960002,1718.9727608960002,1718.9727608960002,0.0206281749997288,1718.9727608960002,,,,,,,,,,,,,,,,,,,,,,,,,,08,002,2022-09-20_17h14.28.144,test2,2022.2.4,60.07171722032411,
1,0,1,0,4,0,4,0,,,,,,,,,[],[],[],[],[],[],[],1,-1,verde,0,['N_A_3'],[],[],[],[],[],[],[],1726.7328030490003,1726.7328030490003,1726.7328030490003,1726.7328030490003,1728.7844568620003,1728.7844568620003,1728.7844568620003,1728.7844568620003,1728.7844568620003,1728.7844568620003,1728.7844568620003,1728.7844568620003,1730.8370386010001,1730.8370386010001,1730.8370386010001,1730.8370386010001,,,,,1724.745763804,1724.745763804,1724.745763804,1724.745763804,1724.745763804,1724.745763804,1724.745763804,1724.745763804,0.021330421999664395,1724.745763804,,,,,,,,,,,,,,,,,,,,,,,,,,08,002,2022-09-20_17h14.28.144,test2,2022.2.4,60.07171722032411,
1,0,1,0,5,0,5,0,,,,,,,,,[],[],[],[],[],[],[],1,-1,rojo,1,['N_A_3'],[],[],[],[],[],[],[],1732.18725988,1732.18725988,1732.18725988,1732.18725988,1734.223193066,1734.223193066,1734.223193066,1734.223193066,1734.223193066,1734.223193066,1734.223193066,1734.223193066,1736.274703854,1736.274703854,1736.274703854,1736.274703854,,,,,1730.8370386010001,1730.8370386010001,1730.8370386010001,1730.8370386010001,1730.8370386010001,1730.8370386010001,1730.8370386010001,1730.8370386010001,0.02117185299994162,1730.8370386010001,,,,,,,,,,,,,,,,,,,,,,,,,,08,002,2022-09-20_17h14.28.144,test2,2022.2.4,60.07171722032411,
1,0,1,0,6,0,6,0,,,,,,,,,[],[],[],[],[],[],[],1,1,rojo,1,['N_A_3'],[],[],[],[],[],[],[],1737.910482626,1737.910482626,1737.910482626,1737.910482626,1739.9460205560003,1739.9460205560003,1739.9460205560003,1739.9460205560003,1739.9460205560003,1739.9460205560003,1739.9460205560003,1739.9460205560003,1741.9987404080002,1741.9987404080002,1741.9987404080002,1741.9987404080002,,,,,1736.274703854,1736.274703854,1736.274703854,1736.274703854,1736.274703854,1736.274703854,1736.274703854,1736.274703854,0.021441305999815086,1736.274703854,,,,,,,,,,,,,,,,,,,,,,,,,,08,002,2022-09-20_17h14.28.144,test2,2022.2.4,60.07171722032411,
1,0,1,0,7,0,7,0,,,,,,,,,[],[],[],[],[],[],[],1,-1,rojo,1,['N_A_3'],[],[],[],[],[],[],[],1743.56748745,1743.56748745,1743.56748745,1743.56748745,1745.619901043,1745.619901043,1745.619901043,1745.619901043,1745.619901043,1745.619901043,1745.619901043,1745.619901043,1747.6708601760001,1747.6708601760001,1747.6708601760001,1747.6708601760001,,,,,1741.9987404080002,1741.9987404080002,1741.9987404080002,1741.9987404080002,1741.9987404080002,1741.9987404080002,1741.9987404080002,1741.9987404080002,0.021453111000028002,1741.9987404080002,,,,,,,,,,,,,,,,,,,,,,,,,,08,002,2022-09-20_17h14.28.144,test2,2022.2.4,60.07171722032411,
1,0,1,0,8,0,8,0,,,,,,,,,[],[],[],[],[],[],[],1,-1,rojo,1,['N_A_3'],[],[],[],[],[],[],[],1749.1072185970002,1749.1072185970002,1749.1072185970002,1749.1072185970002,1751.140725181,1751.140725181,1751.140725181,1751.140725181,1751.140725181,1751.140725181,1751.140725181,1751.140725181,1753.193672556,1753.193672556,1753.193672556,1753.193672556,,,,,1747.6708601760001,1747.6708601760001,1747.6708601760001,1747.6708601760001,1747.6708601760001,1747.6708601760001,1747.6708601760001,1747.6708601760001,0.021135740000318037,1747.6708601760001,,,,,,,,,,,,,,,,,,,,,,,,,,08,002,2022-09-20_17h14.28.144,test2,2022.2.4,60.07171722032411,
1,0,1,0,9,0,9,0,,,,,,,,,[],[],[],[],[],[],[],-1,1,azul,1,['N_A_3'],[],[],[],[],[],[],[],1754.6112345740003,1754.6112345740003,1754.6112345740003,1754.6112345740003,1756.646728141,1756.646728141,1756.646728141,1756.646728141,1756.646728141,1756.646728141,1756.646728141,1756.646728141,1758.7005728230001,1758.7005728230001,1758.7005728230001,1758.7005728230001,,,,,1753.193672556,1753.193672556,1753.193672556,1753.193672556,1753.193672556,1753.193672556,1753.193672556,1753.193672556,0.021128491000126814,1753.193672556,,,,,,,,,,,,,,,,,,,,,,,,,,08,002,2022-09-20_17h14.28.144,test2,2022.2.4,60.07171722032411,
1,0,1,0,10,0,10,0,,,,,,,,,[],[],[],[],[],[],[],1,-1,rojo,0,['N_B_3'],[],[],[],[],[],[],[],1760.035656648,1760.035656648,1760.035656648,1760.035656648,1762.087355219,1762.087355219,1762.087355219,1762.087355219,1762.087355219,1762.087355219,1762.087355219,1762.087355219,1764.1398288680002,1764.1398288680002,1764.1398288680002,1764.1398288680002,,,,,1758.7005728230001,1758.7005728230001,1758.7005728230001,1758.7005728230001,1758.7005728230001,1758.7005728230001,1758.7005728230001,1758.7005728230001,0.02143531299998358,1758.7005728230001,,,,,,,,,,,,,,,,,,,,,,,,,,08,002,2022-09-20_17h14.28.144,test2,2022.2.4,60.07171722032411,
1,0,1,0,11,0,11,0,,,,,,,,,[],[],[],[],[],[],[],-1,-1,rojo,1,['N_B_3'],[],[],[],[],[],[],[],1765.507078041,1765.507078041,1765.507078041,1765.507078041,1767.560895488,1767.560895488,1767.560895488,1767.560895488,1767.560895488,1767.560895488,1767.560895488,1767.560895488,1769.6125279850003,1769.6125279850003,1769.6125279850003,1769.6125279850003,,,,,1764.1398288680002,1764.1398288680002,1764.1398288680002,1764.1398288680002,1764.1398288680002,1764.1398288680002,1764.1398288680002,1764.1398288680002,0.0208378949996586,1764.1398288680002,,,,,,,,,,,,,,,,,,,,,,,,,,08,002,2022-09-20_17h14.28.144,test2,2022.2.4,60.07171722032411,
1,0,1,0,12,0,12,0,,,,,,,,,[],[],[],[],[],[],[],-1,-1,rojo,1,['N_B_3'],[],[],[],[],[],[],[],1771.480426101,1771.480426101,1771.480426101,1771.480426101,1773.5331188,1773.5331188,1773.5331188,1773.5331188,1773.5331188,1773.5331188,1773.5331188,1773.5331188,1775.5850110390002,1775.5850110390002,1775.5850110390002,1775.5850110390002,,,,,1769.6125279850003,1769.6125279850003,1769.6125279850003,1769.6125279850003,1769.6125279850003,1769.6125279850003,1769.6125279850003,1769.6125279850003,0.02131837299975814,1769.6125279850003,,,,,,,,,,,,,,,,,,,,,,,,,,08,002,2022-09-20_17h14.28.144,test2,2022.2.4,60.07171722032411,
1,0,1,0,13,0,13,0,,,,,,,,,[],[],[],[],[],[],[],1,-1,azul,0,['N_C_3'],[],[],[],[],[],[],[],1777.6204405410003,1777.6204405410003,1777.6204405410003,1777.6204405410003,1779.655737054,1779.655737054,1779.655737054,1779.655737054,1779.655737054,1779.655737054,1779.655737054,1779.655737054,1781.7098632310003,1781.7098632310003,1781.7098632310003,1781.7098632310003,,,,,1775.5850110390002,1775.5850110390002,1775.5850110390002,1775.5850110390002,1775.5850110390002,1775.5850110390002,1775.5850110390002,1775.5850110390002,0.021244730000034906,1775.5850110390002,,,,,,,,,,,,,,,,,,,,,,,,,,08,002,2022-09-20_17h14.28.144,test2,2022.2.4,60.07171722032411,
1,0,1,0,14,0,14,0,,,,,,,,,[],[],[],[],[],[],[],-1,1,azul,1,['N_C_3'],[],[],[],[],[],[],[],1783.126432211,1783.126432211,1783.126432211,1783.126432211,1785.1619694250003,1785.1619694250003,1785.1619694250003,1785.1619694250003,1785.1619694250003,1785.1619694250003,1785.1619694250003,1785.1619694250003,1787.215563404,1787.215563404,1787.215563404,1787.215563404,,,,,1781.7098632310003,1781.7098632310003,1781.7098632310003,1781.7098632310003,1781.7098632310003,1781.7098632310003,1781.7098632310003,1781.7098632310003,0.021326899000086996,1781.7098632310003,,,,,,,,,,,,,,,,,,,,,,,,,,08,002,2022-09-20_17h14.28.144,test2,2022.2.4,60.07171722032411,
1,0,1,0,15,0,15,0,,,,,,,,,[],[],[],[],[],[],[],-1,1,azul,1,['N_C_3'],[],[],[],[],[],[],[],1788.549125823,1788.549125823,1788.549125823,1788.549125823,1790.585201758,1790.585201758,1790.585201758,1790.585201758,1790.585201758,1790.585201758,1790.585201758,1790.585201758,1792.638073561,1792.638073561,1792.638073561,1792.638073561,,,,,1787.215563404,1787.215563404,1787.215563404,1787.215563404,1787.215563404,1787.215563404,1787.215563404,1787.215563404,0.020809887000268645,1787.215563404,,,,,,,,,,,,,,,,,,,,,,,,,,08,002,2022-09-20_17h14.28.144,test2,2022.2.4,60.07171722032411,
