trials_2.thisRepN,trials_2.thisTrialN,trials_2.thisN,trials_2.thisIndex,trials.thisRepN,trials.thisTrialN,trials.thisN,trials.thisIndex,Instrucción2.started,N_A_4.started,N_B_4.started,Exitos_3.started,Dias_3.started,Stimuli_1.started,Stimuli_2.started,Transitions,Rewards,Mode,Stay,Neighbour,Stimuli_3.started,Modo.started,Dias2.started,Exitos2.started,Stimuli_3.stopped,Modo.stopped,Dias2.stopped,Exitos2.stopped,Reward.started,Stimuli_reward.started,Exitos3.started,Dias3.started,Reward.stopped,Stimuli_reward.stopped,Exitos3.stopped,Dias3.stopped,Cue_text.started,Stimuli_4.started,Exitos4.started,Dias4.started,Stimuli_3_3.started,Stimuli_2_3.started,Instrucción.started,N_A.started,N_B.started,N_C.started,Exitos_2.started,Dias_2.started,Stimuli_1_3.started,Resp_final_1,Modo2.started,Modo1.started,Pregunta_4.started,Modo3.started,Exitos7.started,Dias6.started,Resp_final_2,Modo1_2.started,Pregunta_3.started,Modo2_2.started,Exitos8.started,Dias7.started,Resp_final_3,Mensaje_Final2.started,Exitos6.started,participant,session,date,expName,psychopyVersion,frameRate,
0,0,0,0,0,0,0,0,20.890090175000296,20.890090175000296,20.890090175000296,20.890090175000296,20.890090175000296,20.890090175000296,20.890090175000296,0,0,0,0,['N_B'],26.91270362599971,26.91270362599971,26.91270362599971,26.91270362599971,28.93047991000094,28.93047991000094,28.93047991000094,28.93047991000094,28.93047991000094,28.93047991000094,28.93047991000094,28.93047991000094,30.966913674999887,30.966913674999887,30.966913674999887,30.966913674999887,,,,,,,,,,,,,,,,,,,,,,,,,,,,,,08,007,2022-09-23_14h40.44.973,test2,2022.2.4,59.80640117688498,
0,0,0,0,1,0,1,0,30.966913674999887,30.966913674999887,30.966913674999887,30.966913674999887,30.966913674999887,30.966913674999887,30.966913674999887,1,1,azul,1,['N_B'],36.639449121001235,36.639449121001235,36.639449121001235,36.639449121001235,38.675129511000705,38.675129511000705,38.675129511000705,38.675129511000705,38.675129511000705,38.675129511000705,38.675129511000705,38.675129511000705,40.71116133800024,40.71116133800024,40.71116133800024,40.71116133800024,,,,,,,,,,,,,,,,,,,,,,,,,,,,,,08,007,2022-09-23_14h40.44.973,test2,2022.2.4,59.80640117688498,
0,0,0,0,2,0,2,0,40.71116133800024,40.71116133800024,40.71116133800024,40.71116133800024,40.71116133800024,40.71116133800024,40.71116133800024,1,-1,azul,1,['N_B'],43.163423613001214,43.163423613001214,43.163423613001214,43.163423613001214,45.199308672999905,45.199308672999905,45.199308672999905,45.199308672999905,45.199308672999905,45.199308672999905,45.199308672999905,45.199308672999905,47.23425872699954,47.23425872699954,47.23425872699954,47.23425872699954,,,,,,,,,,,,,,,,,,,,,,,,,,,,,,08,007,2022-09-23_14h40.44.973,test2,2022.2.4,59.80640117688498,
0,0,0,0,3,0,3,0,47.23425872699954,47.23425872699954,47.23425872699954,47.23425872699954,47.23425872699954,47.23425872699954,47.23425872699954,-1,-1,rojo,0,['N_A'],50.28676340000129,50.28676340000129,50.28676340000129,50.28676340000129,52.306481069001165,52.306481069001165,52.306481069001165,52.306481069001165,52.306481069001165,52.306481069001165,52.306481069001165,52.306481069001165,54.342392892000134,54.342392892000134,54.342392892000134,54.342392892000134,,,,,,,,,,,,,,,,,,,,,,,,,,,,,,08,007,2022-09-23_14h40.44.973,test2,2022.2.4,59.80640117688498,
0,0,0,0,4,0,4,0,54.342392892000134,54.342392892000134,54.342392892000134,54.342392892000134,54.342392892000134,54.342392892000134,54.342392892000134,1,1,rojo,1,['N_A'],56.611334395000085,56.611334395000085,56.611334395000085,56.611334395000085,58.630037614000685,58.630037614000685,58.630037614000685,58.630037614000685,58.630037614000685,58.630037614000685,58.630037614000685,58.630037614000685,60.66643857999952,60.66643857999952,60.66643857999952,60.66643857999952,,,,,,,,,,,,,,,,,,,,,,,,,,,,,,08,007,2022-09-23_14h40.44.973,test2,2022.2.4,59.80640117688498,
0,0,0,0,5,0,5,0,60.66643857999952,60.66643857999952,60.66643857999952,60.66643857999952,60.66643857999952,60.66643857999952,60.66643857999952,1,-1,rojo,1,['N_A'],64.45305864300099,64.45305864300099,64.45305864300099,64.45305864300099,66.48913954900127,66.48913954900127,66.48913954900127,66.48913954900127,66.48913954900127,66.48913954900127,66.48913954900127,66.48913954900127,68.5248558860003,68.5248558860003,68.5248558860003,68.5248558860003,,,,,,,,,,,,,,,,,,,,,,,,,,,,,,08,007,2022-09-23_14h40.44.973,test2,2022.2.4,59.80640117688498,
0,0,0,0,6,0,6,0,68.5248558860003,68.5248558860003,68.5248558860003,68.5248558860003,68.5248558860003,68.5248558860003,68.5248558860003,1,-1,rojo,1,['N_A'],70.04219205300069,70.04219205300069,70.04219205300069,70.04219205300069,72.0788440159995,72.0788440159995,72.0788440159995,72.0788440159995,72.0788440159995,72.0788440159995,72.0788440159995,72.0788440159995,74.1142429470001,74.1142429470001,74.1142429470001,74.1142429470001,,,,,,,,,,,,,,,,,,,,,,,,,,,,,,08,007,2022-09-23_14h40.44.973,test2,2022.2.4,59.80640117688498,
0,0,0,0,7,0,7,0,74.1142429470001,74.1142429470001,74.1142429470001,74.1142429470001,74.1142429470001,74.1142429470001,74.1142429470001,-1,-1,azul,0,['N_B'],75.94960786699994,75.94960786699994,75.94960786699994,75.94960786699994,77.96840819600038,77.96840819600038,77.96840819600038,77.96840819600038,77.96840819600038,77.96840819600038,77.96840819600038,77.96840819600038,80.0039048159997,80.0039048159997,80.0039048159997,80.0039048159997,,,,,,,,,,,,,,,,,,,,,,,,,,,,,,08,007,2022-09-23_14h40.44.973,test2,2022.2.4,59.80640117688498,
0,0,0,0,8,0,8,0,80.0039048159997,80.0039048159997,80.0039048159997,80.0039048159997,80.0039048159997,80.0039048159997,80.0039048159997,1,1,azul,0,['N_A'],81.52167285300129,81.52167285300129,81.52167285300129,81.52167285300129,83.54022577500109,83.54022577500109,83.54022577500109,83.54022577500109,83.54022577500109,83.54022577500109,83.54022577500109,83.54022577500109,85.55963991300086,85.55963991300086,85.55963991300086,85.55963991300086,,,,,,,,,,,,,,,,,,,,,,,,,,,,,,08,007,2022-09-23_14h40.44.973,test2,2022.2.4,59.80640117688498,
0,0,0,0,9,0,9,0,85.55963991300086,85.55963991300086,85.55963991300086,85.55963991300086,85.55963991300086,85.55963991300086,85.55963991300086,1,-1,rojo,0,['N_B'],89.31431368599988,89.31431368599988,89.31431368599988,89.31431368599988,91.34985261200018,91.34985261200018,91.34985261200018,91.34985261200018,91.34985261200018,91.34985261200018,91.34985261200018,91.34985261200018,93.36858275800114,93.36858275800114,93.36858275800114,93.36858275800114,,,,,,,,,,,,,,,,,,,,,,,,,,,,,,08,007,2022-09-23_14h40.44.973,test2,2022.2.4,59.80640117688498,
0,0,0,0,10,0,10,0,93.36858275800114,93.36858275800114,93.36858275800114,93.36858275800114,93.36858275800114,93.36858275800114,93.36858275800114,1,-1,azul,0,['N_A'],97.40625111500049,97.40625111500049,97.40625111500049,97.40625111500049,99.44230011400032,99.44230011400032,99.44230011400032,99.44230011400032,99.44230011400032,99.44230011400032,99.44230011400032,99.44230011400032,101.45995341900016,101.45995341900016,101.45995341900016,101.45995341900016,,,,,,,,,,,,,,,,,,,,,,,,,,,,,,08,007,2022-09-23_14h40.44.973,test2,2022.2.4,59.80640117688498,
0,0,0,0,11,0,11,0,101.45995341900016,101.45995341900016,101.45995341900016,101.45995341900016,101.45995341900016,101.45995341900016,101.45995341900016,1,-1,rojo,0,['N_B'],103.52933877200121,103.52933877200121,103.52933877200121,103.52933877200121,105.56602205800118,105.56602205800118,105.56602205800118,105.56602205800118,105.56602205800118,105.56602205800118,105.56602205800118,105.56602205800118,107.58436796000024,107.58436796000024,107.58436796000024,107.58436796000024,,,,,,,,,,,,,,,,,,,,,,,,,,,,,,08,007,2022-09-23_14h40.44.973,test2,2022.2.4,59.80640117688498,
0,0,0,0,12,0,12,0,107.58436796000024,107.58436796000024,107.58436796000024,107.58436796000024,107.58436796000024,107.58436796000024,107.58436796000024,1,-1,azul,0,['N_A'],110.42099212600078,110.42099212600078,110.42099212600078,110.42099212600078,112.45695507100027,112.45695507100027,112.45695507100027,112.45695507100027,112.45695507100027,112.45695507100027,112.45695507100027,112.45695507100027,114.47515555999962,114.47515555999962,114.47515555999962,114.47515555999962,,,,,,,,,,,,,,,,,,,,,,,,,,,,,,08,007,2022-09-23_14h40.44.973,test2,2022.2.4,59.80640117688498,
0,0,0,0,13,0,13,0,114.47515555999962,114.47515555999962,114.47515555999962,114.47515555999962,114.47515555999962,114.47515555999962,114.47515555999962,-1,-1,azul,0,['N_B'],116.52680934199998,116.52680934199998,116.52680934199998,116.52680934199998,118.54585472700091,118.54585472700091,118.54585472700091,118.54585472700091,118.54585472700091,118.54585472700091,118.54585472700091,118.54585472700091,120.56460675299968,120.56460675299968,120.56460675299968,120.56460675299968,,,,,,,,,,,,,,,,,,,,,,,,,,,,,,08,007,2022-09-23_14h40.44.973,test2,2022.2.4,59.80640117688498,
0,0,0,0,14,0,14,0,120.56460675299968,120.56460675299968,120.56460675299968,120.56460675299968,120.56460675299968,120.56460675299968,120.56460675299968,1,1,azul,1,['N_B'],124.33634656600043,124.33634656600043,124.33634656600043,124.33634656600043,126.35517380400051,126.35517380400051,126.35517380400051,126.35517380400051,126.35517380400051,126.35517380400051,126.35517380400051,126.35517380400051,128.3737442950005,128.3737442950005,128.3737442950005,128.3737442950005,,,,,,,,,,,,,,,,,,,,,,,,,,,,,,08,007,2022-09-23_14h40.44.973,test2,2022.2.4,59.80640117688498,
0,0,0,0,15,0,15,0,128.3737442950005,128.3737442950005,128.3737442950005,128.3737442950005,128.3737442950005,128.3737442950005,128.3737442950005,1,-1,azul,0,['N_A'],131.3268941080005,131.3268941080005,131.3268941080005,131.3268941080005,133.36312465400079,133.36312465400079,133.36312465400079,133.36312465400079,133.36312465400079,133.36312465400079,133.36312465400079,133.36312465400079,135.38122295500034,135.38122295500034,135.38122295500034,135.38122295500034,,,,,,,,,,,,,,,,,,,,,,,,,,,,,,08,007,2022-09-23_14h40.44.973,test2,2022.2.4,59.80640117688498,
0,0,0,0,16,0,16,0,135.38122295500034,135.38122295500034,135.38122295500034,135.38122295500034,135.38122295500034,135.38122295500034,135.38122295500034,1,-1,rojo,0,['N_B'],138.1340421870009,138.1340421870009,138.1340421870009,138.1340421870009,140.17086172699965,140.17086172699965,140.17086172699965,140.17086172699965,140.17086172699965,140.17086172699965,140.17086172699965,140.17086172699965,142.1885512780009,142.1885512780009,142.1885512780009,142.1885512780009,,,,,,,,,,,,,,,,,,,,,,,,,,,,,,08,007,2022-09-23_14h40.44.973,test2,2022.2.4,59.80640117688498,
0,0,0,0,17,0,17,0,142.1885512780009,142.1885512780009,142.1885512780009,142.1885512780009,142.1885512780009,142.1885512780009,142.1885512780009,-1,-1,rojo,1,['N_B'],149.79710012299984,149.79710012299984,149.79710012299984,149.79710012299984,151.81599718500001,151.81599718500001,151.81599718500001,151.81599718500001,151.81599718500001,151.81599718500001,151.81599718500001,151.81599718500001,153.83487975900061,153.83487975900061,153.83487975900061,153.83487975900061,,,,,,,,,,,,,,,,,,,,,,,,,,,,,,08,007,2022-09-23_14h40.44.973,test2,2022.2.4,59.80640117688498,
0,0,0,0,18,0,18,0,153.83487975900061,153.83487975900061,153.83487975900061,153.83487975900061,153.83487975900061,153.83487975900061,153.83487975900061,1,1,azul,1,['N_B'],156.53784908300076,156.53784908300076,156.53784908300076,156.53784908300076,158.55828063199988,158.55828063199988,158.55828063199988,158.55828063199988,158.55828063199988,158.55828063199988,158.55828063199988,158.55828063199988,160.5758707950008,160.5758707950008,160.5758707950008,160.5758707950008,,,,,,,,,,,,,,,,,,,,,,,,,,,,,,08,007,2022-09-23_14h40.44.973,test2,2022.2.4,59.80640117688498,
0,0,0,0,19,0,19,0,160.5758707950008,160.5758707950008,160.5758707950008,160.5758707950008,160.5758707950008,160.5758707950008,160.5758707950008,1,1,azul,1,['N_B'],162.8788584720005,162.8788584720005,162.8788584720005,162.8788584720005,164.8968098360001,164.8968098360001,164.8968098360001,164.8968098360001,164.8968098360001,164.8968098360001,164.8968098360001,164.8968098360001,166.91635683700042,166.91635683700042,166.91635683700042,166.91635683700042,,,,,,,,,,,,,,,,,,,,,,,,,,,,,,08,007,2022-09-23_14h40.44.973,test2,2022.2.4,59.80640117688498,
0,0,0,0,20,0,20,0,166.91635683700042,166.91635683700042,166.91635683700042,166.91635683700042,166.91635683700042,166.91635683700042,166.91635683700042,1,-1,azul,1,['N_B'],168.4007662790009,168.4007662790009,168.4007662790009,168.4007662790009,170.4373054890002,170.4373054890002,170.4373054890002,170.4373054890002,170.4373054890002,170.4373054890002,170.4373054890002,170.4373054890002,172.45608131399968,172.45608131399968,172.45608131399968,172.45608131399968,,,,,,,,,,,,,,,,,,,,,,,,,,,,,,08,007,2022-09-23_14h40.44.973,test2,2022.2.4,59.80640117688498,
0,0,0,0,21,0,21,0,172.45608131399968,172.45608131399968,172.45608131399968,172.45608131399968,172.45608131399968,172.45608131399968,172.45608131399968,1,-1,azul,1,['N_B'],173.95741557700057,173.95741557700057,173.95741557700057,173.95741557700057,175.99380315800045,175.99380315800045,175.99380315800045,175.99380315800045,175.99380315800045,175.99380315800045,175.99380315800045,175.99380315800045,178.01256509000086,178.01256509000086,178.01256509000086,178.01256509000086,,,,,,,,,,,,,,,,,,,,,,,,,,,,,,08,007,2022-09-23_14h40.44.973,test2,2022.2.4,59.80640117688498,
0,0,0,0,22,0,22,0,178.01256509000086,178.01256509000086,178.01256509000086,178.01256509000086,178.01256509000086,178.01256509000086,178.01256509000086,1,-1,azul,1,['N_B'],180.16372271600085,180.16372271600085,180.16372271600085,180.16372271600085,182.20022228500056,182.20022228500056,182.20022228500056,182.20022228500056,182.20022228500056,182.20022228500056,182.20022228500056,182.20022228500056,184.21847789300045,184.21847789300045,184.21847789300045,184.21847789300045,,,,,,,,,,,,,,,,,,,,,,,,,,,,,,08,007,2022-09-23_14h40.44.973,test2,2022.2.4,59.80640117688498,
0,0,0,0,23,0,23,0,184.21847789300045,184.21847789300045,184.21847789300045,184.21847789300045,184.21847789300045,184.21847789300045,184.21847789300045,-1,-1,rojo,0,['N_A'],186.25422458700086,186.25422458700086,186.25422458700086,186.25422458700086,188.28997894900021,188.28997894900021,188.28997894900021,188.28997894900021,188.28997894900021,188.28997894900021,188.28997894900021,188.28997894900021,190.30915181400087,190.30915181400087,190.30915181400087,190.30915181400087,,,,,,,,,,,,,,,,,,,,,,,,,,,,,,08,007,2022-09-23_14h40.44.973,test2,2022.2.4,59.80640117688498,
0,0,0,0,24,0,24,0,190.30915181400087,190.30915181400087,190.30915181400087,190.30915181400087,190.30915181400087,190.30915181400087,190.30915181400087,-1,-1,azul,1,['N_A'],191.79308744300033,191.79308744300033,191.79308744300033,191.79308744300033,193.81285785900036,193.81285785900036,193.81285785900036,193.81285785900036,193.81285785900036,193.81285785900036,193.81285785900036,193.81285785900036,195.83147618800103,195.83147618800103,195.83147618800103,195.83147618800103,,,,,,,,,,,,,,,,,,,,,,,,,,,,,,08,007,2022-09-23_14h40.44.973,test2,2022.2.4,59.80640117688498,
0,0,0,0,25,0,25,0,195.83147618800103,195.83147618800103,195.83147618800103,195.83147618800103,195.83147618800103,195.83147618800103,195.83147618800103,-1,1,azul,1,['N_A'],199.65176435600006,199.65176435600006,199.65176435600006,199.65176435600006,201.67170402400006,201.67170402400006,201.67170402400006,201.67170402400006,201.67170402400006,201.67170402400006,201.67170402400006,201.67170402400006,203.6907618540008,203.6907618540008,203.6907618540008,203.6907618540008,,,,,,,,,,,,,,,,,,,,,,,,,,,,,,08,007,2022-09-23_14h40.44.973,test2,2022.2.4,59.80640117688498,
0,0,0,0,26,0,26,0,203.6907618540008,203.6907618540008,203.6907618540008,203.6907618540008,203.6907618540008,203.6907618540008,203.6907618540008,-1,-1,azul,0,['N_B'],205.27489715299998,205.27489715299998,205.27489715299998,205.27489715299998,207.29382210900076,207.29382210900076,207.29382210900076,207.29382210900076,207.29382210900076,207.29382210900076,207.29382210900076,207.29382210900076,209.31305865300055,209.31305865300055,209.31305865300055,209.31305865300055,,,,,,,,,,,,,,,,,,,,,,,,,,,,,,08,007,2022-09-23_14h40.44.973,test2,2022.2.4,59.80640117688498,
0,0,0,0,27,0,27,0,209.31305865300055,209.31305865300055,209.31305865300055,209.31305865300055,209.31305865300055,209.31305865300055,209.31305865300055,1,1,azul,1,['N_B'],210.89756133300034,210.89756133300034,210.89756133300034,210.89756133300034,212.91824155799986,212.91824155799986,212.91824155799986,212.91824155799986,212.91824155799986,212.91824155799986,212.91824155799986,212.91824155799986,214.93592800900115,214.93592800900115,214.93592800900115,214.93592800900115,,,,,,,,,,,,,,,,,,,,,,,,,,,,,,08,007,2022-09-23_14h40.44.973,test2,2022.2.4,59.80640117688498,
0,0,0,0,28,0,28,0,214.93592800900115,214.93592800900115,214.93592800900115,214.93592800900115,214.93592800900115,214.93592800900115,214.93592800900115,1,1,azul,0,['N_A'],216.52140945800056,216.52140945800056,216.52140945800056,216.52140945800056,218.54012441800114,218.54012441800114,218.54012441800114,218.54012441800114,218.54012441800114,218.54012441800114,218.54012441800114,218.54012441800114,220.55883967699992,220.55883967699992,220.55883967699992,220.55883967699992,,,,,,,,,,,,,,,,,,,,,,,,,,,,,,08,007,2022-09-23_14h40.44.973,test2,2022.2.4,59.80640117688498,
0,0,0,0,29,0,29,0,220.55883967699992,220.55883967699992,220.55883967699992,220.55883967699992,220.55883967699992,220.55883967699992,220.55883967699992,-1,1,azul,0,['N_B'],222.19365703400035,222.19365703400035,222.19365703400035,222.19365703400035,224.21243261500058,224.21243261500058,224.21243261500058,224.21243261500058,224.21243261500058,224.21243261500058,224.21243261500058,224.21243261500058,226.23143574999995,226.23143574999995,226.23143574999995,226.23143574999995,,,,,,,,,,,,,,,,,,,,,,,,,,,,,,08,007,2022-09-23_14h40.44.973,test2,2022.2.4,59.80640117688498,
0,0,0,0,30,0,30,0,226.23143574999995,226.23143574999995,226.23143574999995,226.23143574999995,226.23143574999995,226.23143574999995,226.23143574999995,1,-1,azul,0,['N_A'],227.81609487700007,227.81609487700007,227.81609487700007,227.81609487700007,229.85261308200097,229.85261308200097,229.85261308200097,229.85261308200097,229.85261308200097,229.85261308200097,229.85261308200097,229.85261308200097,231.871752948,231.871752948,231.871752948,231.871752948,,,,,,,,,,,,,,,,,,,,,,,,,,,,,,08,007,2022-09-23_14h40.44.973,test2,2022.2.4,59.80640117688498,
0,0,0,0,31,0,31,0,231.871752948,231.871752948,231.871752948,231.871752948,231.871752948,231.871752948,231.871752948,1,-1,rojo,0,['N_B'],233.99056491800002,233.99056491800002,233.99056491800002,233.99056491800002,236.02659308500006,236.02659308500006,236.02659308500006,236.02659308500006,236.02659308500006,236.02659308500006,236.02659308500006,236.02659308500006,238.0449959710004,238.0449959710004,238.0449959710004,238.0449959710004,,,,,,,,,,,,,,,,,,,,,,,,,,,,,,08,007,2022-09-23_14h40.44.973,test2,2022.2.4,59.80640117688498,
0,0,0,0,32,0,32,0,238.0449959710004,238.0449959710004,238.0449959710004,238.0449959710004,238.0449959710004,238.0449959710004,238.0449959710004,1,-1,azul,0,['N_A'],239.54615828100032,239.54615828100032,239.54615828100032,239.54615828100032,241.5823756640002,241.5823756640002,241.5823756640002,241.5823756640002,241.5823756640002,241.5823756640002,241.5823756640002,241.5823756640002,243.60052443800123,243.60052443800123,243.60052443800123,243.60052443800123,,,,,,,,,,,,,,,,,,,,,,,,,,,,,,08,007,2022-09-23_14h40.44.973,test2,2022.2.4,59.80640117688498,
0,0,0,0,33,0,33,0,243.60052443800123,243.60052443800123,243.60052443800123,243.60052443800123,243.60052443800123,243.60052443800123,243.60052443800123,1,-1,rojo,0,['N_B'],245.96939358500094,245.96939358500094,245.96939358500094,245.96939358500094,248.00635870400038,248.00635870400038,248.00635870400038,248.00635870400038,248.00635870400038,248.00635870400038,248.00635870400038,248.00635870400038,250.02465279900025,250.02465279900025,250.02465279900025,250.02465279900025,,,,,,,,,,,,,,,,,,,,,,,,,,,,,,08,007,2022-09-23_14h40.44.973,test2,2022.2.4,59.80640117688498,
0,0,0,0,34,0,34,0,250.02465279900025,250.02465279900025,250.02465279900025,250.02465279900025,250.02465279900025,250.02465279900025,250.02465279900025,1,-1,azul,0,['N_A'],252.3435721599999,252.3435721599999,252.3435721599999,252.3435721599999,254.37966783299998,254.37966783299998,254.37966783299998,254.37966783299998,254.37966783299998,254.37966783299998,254.37966783299998,254.37966783299998,256.39759935999973,256.39759935999973,256.39759935999973,256.39759935999973,,,,,,,,,,,,,,,,,,,,,,,,,,,,,,08,007,2022-09-23_14h40.44.973,test2,2022.2.4,59.80640117688498,
0,0,0,0,35,0,35,0,256.39759935999973,256.39759935999973,256.39759935999973,256.39759935999973,256.39759935999973,256.39759935999973,256.39759935999973,1,-1,rojo,0,['N_B'],258.0833241069995,258.0833241069995,258.0833241069995,258.0833241069995,260.1195763220003,260.1195763220003,260.1195763220003,260.1195763220003,260.1195763220003,260.1195763220003,260.1195763220003,260.1195763220003,262.1379718389999,262.1379718389999,262.1379718389999,262.1379718389999,,,,,,,,,,,,,,,,,,,,,,,,,,,,,,08,007,2022-09-23_14h40.44.973,test2,2022.2.4,59.80640117688498,
0,0,0,0,36,0,36,0,262.1379718389999,262.1379718389999,262.1379718389999,262.1379718389999,262.1379718389999,262.1379718389999,262.1379718389999,1,-1,azul,0,['N_A'],263.97326340700056,263.97326340700056,263.97326340700056,263.97326340700056,265.99211944000126,265.99211944000126,265.99211944000126,265.99211944000126,265.99211944000126,265.99211944000126,265.99211944000126,265.99211944000126,268.0110551500002,268.0110551500002,268.0110551500002,268.0110551500002,,,,,,,,,,,,,,,,,,,,,,,,,,,,,,08,007,2022-09-23_14h40.44.973,test2,2022.2.4,59.80640117688498,
0,0,0,0,37,0,37,0,268.0110551500002,268.0110551500002,268.0110551500002,268.0110551500002,268.0110551500002,268.0110551500002,268.0110551500002,-1,1,azul,0,['N_B'],269.89581168100085,269.89581168100085,269.89581168100085,269.89581168100085,271.91633442700004,271.91633442700004,271.91633442700004,271.91633442700004,271.91633442700004,271.91633442700004,271.91633442700004,271.91633442700004,273.9341209720005,273.9341209720005,273.9341209720005,273.9341209720005,,,,,,,,,,,,,,,,,,,,,,,,,,,,,,08,007,2022-09-23_14h40.44.973,test2,2022.2.4,59.80640117688498,
0,0,0,0,38,0,38,0,273.9341209720005,273.9341209720005,273.9341209720005,273.9341209720005,273.9341209720005,273.9341209720005,273.9341209720005,1,1,azul,1,['N_B'],275.8198385830001,275.8198385830001,275.8198385830001,275.8198385830001,277.83794107200083,277.83794107200083,277.83794107200083,277.83794107200083,277.83794107200083,277.83794107200083,277.83794107200083,277.83794107200083,279.8577244450007,279.8577244450007,279.8577244450007,279.8577244450007,,,,,,,,,,,,,,,,,,,,,,,,,,,,,,08,007,2022-09-23_14h40.44.973,test2,2022.2.4,59.80640117688498,
0,0,0,0,39,0,39,0,279.8577244450007,279.8577244450007,279.8577244450007,279.8577244450007,279.8577244450007,279.8577244450007,279.8577244450007,-1,-1,rojo,0,['N_A'],281.5261581859995,281.5261581859995,281.5261581859995,281.5261581859995,283.54465633200016,283.54465633200016,283.54465633200016,283.54465633200016,283.54465633200016,283.54465633200016,283.54465633200016,283.54465633200016,285.563247303,285.563247303,285.563247303,285.563247303,,,,,,,,,,,,,,,,,,,,,,,,,,,,,,08,007,2022-09-23_14h40.44.973,test2,2022.2.4,59.80640117688498,
0,0,0,0,40,0,40,0,285.563247303,285.563247303,285.563247303,285.563247303,285.563247303,285.563247303,285.563247303,-1,1,azul,1,['N_A'],287.2984978730001,287.2984978730001,287.2984978730001,287.2984978730001,289.31766669600074,289.31766669600074,289.31766669600074,289.31766669600074,289.31766669600074,289.31766669600074,289.31766669600074,289.31766669600074,291.33634305099986,291.33634305099986,291.33634305099986,291.33634305099986,,,,,,,,,,,,,,,,,,,,,,,,,,,,,,08,007,2022-09-23_14h40.44.973,test2,2022.2.4,59.80640117688498,
0,0,0,0,41,0,41,0,291.33634305099986,291.33634305099986,291.33634305099986,291.33634305099986,291.33634305099986,291.33634305099986,291.33634305099986,-1,-1,azul,0,['N_B'],293.22183883900107,293.22183883900107,293.22183883900107,293.22183883900107,295.2418357580009,295.2418357580009,295.2418357580009,295.2418357580009,295.2418357580009,295.2418357580009,295.2418357580009,295.2418357580009,297.2604464140004,297.2604464140004,297.2604464140004,297.2604464140004,,,,,,,,,,,,,,,,,,,,,,,,,,,,,,08,007,2022-09-23_14h40.44.973,test2,2022.2.4,59.80640117688498,
0,0,0,0,42,0,42,0,297.2604464140004,297.2604464140004,297.2604464140004,297.2604464140004,297.2604464140004,297.2604464140004,297.2604464140004,1,1,azul,0,['N_A'],298.77835326900095,298.77835326900095,298.77835326900095,298.77835326900095,300.84743113399963,300.84743113399963,300.84743113399963,300.84743113399963,300.84743113399963,300.84743113399963,300.84743113399963,300.84743113399963,302.86640653700124,302.86640653700124,302.86640653700124,302.86640653700124,,,,,,,,,,,,,,,,,,,,,,,,,,,,,,08,007,2022-09-23_14h40.44.973,test2,2022.2.4,59.80640117688498,
0,0,0,0,43,0,43,0,302.86640653700124,302.86640653700124,302.86640653700124,302.86640653700124,302.86640653700124,302.86640653700124,302.86640653700124,-1,1,azul,0,['N_B'],305.11814665600104,305.11814665600104,305.11814665600104,305.11814665600104,307.13787635100016,307.13787635100016,307.13787635100016,307.13787635100016,307.13787635100016,307.13787635100016,307.13787635100016,307.13787635100016,309.1568854320012,309.1568854320012,309.1568854320012,309.1568854320012,,,,,,,,,,,,,,,,,,,,,,,,,,,,,,08,007,2022-09-23_14h40.44.973,test2,2022.2.4,59.80640117688498,
0,0,0,0,44,0,44,0,309.1568854320012,309.1568854320012,309.1568854320012,309.1568854320012,309.1568854320012,309.1568854320012,309.1568854320012,-1,1,rojo,0,['N_A'],311.49265298700084,311.49265298700084,311.49265298700084,311.49265298700084,313.5108537489996,313.5108537489996,313.5108537489996,313.5108537489996,313.5108537489996,313.5108537489996,313.5108537489996,313.5108537489996,315.52966965000087,315.52966965000087,315.52966965000087,315.52966965000087,,,,,,,,,,,,,,,,,,,,,,,,,,,,,,08,007,2022-09-23_14h40.44.973,test2,2022.2.4,59.80640117688498,
0,0,0,0,45,0,45,0,315.52966965000087,315.52966965000087,315.52966965000087,315.52966965000087,315.52966965000087,315.52966965000087,315.52966965000087,-1,1,azul,0,['N_B'],318.28283651899983,318.28283651899983,318.28283651899983,318.28283651899983,320.3016471390001,320.3016471390001,320.3016471390001,320.3016471390001,320.3016471390001,320.3016471390001,320.3016471390001,320.3016471390001,322.3207520249998,322.3207520249998,322.3207520249998,322.3207520249998,,,,,,,,,,,,,,,,,,,,,,,,,,,,,,08,007,2022-09-23_14h40.44.973,test2,2022.2.4,59.80640117688498,
0,0,0,0,46,0,46,0,322.3207520249998,322.3207520249998,322.3207520249998,322.3207520249998,322.3207520249998,322.3207520249998,322.3207520249998,-1,-1,rojo,0,['N_A'],324.5571355150005,324.5571355150005,324.5571355150005,324.5571355150005,326.5932839199995,326.5932839199995,326.5932839199995,326.5932839199995,326.5932839199995,326.5932839199995,326.5932839199995,326.5932839199995,328.61153796300096,328.61153796300096,328.61153796300096,328.61153796300096,,,,,,,,,,,,,,,,,,,,,,,,,,,,,,08,007,2022-09-23_14h40.44.973,test2,2022.2.4,59.80640117688498,
0,0,0,0,47,0,47,0,328.61153796300096,328.61153796300096,328.61153796300096,328.61153796300096,328.61153796300096,328.61153796300096,328.61153796300096,1,-1,rojo,1,['N_A'],330.89705693200085,330.89705693200085,330.89705693200085,330.89705693200085,332.91539976700005,332.91539976700005,332.91539976700005,332.91539976700005,332.91539976700005,332.91539976700005,332.91539976700005,332.91539976700005,334.9342291360008,334.9342291360008,334.9342291360008,334.9342291360008,,,,,,,,,,,,,,,,,,,,,,,,,,,,,,08,007,2022-09-23_14h40.44.973,test2,2022.2.4,59.80640117688498,
0,0,0,0,48,0,48,0,334.9342291360008,334.9342291360008,334.9342291360008,334.9342291360008,334.9342291360008,334.9342291360008,334.9342291360008,-1,1,azul,0,['N_B'],338.571794032001,338.571794032001,338.571794032001,338.571794032001,340.59104227900025,340.59104227900025,340.59104227900025,340.59104227900025,340.59104227900025,340.59104227900025,340.59104227900025,340.59104227900025,342.6093694200008,342.6093694200008,342.6093694200008,342.6093694200008,,,,,,,,,,,,,,,,,,,,,,,,,,,,,,08,007,2022-09-23_14h40.44.973,test2,2022.2.4,59.80640117688498,
0,0,0,0,49,0,49,0,342.6093694200008,342.6093694200008,342.6093694200008,342.6093694200008,342.6093694200008,342.6093694200008,342.6093694200008,1,1,azul,1,['N_B'],343.9446749260005,343.9446749260005,343.9446749260005,343.9446749260005,345.96317685900067,345.96317685900067,345.96317685900067,345.96317685900067,345.96317685900067,345.96317685900067,345.96317685900067,345.96317685900067,347.98206705899975,347.98206705899975,347.98206705899975,347.98206705899975,,,,,,,,,,,,,,,,,,,,,,,,,,,,,,08,007,2022-09-23_14h40.44.973,test2,2022.2.4,59.80640117688498,
0,0,0,0,50,0,50,0,347.98206705899975,347.98206705899975,347.98206705899975,347.98206705899975,347.98206705899975,347.98206705899975,347.98206705899975,-1,-1,rojo,0,['N_A'],349.4180103970011,349.4180103970011,349.4180103970011,349.4180103970011,351.43688034300067,351.43688034300067,351.43688034300067,351.43688034300067,351.43688034300067,351.43688034300067,351.43688034300067,351.43688034300067,353.455640012,353.455640012,353.455640012,353.455640012,,,,,,,,,,,,,,,,,,,,,,,,,,,,,,08,007,2022-09-23_14h40.44.973,test2,2022.2.4,59.80640117688498,
0,0,0,0,51,0,51,0,353.455640012,353.455640012,353.455640012,353.455640012,353.455640012,353.455640012,353.455640012,1,1,rojo,0,['N_B'],355.0073000379998,355.0073000379998,355.0073000379998,355.0073000379998,357.0252847499996,357.0252847499996,357.0252847499996,357.0252847499996,357.0252847499996,357.0252847499996,357.0252847499996,357.0252847499996,359.04460047700013,359.04460047700013,359.04460047700013,359.04460047700013,,,,,,,,,,,,,,,,,,,,,,,,,,,,,,08,007,2022-09-23_14h40.44.973,test2,2022.2.4,59.80640117688498,
0,0,0,0,52,0,52,0,359.04460047700013,359.04460047700013,359.04460047700013,359.04460047700013,359.04460047700013,359.04460047700013,359.04460047700013,-1,-1,rojo,1,['N_B'],360.8131741890011,360.8131741890011,360.8131741890011,360.8131741890011,362.83190153299984,362.83190153299984,362.83190153299984,362.83190153299984,362.83190153299984,362.83190153299984,362.83190153299984,362.83190153299984,364.8514082230013,364.8514082230013,364.8514082230013,364.8514082230013,,,,,,,,,,,,,,,,,,,,,,,,,,,,,,08,007,2022-09-23_14h40.44.973,test2,2022.2.4,59.80640117688498,
0,0,0,0,53,0,53,0,364.8514082230013,364.8514082230013,364.8514082230013,364.8514082230013,364.8514082230013,364.8514082230013,364.8514082230013,1,1,azul,0,['N_A'],367.0872101969999,367.0872101969999,367.0872101969999,367.0872101969999,369.10540434200084,369.10540434200084,369.10540434200084,369.10540434200084,369.10540434200084,369.10540434200084,369.10540434200084,369.10540434200084,371.124924007001,371.124924007001,371.124924007001,371.124924007001,,,,,,,,,,,,,,,,,,,,,,,,,,,,,,08,007,2022-09-23_14h40.44.973,test2,2022.2.4,59.80640117688498,
0,0,0,0,54,0,54,0,371.124924007001,371.124924007001,371.124924007001,371.124924007001,371.124924007001,371.124924007001,371.124924007001,1,-1,rojo,0,['N_B'],372.92697394100105,372.92697394100105,372.92697394100105,372.92697394100105,374.96341103300074,374.96341103300074,374.96341103300074,374.96341103300074,374.96341103300074,374.96341103300074,374.96341103300074,374.96341103300074,376.98113403800016,376.98113403800016,376.98113403800016,376.98113403800016,,,,,,,,,,,,,,,,,,,,,,,,,,,,,,08,007,2022-09-23_14h40.44.973,test2,2022.2.4,59.80640117688498,
0,0,0,0,55,0,55,0,376.98113403800016,376.98113403800016,376.98113403800016,376.98113403800016,376.98113403800016,376.98113403800016,376.98113403800016,-1,-1,rojo,0,['N_A'],379.09972099300103,379.09972099300103,379.09972099300103,379.09972099300103,381.1367978850012,381.1367978850012,381.1367978850012,381.1367978850012,381.1367978850012,381.1367978850012,381.1367978850012,381.1367978850012,383.1544233610002,383.1544233610002,383.1544233610002,383.1544233610002,,,,,,,,,,,,,,,,,,,,,,,,,,,,,,08,007,2022-09-23_14h40.44.973,test2,2022.2.4,59.80640117688498,
0,0,0,0,56,0,56,0,383.1544233610002,383.1544233610002,383.1544233610002,383.1544233610002,383.1544233610002,383.1544233610002,383.1544233610002,1,-1,rojo,0,['N_B'],384.6730264329999,384.6730264329999,384.6730264329999,384.6730264329999,386.69184441200014,386.69184441200014,386.69184441200014,386.69184441200014,386.69184441200014,386.69184441200014,386.69184441200014,386.69184441200014,388.71092500899977,388.71092500899977,388.71092500899977,388.71092500899977,,,,,,,,,,,,,,,,,,,,,,,,,,,,,,08,007,2022-09-23_14h40.44.973,test2,2022.2.4,59.80640117688498,
0,0,0,0,57,0,57,0,388.71092500899977,388.71092500899977,388.71092500899977,388.71092500899977,388.71092500899977,388.71092500899977,388.71092500899977,1,1,azul,0,['N_A'],390.3122066140004,390.3122066140004,390.3122066140004,390.3122066140004,392.3321028930004,392.3321028930004,392.3321028930004,392.3321028930004,392.3321028930004,392.3321028930004,392.3321028930004,392.3321028930004,394.35024410200094,394.35024410200094,394.35024410200094,394.35024410200094,,,,,,,,,,,,,,,,,,,,,,,,,,,,,,08,007,2022-09-23_14h40.44.973,test2,2022.2.4,59.80640117688498,
0,0,0,0,58,0,58,0,394.35024410200094,394.35024410200094,394.35024410200094,394.35024410200094,394.35024410200094,394.35024410200094,394.35024410200094,-1,1,azul,0,['N_B'],397.3539046469996,397.3539046469996,397.3539046469996,397.3539046469996,399.37206167600016,399.37206167600016,399.37206167600016,399.37206167600016,399.37206167600016,399.37206167600016,399.37206167600016,399.37206167600016,401.3913415549996,401.3913415549996,401.3913415549996,401.3913415549996,,,,,,,,,,,,,,,,,,,,,,,,,,,,,,08,007,2022-09-23_14h40.44.973,test2,2022.2.4,59.80640117688498,
0,0,0,0,59,0,59,0,401.3913415549996,401.3913415549996,401.3913415549996,401.3913415549996,401.3913415549996,401.3913415549996,401.3913415549996,-1,-1,rojo,0,['N_A'],403.8607660790003,403.8607660790003,403.8607660790003,403.8607660790003,405.8972492840003,405.8972492840003,405.8972492840003,405.8972492840003,405.8972492840003,405.8972492840003,405.8972492840003,405.8972492840003,407.9148835619999,407.9148835619999,407.9148835619999,407.9148835619999,,,,,,,,,,,,,,,,,,,,,,,,,,,,,,08,007,2022-09-23_14h40.44.973,test2,2022.2.4,59.80640117688498,
0,0,0,0,60,0,60,0,407.9148835619999,407.9148835619999,407.9148835619999,407.9148835619999,407.9148835619999,407.9148835619999,407.9148835619999,1,-1,rojo,0,['N_B'],410.21809435700015,410.21809435700015,410.21809435700015,410.21809435700015,412.23676280200016,412.23676280200016,412.23676280200016,412.23676280200016,412.23676280200016,412.23676280200016,412.23676280200016,412.23676280200016,414.25525005599957,414.25525005599957,414.25525005599957,414.25525005599957,,,,,,,,,,,,,,,,,,,,,,,,,,,,,,08,007,2022-09-23_14h40.44.973,test2,2022.2.4,59.80640117688498,
0,0,0,0,61,0,61,0,414.25525005599957,414.25525005599957,414.25525005599957,414.25525005599957,414.25525005599957,414.25525005599957,414.25525005599957,1,1,azul,0,['N_A'],415.6233486550009,415.6233486550009,415.6233486550009,415.6233486550009,417.64378026099985,417.64378026099985,417.64378026099985,417.64378026099985,417.64378026099985,417.64378026099985,417.64378026099985,417.64378026099985,419.66211604099954,419.66211604099954,419.66211604099954,419.66211604099954,,,,,,,,,,,,,,,,,,,,,,,,,,,,,,08,007,2022-09-23_14h40.44.973,test2,2022.2.4,59.80640117688498,
0,0,0,0,62,0,62,0,419.66211604099954,419.66211604099954,419.66211604099954,419.66211604099954,419.66211604099954,419.66211604099954,419.66211604099954,1,1,rojo,1,['N_A'],421.1631768790012,421.1631768790012,421.1631768790012,421.1631768790012,423.18265428700033,423.18265428700033,423.18265428700033,423.18265428700033,423.18265428700033,423.18265428700033,423.18265428700033,423.18265428700033,425.20156263300123,425.20156263300123,425.20156263300123,425.20156263300123,,,,,,,,,,,,,,,,,,,,,,,,,,,,,,08,007,2022-09-23_14h40.44.973,test2,2022.2.4,59.80640117688498,
0,0,0,0,63,0,63,0,425.20156263300123,425.20156263300123,425.20156263300123,425.20156263300123,425.20156263300123,425.20156263300123,425.20156263300123,1,-1,rojo,1,['N_A'],428.5390279479998,428.5390279479998,428.5390279479998,428.5390279479998,430.5568404959995,430.5568404959995,430.5568404959995,430.5568404959995,430.5568404959995,430.5568404959995,430.5568404959995,430.5568404959995,432.5758737449996,432.5758737449996,432.5758737449996,432.5758737449996,,,,,,,,,,,,,,,,,,,,,,,,,,,,,,08,007,2022-09-23_14h40.44.973,test2,2022.2.4,59.80640117688498,
0,0,0,0,64,0,64,0,432.5758737449996,432.5758737449996,432.5758737449996,432.5758737449996,432.5758737449996,432.5758737449996,432.5758737449996,-1,1,azul,0,['N_B'],434.39538035199985,434.39538035199985,434.39538035199985,434.39538035199985,436.41372457000034,436.41372457000034,436.41372457000034,436.41372457000034,436.41372457000034,436.41372457000034,436.41372457000034,436.41372457000034,438.4325907450002,438.4325907450002,438.4325907450002,438.4325907450002,,,,,,,,,,,,,,,,,,,,,,,,,,,,,,08,007,2022-09-23_14h40.44.973,test2,2022.2.4,59.80640117688498,
0,0,0,0,65,0,65,0,438.4325907450002,438.4325907450002,438.4325907450002,438.4325907450002,438.4325907450002,438.4325907450002,438.4325907450002,-1,-1,rojo,1,['N_B'],439.8673294849996,439.8673294849996,439.8673294849996,439.8673294849996,441.9036369280002,441.9036369280002,441.9036369280002,441.9036369280002,441.9036369280002,441.9036369280002,441.9036369280002,441.9036369280002,443.92215798899997,443.92215798899997,443.92215798899997,443.92215798899997,,,,,,,,,,,,,,,,,,,,,,,,,,,,,,08,007,2022-09-23_14h40.44.973,test2,2022.2.4,59.80640117688498,
0,0,0,0,66,0,66,0,443.92215798899997,443.92215798899997,443.92215798899997,443.92215798899997,443.92215798899997,443.92215798899997,443.92215798899997,-1,1,rojo,1,['N_B'],445.94029748899993,445.94029748899993,445.94029748899993,445.94029748899993,447.9596284670006,447.9596284670006,447.9596284670006,447.9596284670006,447.9596284670006,447.9596284670006,447.9596284670006,447.9596284670006,449.97839447000115,449.97839447000115,449.97839447000115,449.97839447000115,,,,,,,,,,,,,,,,,,,,,,,,,,,,,,08,007,2022-09-23_14h40.44.973,test2,2022.2.4,59.80640117688498,
0,0,0,0,67,0,67,0,449.97839447000115,449.97839447000115,449.97839447000115,449.97839447000115,449.97839447000115,449.97839447000115,449.97839447000115,-1,-1,rojo,1,['N_B'],452.23185818300044,452.23185818300044,452.23185818300044,452.23185818300044,454.2499093490005,454.2499093490005,454.2499093490005,454.2499093490005,454.2499093490005,454.2499093490005,454.2499093490005,454.2499093490005,456.2689113640008,456.2689113640008,456.2689113640008,456.2689113640008,,,,,,,,,,,,,,,,,,,,,,,,,,,,,,08,007,2022-09-23_14h40.44.973,test2,2022.2.4,59.80640117688498,
0,0,0,0,68,0,68,0,456.2689113640008,456.2689113640008,456.2689113640008,456.2689113640008,456.2689113640008,456.2689113640008,456.2689113640008,1,1,azul,1,['N_B'],458.5217137190011,458.5217137190011,458.5217137190011,458.5217137190011,460.53966361200037,460.53966361200037,460.53966361200037,460.53966361200037,460.53966361200037,460.53966361200037,460.53966361200037,460.53966361200037,462.55969208700117,462.55969208700117,462.55969208700117,462.55969208700117,,,,,,,,,,,,,,,,,,,,,,,,,,,,,,08,007,2022-09-23_14h40.44.973,test2,2022.2.4,59.80640117688498,
0,0,0,0,69,0,69,0,462.55969208700117,462.55969208700117,462.55969208700117,462.55969208700117,462.55969208700117,462.55969208700117,462.55969208700117,-1,-1,rojo,0,['N_A'],466.54626325500067,466.54626325500067,466.54626325500067,466.54626325500067,468.58315253399996,468.58315253399996,468.58315253399996,468.58315253399996,468.58315253399996,468.58315253399996,468.58315253399996,468.58315253399996,470.6007175329996,470.6007175329996,470.6007175329996,470.6007175329996,,,,,,,,,,,,,,,,,,,,,,,,,,,,,,08,007,2022-09-23_14h40.44.973,test2,2022.2.4,59.80640117688498,
0,0,0,0,70,0,70,0,470.6007175329996,470.6007175329996,470.6007175329996,470.6007175329996,470.6007175329996,470.6007175329996,470.6007175329996,1,-1,rojo,1,['N_A'],471.9691124809997,471.9691124809997,471.9691124809997,471.9691124809997,474.0049923589995,474.0049923589995,474.0049923589995,474.0049923589995,474.0049923589995,474.0049923589995,474.0049923589995,474.0049923589995,476.0236094690008,476.0236094690008,476.0236094690008,476.0236094690008,,,,,,,,,,,,,,,,,,,,,,,,,,,,,,08,007,2022-09-23_14h40.44.973,test2,2022.2.4,59.80640117688498,
0,0,0,0,71,0,71,0,476.0236094690008,476.0236094690008,476.0236094690008,476.0236094690008,476.0236094690008,476.0236094690008,476.0236094690008,1,-1,rojo,1,['N_A'],477.92598415999964,477.92598415999964,477.92598415999964,477.92598415999964,479.9622193480009,479.9622193480009,479.9622193480009,479.9622193480009,479.9622193480009,479.9622193480009,479.9622193480009,479.9622193480009,481.98095634200035,481.98095634200035,481.98095634200035,481.98095634200035,,,,,,,,,,,,,,,,,,,,,,,,,,,,,,08,007,2022-09-23_14h40.44.973,test2,2022.2.4,59.80640117688498,
0,0,0,0,72,0,72,0,481.98095634200035,481.98095634200035,481.98095634200035,481.98095634200035,481.98095634200035,481.98095634200035,481.98095634200035,1,-1,rojo,0,['N_B'],485.2175963419995,485.2175963419995,485.2175963419995,485.2175963419995,487.2360464810008,487.2360464810008,487.2360464810008,487.2360464810008,487.2360464810008,487.2360464810008,487.2360464810008,487.2360464810008,489.25552429399977,489.25552429399977,489.25552429399977,489.25552429399977,,,,,,,,,,,,,,,,,,,,,,,,,,,,,,08,007,2022-09-23_14h40.44.973,test2,2022.2.4,59.80640117688498,
0,0,0,0,73,0,73,0,489.25552429399977,489.25552429399977,489.25552429399977,489.25552429399977,489.25552429399977,489.25552429399977,489.25552429399977,1,1,azul,1,['N_B'],491.4905808849999,491.4905808849999,491.4905808849999,491.4905808849999,493.50928330900024,493.50928330900024,493.50928330900024,493.50928330900024,493.50928330900024,493.50928330900024,493.50928330900024,493.50928330900024,495.5285167180009,495.5285167180009,495.5285167180009,495.5285167180009,,,,,,,,,,,,,,,,,,,,,,,,,,,,,,08,007,2022-09-23_14h40.44.973,test2,2022.2.4,59.80640117688498,
0,0,0,0,74,0,74,0,495.5285167180009,495.5285167180009,495.5285167180009,495.5285167180009,495.5285167180009,495.5285167180009,495.5285167180009,1,-1,azul,0,['N_A'],497.1138436830006,497.1138436830006,497.1138436830006,497.1138436830006,499.13229657400007,499.13229657400007,499.13229657400007,499.13229657400007,499.13229657400007,499.13229657400007,499.13229657400007,499.13229657400007,501.1520585899998,501.1520585899998,501.1520585899998,501.1520585899998,,,,,,,,,,,,,,,,,,,,,,,,,,,,,,08,007,2022-09-23_14h40.44.973,test2,2022.2.4,59.80640117688498,
0,0,0,0,75,0,75,0,501.1520585899998,501.1520585899998,501.1520585899998,501.1520585899998,501.1520585899998,501.1520585899998,501.1520585899998,-1,1,azul,1,['N_A'],503.6203852689996,503.6203852689996,503.6203852689996,503.6203852689996,505.64005635600006,505.64005635600006,505.64005635600006,505.64005635600006,505.64005635600006,505.64005635600006,505.64005635600006,505.64005635600006,507.6591901690008,507.6591901690008,507.6591901690008,507.6591901690008,,,,,,,,,,,,,,,,,,,,,,,,,,,,,,08,007,2022-09-23_14h40.44.973,test2,2022.2.4,59.80640117688498,
0,0,0,0,76,0,76,0,507.6591901690008,507.6591901690008,507.6591901690008,507.6591901690008,507.6591901690008,507.6591901690008,507.6591901690008,1,-1,rojo,1,['N_A'],509.4437263210002,509.4437263210002,509.4437263210002,509.4437263210002,511.46341932200085,511.46341932200085,511.46341932200085,511.46341932200085,511.46341932200085,511.46341932200085,511.46341932200085,511.46341932200085,513.4819773489999,513.4819773489999,513.4819773489999,513.4819773489999,,,,,,,,,,,,,,,,,,,,,,,,,,,,,,08,007,2022-09-23_14h40.44.973,test2,2022.2.4,59.80640117688498,
0,0,0,0,77,0,77,0,513.4819773489999,513.4819773489999,513.4819773489999,513.4819773489999,513.4819773489999,513.4819773489999,513.4819773489999,1,1,rojo,0,['N_B'],515.5859524349999,515.5859524349999,515.5859524349999,515.5859524349999,517.6025748060001,517.6025748060001,517.6025748060001,517.6025748060001,517.6025748060001,517.6025748060001,517.6025748060001,517.6025748060001,519.6221051510001,519.6221051510001,519.6221051510001,519.6221051510001,,,,,,,,,,,,,,,,,,,,,,,,,,,,,,08,007,2022-09-23_14h40.44.973,test2,2022.2.4,59.80640117688498,
0,0,0,0,78,0,78,0,519.6221051510001,519.6221051510001,519.6221051510001,519.6221051510001,519.6221051510001,519.6221051510001,519.6221051510001,-1,-1,rojo,1,['N_B'],521.7239699430011,521.7239699430011,521.7239699430011,521.7239699430011,523.742687123,523.742687123,523.742687123,523.742687123,523.742687123,523.742687123,523.742687123,523.742687123,525.7614591950005,525.7614591950005,525.7614591950005,525.7614591950005,,,,,,,,,,,,,,,,,,,,,,,,,,,,,,08,007,2022-09-23_14h40.44.973,test2,2022.2.4,59.80640117688498,
0,0,0,0,79,0,79,0,525.7614591950005,525.7614591950005,525.7614591950005,525.7614591950005,525.7614591950005,525.7614591950005,525.7614591950005,1,1,azul,0,['N_A'],527.6303899570012,527.6303899570012,527.6303899570012,527.6303899570012,529.6504816699999,529.6504816699999,529.6504816699999,529.6504816699999,529.6504816699999,529.6504816699999,529.6504816699999,529.6504816699999,531.6682784429995,531.6682784429995,531.6682784429995,531.6682784429995,,,,,,,,,,,,,,,,,,,,,,,,,,,,,,08,007,2022-09-23_14h40.44.973,test2,2022.2.4,59.80640117688498,
0,0,0,0,80,0,80,0,531.6682784429995,531.6682784429995,531.6682784429995,531.6682784429995,531.6682784429995,531.6682784429995,531.6682784429995,-1,1,azul,1,['N_A'],534.571109681001,534.571109681001,534.571109681001,534.571109681001,536.5910853639998,536.5910853639998,536.5910853639998,536.5910853639998,536.5910853639998,536.5910853639998,536.5910853639998,536.5910853639998,538.6097151850008,538.6097151850008,538.6097151850008,538.6097151850008,,,,,,,,,,,,,,,,,,,,,,,,,,,,,,08,007,2022-09-23_14h40.44.973,test2,2022.2.4,59.80640117688498,
0,0,0,0,81,0,81,0,538.6097151850008,538.6097151850008,538.6097151850008,538.6097151850008,538.6097151850008,538.6097151850008,538.6097151850008,1,-1,rojo,0,['N_B'],540.5289834390005,540.5289834390005,540.5289834390005,540.5289834390005,542.546596315,542.546596315,542.546596315,542.546596315,542.546596315,542.546596315,542.546596315,542.546596315,544.5665712530008,544.5665712530008,544.5665712530008,544.5665712530008,,,,,,,,,,,,,,,,,,,,,,,,,,,,,,08,007,2022-09-23_14h40.44.973,test2,2022.2.4,59.80640117688498,
0,0,0,0,82,0,82,0,544.5665712530008,544.5665712530008,544.5665712530008,544.5665712530008,544.5665712530008,544.5665712530008,544.5665712530008,1,1,azul,0,['N_A'],546.1182209409999,546.1182209409999,546.1182209409999,546.1182209409999,548.1365948300008,548.1365948300008,548.1365948300008,548.1365948300008,548.1365948300008,548.1365948300008,548.1365948300008,548.1365948300008,550.1554663700008,550.1554663700008,550.1554663700008,550.1554663700008,,,,,,,,,,,,,,,,,,,,,,,,,,,,,,08,007,2022-09-23_14h40.44.973,test2,2022.2.4,59.80640117688498,
0,0,0,0,83,0,83,0,550.1554663700008,550.1554663700008,550.1554663700008,550.1554663700008,550.1554663700008,550.1554663700008,550.1554663700008,1,-1,rojo,0,['N_B'],552.1581653960002,552.1581653960002,552.1581653960002,552.1581653960002,554.1765093169997,554.1765093169997,554.1765093169997,554.1765093169997,554.1765093169997,554.1765093169997,554.1765093169997,554.1765093169997,556.1955481960013,556.1955481960013,556.1955481960013,556.1955481960013,,,,,,,,,,,,,,,,,,,,,,,,,,,,,,08,007,2022-09-23_14h40.44.973,test2,2022.2.4,59.80640117688498,
0,0,0,0,84,0,84,0,556.1955481960013,556.1955481960013,556.1955481960013,556.1955481960013,556.1955481960013,556.1955481960013,556.1955481960013,1,1,azul,1,['N_B'],558.1982365719996,558.1982365719996,558.1982365719996,558.1982365719996,560.2165523120002,560.2165523120002,560.2165523120002,560.2165523120002,560.2165523120002,560.2165523120002,560.2165523120002,560.2165523120002,562.2357704349997,562.2357704349997,562.2357704349997,562.2357704349997,,,,,,,,,,,,,,,,,,,,,,,,,,,,,,08,007,2022-09-23_14h40.44.973,test2,2022.2.4,59.80640117688498,
0,0,0,0,85,0,85,0,562.2357704349997,562.2357704349997,562.2357704349997,562.2357704349997,562.2357704349997,562.2357704349997,562.2357704349997,1,-1,azul,0,['N_A'],564.8053864180001,564.8053864180001,564.8053864180001,564.8053864180001,566.8416531340008,566.8416531340008,566.8416531340008,566.8416531340008,566.8416531340008,566.8416531340008,566.8416531340008,566.8416531340008,568.8601310810009,568.8601310810009,568.8601310810009,568.8601310810009,,,,,,,,,,,,,,,,,,,,,,,,,,,,,,08,007,2022-09-23_14h40.44.973,test2,2022.2.4,59.80640117688498,
0,0,0,0,86,0,86,0,568.8601310810009,568.8601310810009,568.8601310810009,568.8601310810009,568.8601310810009,568.8601310810009,568.8601310810009,1,-1,rojo,0,['N_B'],571.5286372740011,571.5286372740011,571.5286372740011,571.5286372740011,573.5652238750008,573.5652238750008,573.5652238750008,573.5652238750008,573.5652238750008,573.5652238750008,573.5652238750008,573.5652238750008,575.584243962001,575.584243962001,575.584243962001,575.584243962001,,,,,,,,,,,,,,,,,,,,,,,,,,,,,,08,007,2022-09-23_14h40.44.973,test2,2022.2.4,59.80640117688498,
0,0,0,0,87,0,87,0,575.584243962001,575.584243962001,575.584243962001,575.584243962001,575.584243962001,575.584243962001,575.584243962001,1,-1,azul,0,['N_A'],577.6187201230005,577.6187201230005,577.6187201230005,577.6187201230005,579.6377442960002,579.6377442960002,579.6377442960002,579.6377442960002,579.6377442960002,579.6377442960002,579.6377442960002,579.6377442960002,581.656654714001,581.656654714001,581.656654714001,581.656654714001,,,,,,,,,,,,,,,,,,,,,,,,,,,,,,08,007,2022-09-23_14h40.44.973,test2,2022.2.4,59.80640117688498,
0,0,0,0,88,0,88,0,581.656654714001,581.656654714001,581.656654714001,581.656654714001,581.656654714001,581.656654714001,581.656654714001,-1,1,azul,0,['N_B'],583.2248978980006,583.2248978980006,583.2248978980006,583.2248978980006,585.244428375001,585.244428375001,585.244428375001,585.244428375001,585.244428375001,585.244428375001,585.244428375001,585.244428375001,587.2634132149997,587.2634132149997,587.2634132149997,587.2634132149997,,,,,,,,,,,,,,,,,,,,,,,,,,,,,,08,007,2022-09-23_14h40.44.973,test2,2022.2.4,59.80640117688498,
0,0,0,0,89,0,89,0,587.2634132149997,587.2634132149997,587.2634132149997,587.2634132149997,587.2634132149997,587.2634132149997,587.2634132149997,1,1,azul,1,['N_B'],588.9313463689996,588.9313463689996,588.9313463689996,588.9313463689996,590.9501620600004,590.9501620600004,590.9501620600004,590.9501620600004,590.9501620600004,590.9501620600004,590.9501620600004,590.9501620600004,592.9692373870002,592.9692373870002,592.9692373870002,592.9692373870002,,,,,,,,,,,,,,,,,,,,,,,,,,,,,,08,007,2022-09-23_14h40.44.973,test2,2022.2.4,59.80640117688498,
0,0,0,0,90,0,90,0,592.9692373870002,592.9692373870002,592.9692373870002,592.9692373870002,592.9692373870002,592.9692373870002,592.9692373870002,1,1,azul,1,['N_B'],594.5212629890011,594.5212629890011,594.5212629890011,594.5212629890011,596.540754865,596.540754865,596.540754865,596.540754865,596.540754865,596.540754865,596.540754865,596.540754865,598.5585567720009,598.5585567720009,598.5585567720009,598.5585567720009,,,,,,,,,,,,,,,,,,,,,,,,,,,,,,08,007,2022-09-23_14h40.44.973,test2,2022.2.4,59.80640117688498,
0,0,0,0,91,0,91,0,598.5585567720009,598.5585567720009,598.5585567720009,598.5585567720009,598.5585567720009,598.5585567720009,598.5585567720009,1,1,azul,1,['N_B'],600.2946773080002,600.2946773080002,600.2946773080002,600.2946773080002,602.3148120530004,602.3148120530004,602.3148120530004,602.3148120530004,602.3148120530004,602.3148120530004,602.3148120530004,602.3148120530004,604.3324036890008,604.3324036890008,604.3324036890008,604.3324036890008,,,,,,,,,,,,,,,,,,,,,,,,,,,,,,08,007,2022-09-23_14h40.44.973,test2,2022.2.4,59.80640117688498,
0,0,0,0,92,0,92,0,604.3324036890008,604.3324036890008,604.3324036890008,604.3324036890008,604.3324036890008,604.3324036890008,604.3324036890008,-1,1,rojo,1,['N_B'],605.7002651470011,605.7002651470011,605.7002651470011,605.7002651470011,607.7193710560005,607.7193710560005,607.7193710560005,607.7193710560005,607.7193710560005,607.7193710560005,607.7193710560005,607.7193710560005,609.7378098680001,609.7378098680001,609.7378098680001,609.7378098680001,,,,,,,,,,,,,,,,,,,,,,,,,,,,,,08,007,2022-09-23_14h40.44.973,test2,2022.2.4,59.80640117688498,
0,0,0,0,93,0,93,0,609.7378098680001,609.7378098680001,609.7378098680001,609.7378098680001,609.7378098680001,609.7378098680001,609.7378098680001,1,-1,azul,0,['N_A'],612.1072240619997,612.1072240619997,612.1072240619997,612.1072240619997,614.1445129870008,614.1445129870008,614.1445129870008,614.1445129870008,614.1445129870008,614.1445129870008,614.1445129870008,614.1445129870008,616.1620924840008,616.1620924840008,616.1620924840008,616.1620924840008,,,,,,,,,,,,,,,,,,,,,,,,,,,,,,08,007,2022-09-23_14h40.44.973,test2,2022.2.4,59.80640117688498,
0,0,0,0,94,0,94,0,616.1620924840008,616.1620924840008,616.1620924840008,616.1620924840008,616.1620924840008,616.1620924840008,616.1620924840008,-1,-1,azul,0,['N_B'],618.0470549769998,618.0470549769998,618.0470549769998,618.0470549769998,620.0665620899999,620.0665620899999,620.0665620899999,620.0665620899999,620.0665620899999,620.0665620899999,620.0665620899999,620.0665620899999,622.0846791700005,622.0846791700005,622.0846791700005,622.0846791700005,,,,,,,,,,,,,,,,,,,,,,,,,,,,,,08,007,2022-09-23_14h40.44.973,test2,2022.2.4,59.80640117688498,
0,0,0,0,95,0,95,0,622.0846791700005,622.0846791700005,622.0846791700005,622.0846791700005,622.0846791700005,622.0846791700005,622.0846791700005,1,1,azul,1,['N_B'],623.853589241,623.853589241,623.853589241,623.853589241,625.8726368650005,625.8726368650005,625.8726368650005,625.8726368650005,625.8726368650005,625.8726368650005,625.8726368650005,625.8726368650005,627.8923748390007,627.8923748390007,627.8923748390007,627.8923748390007,,,,,,,,,,,,,,,,,,,,,,,,,,,,,,08,007,2022-09-23_14h40.44.973,test2,2022.2.4,59.80640117688498,
0,0,0,0,96,0,96,0,627.8923748390007,627.8923748390007,627.8923748390007,627.8923748390007,627.8923748390007,627.8923748390007,627.8923748390007,-1,-1,rojo,1,['N_B'],633.4479891620012,633.4479891620012,633.4479891620012,633.4479891620012,635.4659242710004,635.4659242710004,635.4659242710004,635.4659242710004,635.4659242710004,635.4659242710004,635.4659242710004,635.4659242710004,637.485150855,637.485150855,637.485150855,637.485150855,,,,,,,,,,,,,,,,,,,,,,,,,,,,,,08,007,2022-09-23_14h40.44.973,test2,2022.2.4,59.80640117688498,
0,0,0,0,97,0,97,0,637.485150855,637.485150855,637.485150855,637.485150855,637.485150855,637.485150855,637.485150855,1,1,azul,1,['N_B'],639.253675887001,639.253675887001,639.253675887001,639.253675887001,641.2725653430007,641.2725653430007,641.2725653430007,641.2725653430007,641.2725653430007,641.2725653430007,641.2725653430007,641.2725653430007,643.2919945970007,643.2919945970007,643.2919945970007,643.2919945970007,,,,,,,,,,,,,,,,,,,,,,,,,,,,,,08,007,2022-09-23_14h40.44.973,test2,2022.2.4,59.80640117688498,
0,0,0,0,98,0,98,0,643.2919945970007,643.2919945970007,643.2919945970007,643.2919945970007,643.2919945970007,643.2919945970007,643.2919945970007,1,-1,azul,1,['N_B'],645.2101189730001,645.2101189730001,645.2101189730001,645.2101189730001,647.2288861500001,647.2288861500001,647.2288861500001,647.2288861500001,647.2288861500001,647.2288861500001,647.2288861500001,647.2288861500001,649.2486023199999,649.2486023199999,649.2486023199999,649.2486023199999,,,,,,,,,,,,,,,,,,,,,,,,,,,,,,08,007,2022-09-23_14h40.44.973,test2,2022.2.4,59.80640117688498,
0,0,0,0,99,0,99,0,649.2486023199999,649.2486023199999,649.2486023199999,649.2486023199999,649.2486023199999,649.2486023199999,649.2486023199999,1,1,azul,0,['N_A'],650.6164829620011,650.6164829620011,650.6164829620011,650.6164829620011,652.6356319059996,652.6356319059996,652.6356319059996,652.6356319059996,652.6356319059996,652.6356319059996,652.6356319059996,652.6356319059996,654.6547861630006,654.6547861630006,654.6547861630006,654.6547861630006,,,,,,,,,,,,,,,,,,,,,,,,,,,,,,08,007,2022-09-23_14h40.44.973,test2,2022.2.4,59.80640117688498,
0,0,0,0,100,0,100,0,654.6547861630006,654.6547861630006,654.6547861630006,654.6547861630006,654.6547861630006,654.6547861630006,654.6547861630006,1,-1,rojo,0,['N_B'],656.3398191569995,656.3398191569995,656.3398191569995,656.3398191569995,658.3756028820007,658.3756028820007,658.3756028820007,658.3756028820007,658.3756028820007,658.3756028820007,658.3756028820007,658.3756028820007,660.3942754660002,660.3942754660002,660.3942754660002,660.3942754660002,,,,,,,,,,,,,,,,,,,,,,,,,,,,,,08,007,2022-09-23_14h40.44.973,test2,2022.2.4,59.80640117688498,
0,0,0,0,101,0,101,0,660.3942754660002,660.3942754660002,660.3942754660002,660.3942754660002,660.3942754660002,660.3942754660002,660.3942754660002,-1,-1,rojo,1,['N_B'],662.1622582010004,662.1622582010004,662.1622582010004,662.1622582010004,664.1985214369997,664.1985214369997,664.1985214369997,664.1985214369997,664.1985214369997,664.1985214369997,664.1985214369997,664.1985214369997,666.2179852379995,666.2179852379995,666.2179852379995,666.2179852379995,,,,,,,,,,,,,,,,,,,,,,,,,,,,,,08,007,2022-09-23_14h40.44.973,test2,2022.2.4,59.80640117688498,
0,0,0,0,102,0,102,0,666.2179852379995,666.2179852379995,666.2179852379995,666.2179852379995,666.2179852379995,666.2179852379995,666.2179852379995,1,-1,azul,1,['N_B'],667.8852523450005,667.8852523450005,667.8852523450005,667.8852523450005,669.9223811280008,669.9223811280008,669.9223811280008,669.9223811280008,669.9223811280008,669.9223811280008,669.9223811280008,669.9223811280008,671.9402642839996,671.9402642839996,671.9402642839996,671.9402642839996,,,,,,,,,,,,,,,,,,,,,,,,,,,,,,08,007,2022-09-23_14h40.44.973,test2,2022.2.4,59.80640117688498,
0,0,0,0,103,0,103,0,671.9402642839996,671.9402642839996,671.9402642839996,671.9402642839996,671.9402642839996,671.9402642839996,671.9402642839996,1,-1,azul,0,['N_A'],673.7925373060007,673.7925373060007,673.7925373060007,673.7925373060007,675.8282941130001,675.8282941130001,675.8282941130001,675.8282941130001,675.8282941130001,675.8282941130001,675.8282941130001,675.8282941130001,677.8463653489998,677.8463653489998,677.8463653489998,677.8463653489998,,,,,,,,,,,,,,,,,,,,,,,,,,,,,,08,007,2022-09-23_14h40.44.973,test2,2022.2.4,59.80640117688498,
0,0,0,0,104,0,104,0,677.8463653489998,677.8463653489998,677.8463653489998,677.8463653489998,677.8463653489998,677.8463653489998,677.8463653489998,1,-1,rojo,0,['N_B'],679.7818208200006,679.7818208200006,679.7818208200006,679.7818208200006,681.8008339139997,681.8008339139997,681.8008339139997,681.8008339139997,681.8008339139997,681.8008339139997,681.8008339139997,681.8008339139997,683.8192690739997,683.8192690739997,683.8192690739997,683.8192690739997,,,,,,,,,,,,,,,,,,,,,,,,,,,,,,08,007,2022-09-23_14h40.44.973,test2,2022.2.4,59.80640117688498,
0,0,0,0,105,0,105,0,683.8192690739997,683.8192690739997,683.8192690739997,683.8192690739997,683.8192690739997,683.8192690739997,683.8192690739997,1,1,azul,0,['N_A'],685.9219047120005,685.9219047120005,685.9219047120005,685.9219047120005,687.9421242589997,687.9421242589997,687.9421242589997,687.9421242589997,687.9421242589997,687.9421242589997,687.9421242589997,687.9421242589997,689.9600714570006,689.9600714570006,689.9600714570006,689.9600714570006,,,,,,,,,,,,,,,,,,,,,,,,,,,,,,08,007,2022-09-23_14h40.44.973,test2,2022.2.4,59.80640117688498,
0,0,0,0,106,0,106,0,689.9600714570006,689.9600714570006,689.9600714570006,689.9600714570006,689.9600714570006,689.9600714570006,689.9600714570006,-1,-1,azul,0,['N_B'],692.0627575110011,692.0627575110011,692.0627575110011,692.0627575110011,694.0984969519996,694.0984969519996,694.0984969519996,694.0984969519996,694.0984969519996,694.0984969519996,694.0984969519996,694.0984969519996,696.1170565040011,696.1170565040011,696.1170565040011,696.1170565040011,,,,,,,,,,,,,,,,,,,,,,,,,,,,,,08,007,2022-09-23_14h40.44.973,test2,2022.2.4,59.80640117688498,
0,0,0,0,107,0,107,0,696.1170565040011,696.1170565040011,696.1170565040011,696.1170565040011,696.1170565040011,696.1170565040011,696.1170565040011,1,-1,azul,0,['N_A'],698.5861645639998,698.5861645639998,698.5861645639998,698.5861645639998,700.6222896380004,700.6222896380004,700.6222896380004,700.6222896380004,700.6222896380004,700.6222896380004,700.6222896380004,700.6222896380004,702.641597709,702.641597709,702.641597709,702.641597709,,,,,,,,,,,,,,,,,,,,,,,,,,,,,,08,007,2022-09-23_14h40.44.973,test2,2022.2.4,59.80640117688498,
0,0,0,0,108,0,108,0,702.641597709,702.641597709,702.641597709,702.641597709,702.641597709,702.641597709,702.641597709,1,-1,rojo,0,['N_B'],705.2105649059995,705.2105649059995,705.2105649059995,705.2105649059995,707.2289542060007,707.2289542060007,707.2289542060007,707.2289542060007,707.2289542060007,707.2289542060007,707.2289542060007,707.2289542060007,709.2474792350004,709.2474792350004,709.2474792350004,709.2474792350004,,,,,,,,,,,,,,,,,,,,,,,,,,,,,,08,007,2022-09-23_14h40.44.973,test2,2022.2.4,59.80640117688498,
0,0,0,0,109,0,109,0,709.2474792350004,709.2474792350004,709.2474792350004,709.2474792350004,709.2474792350004,709.2474792350004,709.2474792350004,1,1,azul,1,['N_B'],710.8489873720009,710.8489873720009,710.8489873720009,710.8489873720009,712.8688278509999,712.8688278509999,712.8688278509999,712.8688278509999,712.8688278509999,712.8688278509999,712.8688278509999,712.8688278509999,714.9057343880013,714.9057343880013,714.9057343880013,714.9057343880013,,,,,,,,,,,,,,,,,,,,,,,,,,,,,,08,007,2022-09-23_14h40.44.973,test2,2022.2.4,59.80640117688498,
0,0,0,0,110,0,110,0,714.9057343880013,714.9057343880013,714.9057343880013,714.9057343880013,714.9057343880013,714.9057343880013,714.9057343880013,1,-1,azul,0,['N_A'],716.9892278549996,716.9892278549996,716.9892278549996,716.9892278549996,719.026328807,719.026328807,719.026328807,719.026328807,719.026328807,719.026328807,719.026328807,719.026328807,721.0446813390008,721.0446813390008,721.0446813390008,721.0446813390008,,,,,,,,,,,,,,,,,,,,,,,,,,,,,,08,007,2022-09-23_14h40.44.973,test2,2022.2.4,59.80640117688498,
0,0,0,0,111,0,111,0,721.0446813390008,721.0446813390008,721.0446813390008,721.0446813390008,721.0446813390008,721.0446813390008,721.0446813390008,1,-1,rojo,0,['N_B'],722.3954346610008,722.3954346610008,722.3954346610008,722.3954346610008,724.4324756770002,724.4324756770002,724.4324756770002,724.4324756770002,724.4324756770002,724.4324756770002,724.4324756770002,724.4324756770002,726.4497691060005,726.4497691060005,726.4497691060005,726.4497691060005,,,,,,,,,,,,,,,,,,,,,,,,,,,,,,08,007,2022-09-23_14h40.44.973,test2,2022.2.4,59.80640117688498,
0,0,0,0,112,0,112,0,726.4497691060005,726.4497691060005,726.4497691060005,726.4497691060005,726.4497691060005,726.4497691060005,726.4497691060005,1,-1,azul,0,['N_A'],728.001691630001,728.001691630001,728.001691630001,728.001691630001,730.0378641890002,730.0378641890002,730.0378641890002,730.0378641890002,730.0378641890002,730.0378641890002,730.0378641890002,730.0378641890002,732.0735887270002,732.0735887270002,732.0735887270002,732.0735887270002,,,,,,,,,,,,,,,,,,,,,,,,,,,,,,08,007,2022-09-23_14h40.44.973,test2,2022.2.4,59.80640117688498,
0,0,0,0,113,0,113,0,732.0735887270002,732.0735887270002,732.0735887270002,732.0735887270002,732.0735887270002,732.0735887270002,732.0735887270002,1,-1,rojo,0,['N_B'],734.6085556470007,734.6085556470007,734.6085556470007,734.6085556470007,736.6274384200005,736.6274384200005,736.6274384200005,736.6274384200005,736.6274384200005,736.6274384200005,736.6274384200005,736.6274384200005,738.647252656001,738.647252656001,738.647252656001,738.647252656001,,,,,,,,,,,,,,,,,,,,,,,,,,,,,,08,007,2022-09-23_14h40.44.973,test2,2022.2.4,59.80640117688498,
0,0,0,0,114,0,114,0,738.647252656001,738.647252656001,738.647252656001,738.647252656001,738.647252656001,738.647252656001,738.647252656001,1,1,azul,0,['N_A'],740.3151719890011,740.3151719890011,740.3151719890011,740.3151719890011,742.3343474760004,742.3343474760004,742.3343474760004,742.3343474760004,742.3343474760004,742.3343474760004,742.3343474760004,742.3343474760004,744.3532706879996,744.3532706879996,744.3532706879996,744.3532706879996,,,,,,,,,,,,,,,,,,,,,,,,,,,,,,08,007,2022-09-23_14h40.44.973,test2,2022.2.4,59.80640117688498,
0,0,0,0,115,0,115,0,744.3532706879996,744.3532706879996,744.3532706879996,744.3532706879996,744.3532706879996,744.3532706879996,744.3532706879996,1,-1,rojo,1,['N_A'],745.9712387920008,745.9712387920008,745.9712387920008,745.9712387920008,748.0086084610011,748.0086084610011,748.0086084610011,748.0086084610011,748.0086084610011,748.0086084610011,748.0086084610011,748.0086084610011,750.0267501840008,750.0267501840008,750.0267501840008,750.0267501840008,,,,,,,,,,,,,,,,,,,,,,,,,,,,,,08,007,2022-09-23_14h40.44.973,test2,2022.2.4,59.80640117688498,
0,0,0,0,116,0,116,0,750.0267501840008,750.0267501840008,750.0267501840008,750.0267501840008,750.0267501840008,750.0267501840008,750.0267501840008,1,-1,rojo,0,['N_B'],751.877922136,751.877922136,751.877922136,751.877922136,753.8972451720001,753.8972451720001,753.8972451720001,753.8972451720001,753.8972451720001,753.8972451720001,753.8972451720001,753.8972451720001,755.9158928680008,755.9158928680008,755.9158928680008,755.9158928680008,,,,,,,,,,,,,,,,,,,,,,,,,,,,,,08,007,2022-09-23_14h40.44.973,test2,2022.2.4,59.80640117688498,
0,0,0,0,117,0,117,0,755.9158928680008,755.9158928680008,755.9158928680008,755.9158928680008,755.9158928680008,755.9158928680008,755.9158928680008,-1,1,rojo,0,['N_A'],757.9516236700001,757.9516236700001,757.9516236700001,757.9516236700001,759.9697478950002,759.9697478950002,759.9697478950002,759.9697478950002,759.9697478950002,759.9697478950002,759.9697478950002,759.9697478950002,761.989662946,761.989662946,761.989662946,761.989662946,,,,,,,,,,,,,,,,,,,,,,,,,,,,,,08,007,2022-09-23_14h40.44.973,test2,2022.2.4,59.80640117688498,
0,0,0,0,118,0,118,0,761.989662946,761.989662946,761.989662946,761.989662946,761.989662946,761.989662946,761.989662946,1,-1,rojo,1,['N_A'],763.5404332430007,763.5404332430007,763.5404332430007,763.5404332430007,765.5594984809995,765.5594984809995,765.5594984809995,765.5594984809995,765.5594984809995,765.5594984809995,765.5594984809995,765.5594984809995,767.5793198890005,767.5793198890005,767.5793198890005,767.5793198890005,,,,,,,,,,,,,,,,,,,,,,,,,,,,,,08,007,2022-09-23_14h40.44.973,test2,2022.2.4,59.80640117688498,
0,0,0,0,119,0,119,0,767.5793198890005,767.5793198890005,767.5793198890005,767.5793198890005,767.5793198890005,767.5793198890005,767.5793198890005,1,1,rojo,1,['N_A'],769.1975646310002,769.1975646310002,769.1975646310002,769.1975646310002,771.216227035,771.216227035,771.216227035,771.216227035,771.216227035,771.216227035,771.216227035,771.216227035,773.2351488210006,773.2351488210006,773.2351488210006,773.2351488210006,,,,,,,,,,,,,,,,,,,,,,,,,,,,,,08,007,2022-09-23_14h40.44.973,test2,2022.2.4,59.80640117688498,
0,0,0,0,120,0,120,0,773.2351488210006,773.2351488210006,773.2351488210006,773.2351488210006,773.2351488210006,773.2351488210006,773.2351488210006,1,-1,rojo,0,['N_B'],775.3371732510004,775.3371732510004,775.3371732510004,775.3371732510004,777.3561393180007,777.3561393180007,777.3561393180007,777.3561393180007,777.3561393180007,777.3561393180007,777.3561393180007,777.3561393180007,779.3760352059999,779.3760352059999,779.3760352059999,779.3760352059999,,,,,,,,,,,,,,,,,,,,,,,,,,,,,,08,007,2022-09-23_14h40.44.973,test2,2022.2.4,59.80640117688498,
0,0,0,0,121,0,121,0,779.3760352059999,779.3760352059999,779.3760352059999,779.3760352059999,779.3760352059999,779.3760352059999,779.3760352059999,1,1,azul,0,['N_A'],781.5437791229997,781.5437791229997,781.5437791229997,781.5437791229997,783.5635270820003,783.5635270820003,783.5635270820003,783.5635270820003,783.5635270820003,783.5635270820003,783.5635270820003,783.5635270820003,785.5825264659998,785.5825264659998,785.5825264659998,785.5825264659998,,,,,,,,,,,,,,,,,,,,,,,,,,,,,,08,007,2022-09-23_14h40.44.973,test2,2022.2.4,59.80640117688498,
0,0,0,0,122,0,122,0,785.5825264659998,785.5825264659998,785.5825264659998,785.5825264659998,785.5825264659998,785.5825264659998,785.5825264659998,1,1,rojo,0,['N_B'],787.4004801560004,787.4004801560004,787.4004801560004,787.4004801560004,789.4198758820003,789.4198758820003,789.4198758820003,789.4198758820003,789.4198758820003,789.4198758820003,789.4198758820003,789.4198758820003,791.437820946001,791.437820946001,791.437820946001,791.437820946001,,,,,,,,,,,,,,,,,,,,,,,,,,,,,,08,007,2022-09-23_14h40.44.973,test2,2022.2.4,59.80640117688498,
0,0,0,0,123,0,123,0,791.437820946001,791.437820946001,791.437820946001,791.437820946001,791.437820946001,791.437820946001,791.437820946001,1,-1,azul,0,['N_A'],792.82376811,792.82376811,792.82376811,792.82376811,794.8598508310006,794.8598508310006,794.8598508310006,794.8598508310006,794.8598508310006,794.8598508310006,794.8598508310006,794.8598508310006,796.8781521159999,796.8781521159999,796.8781521159999,796.8781521159999,,,,,,,,,,,,,,,,,,,,,,,,,,,,,,08,007,2022-09-23_14h40.44.973,test2,2022.2.4,59.80640117688498,
0,0,0,0,124,0,124,0,796.8781521159999,796.8781521159999,796.8781521159999,796.8781521159999,796.8781521159999,796.8781521159999,796.8781521159999,1,-1,rojo,0,['N_B'],798.3965401010009,798.3965401010009,798.3965401010009,798.3965401010009,800.4320263509999,800.4320263509999,800.4320263509999,800.4320263509999,800.4320263509999,800.4320263509999,800.4320263509999,800.4320263509999,802.450720891,802.450720891,802.450720891,802.450720891,,,,,,,,,,,,,,,,,,,,,,,,,,,,,,08,007,2022-09-23_14h40.44.973,test2,2022.2.4,59.80640117688498,
0,0,0,0,125,0,125,0,802.450720891,802.450720891,802.450720891,802.450720891,802.450720891,802.450720891,802.450720891,1,-1,azul,0,['N_A'],804.0528409500002,804.0528409500002,804.0528409500002,804.0528409500002,806.088198540001,806.088198540001,806.088198540001,806.088198540001,806.088198540001,806.088198540001,806.088198540001,806.088198540001,808.1072000060012,808.1072000060012,808.1072000060012,808.1072000060012,,,,,,,,,,,,,,,,,,,,,,,,,,,,,,08,007,2022-09-23_14h40.44.973,test2,2022.2.4,59.80640117688498,
0,0,0,0,126,0,126,0,808.1072000060012,808.1072000060012,808.1072000060012,808.1072000060012,808.1072000060012,808.1072000060012,808.1072000060012,1,-1,rojo,0,['N_B'],809.709577099,809.709577099,809.709577099,809.709577099,811.7274584420011,811.7274584420011,811.7274584420011,811.7274584420011,811.7274584420011,811.7274584420011,811.7274584420011,811.7274584420011,813.7468252020008,813.7468252020008,813.7468252020008,813.7468252020008,,,,,,,,,,,,,,,,,,,,,,,,,,,,,,08,007,2022-09-23_14h40.44.973,test2,2022.2.4,59.80640117688498,
0,0,0,0,127,0,127,0,813.7468252020008,813.7468252020008,813.7468252020008,813.7468252020008,813.7468252020008,813.7468252020008,813.7468252020008,1,1,azul,0,['N_A'],815.4815992530002,815.4815992530002,815.4815992530002,815.4815992530002,817.500946483,817.500946483,817.500946483,817.500946483,817.500946483,817.500946483,817.500946483,817.500946483,819.5188993379998,819.5188993379998,819.5188993379998,819.5188993379998,,,,,,,,,,,,,,,,,,,,,,,,,,,,,,08,007,2022-09-23_14h40.44.973,test2,2022.2.4,59.80640117688498,
0,0,0,0,128,0,128,0,819.5188993379998,819.5188993379998,819.5188993379998,819.5188993379998,819.5188993379998,819.5188993379998,819.5188993379998,1,1,rojo,1,['N_A'],821.1224956679998,821.1224956679998,821.1224956679998,821.1224956679998,823.1412089960013,823.1412089960013,823.1412089960013,823.1412089960013,823.1412089960013,823.1412089960013,823.1412089960013,823.1412089960013,825.1588633310002,825.1588633310002,825.1588633310002,825.1588633310002,,,,,,,,,,,,,,,,,,,,,,,,,,,,,,08,007,2022-09-23_14h40.44.973,test2,2022.2.4,59.80640117688498,
0,0,0,0,129,0,129,0,825.1588633310002,825.1588633310002,825.1588633310002,825.1588633310002,825.1588633310002,825.1588633310002,825.1588633310002,1,1,rojo,0,['N_B'],827.4943953800012,827.4943953800012,827.4943953800012,827.4943953800012,829.5145707629999,829.5145707629999,829.5145707629999,829.5145707629999,829.5145707629999,829.5145707629999,829.5145707629999,829.5145707629999,831.5336596649995,831.5336596649995,831.5336596649995,831.5336596649995,,,,,,,,,,,,,,,,,,,,,,,,,,,,,,08,007,2022-09-23_14h40.44.973,test2,2022.2.4,59.80640117688498,
0,0,0,0,130,0,130,0,831.5336596649995,831.5336596649995,831.5336596649995,831.5336596649995,831.5336596649995,831.5336596649995,831.5336596649995,1,1,azul,0,['N_A'],834.8693181159997,834.8693181159997,834.8693181159997,834.8693181159997,836.8892890360003,836.8892890360003,836.8892890360003,836.8892890360003,836.8892890360003,836.8892890360003,836.8892890360003,836.8892890360003,838.9070207320001,838.9070207320001,838.9070207320001,838.9070207320001,,,,,,,,,,,,,,,,,,,,,,,,,,,,,,08,007,2022-09-23_14h40.44.973,test2,2022.2.4,59.80640117688498,
0,0,0,0,131,0,131,0,838.9070207320001,838.9070207320001,838.9070207320001,838.9070207320001,838.9070207320001,838.9070207320001,838.9070207320001,-1,1,azul,0,['N_B'],841.0095925280002,841.0095925280002,841.0095925280002,841.0095925280002,843.0284194100004,843.0284194100004,843.0284194100004,843.0284194100004,843.0284194100004,843.0284194100004,843.0284194100004,843.0284194100004,845.0476693250002,845.0476693250002,845.0476693250002,845.0476693250002,,,,,,,,,,,,,,,,,,,,,,,,,,,,,,08,007,2022-09-23_14h40.44.973,test2,2022.2.4,59.80640117688498,
0,0,0,0,132,0,132,0,845.0476693250002,845.0476693250002,845.0476693250002,845.0476693250002,845.0476693250002,845.0476693250002,845.0476693250002,-1,-1,rojo,1,['N_B'],846.8992744879997,846.8992744879997,846.8992744879997,846.8992744879997,848.9189995710003,848.9189995710003,848.9189995710003,848.9189995710003,848.9189995710003,848.9189995710003,848.9189995710003,848.9189995710003,850.9378781020005,850.9378781020005,850.9378781020005,850.9378781020005,,,,,,,,,,,,,,,,,,,,,,,,,,,,,,08,007,2022-09-23_14h40.44.973,test2,2022.2.4,59.80640117688498,
0,0,0,0,133,0,133,0,850.9378781020005,850.9378781020005,850.9378781020005,850.9378781020005,850.9378781020005,850.9378781020005,850.9378781020005,-1,1,rojo,1,['N_B'],852.8725468720004,852.8725468720004,852.8725468720004,852.8725468720004,854.8918086009999,854.8918086009999,854.8918086009999,854.8918086009999,854.8918086009999,854.8918086009999,854.8918086009999,854.8918086009999,856.9101049399997,856.9101049399997,856.9101049399997,856.9101049399997,,,,,,,,,,,,,,,,,,,,,,,,,,,,,,08,007,2022-09-23_14h40.44.973,test2,2022.2.4,59.80640117688498,
0,0,0,0,134,0,134,0,856.9101049399997,856.9101049399997,856.9101049399997,856.9101049399997,856.9101049399997,856.9101049399997,856.9101049399997,-1,1,rojo,1,['N_B'],861.0483650019996,861.0483650019996,861.0483650019996,861.0483650019996,863.0680828830009,863.0680828830009,863.0680828830009,863.0680828830009,863.0680828830009,863.0680828830009,863.0680828830009,863.0680828830009,865.086225641,865.086225641,865.086225641,865.086225641,,,,,,,,,,,,,,,,,,,,,,,,,,,,,,08,007,2022-09-23_14h40.44.973,test2,2022.2.4,59.80640117688498,
0,0,0,0,135,0,135,0,865.086225641,865.086225641,865.086225641,865.086225641,865.086225641,865.086225641,865.086225641,1,1,azul,1,['N_B'],866.7378125209998,866.7378125209998,866.7378125209998,866.7378125209998,868.7583613770003,868.7583613770003,868.7583613770003,868.7583613770003,868.7583613770003,868.7583613770003,868.7583613770003,868.7583613770003,870.7755441970003,870.7755441970003,870.7755441970003,870.7755441970003,,,,,,,,,,,,,,,,,,,,,,,,,,,,,,08,007,2022-09-23_14h40.44.973,test2,2022.2.4,59.80640117688498,
0,0,0,0,136,0,136,0,870.7755441970003,870.7755441970003,870.7755441970003,870.7755441970003,870.7755441970003,870.7755441970003,870.7755441970003,1,1,azul,0,['N_A'],872.5445948300003,872.5445948300003,872.5445948300003,872.5445948300003,874.5634763580001,874.5634763580001,874.5634763580001,874.5634763580001,874.5634763580001,874.5634763580001,874.5634763580001,874.5634763580001,876.582460476,876.582460476,876.582460476,876.582460476,,,,,,,,,,,,,,,,,,,,,,,,,,,,,,08,007,2022-09-23_14h40.44.973,test2,2022.2.4,59.80640117688498,
0,0,0,0,137,0,137,0,876.582460476,876.582460476,876.582460476,876.582460476,876.582460476,876.582460476,876.582460476,1,-1,rojo,0,['N_B'],878.1515458890008,878.1515458890008,878.1515458890008,878.1515458890008,880.1698841630005,880.1698841630005,880.1698841630005,880.1698841630005,880.1698841630005,880.1698841630005,880.1698841630005,880.1698841630005,882.1881660590007,882.1881660590007,882.1881660590007,882.1881660590007,,,,,,,,,,,,,,,,,,,,,,,,,,,,,,08,007,2022-09-23_14h40.44.973,test2,2022.2.4,59.80640117688498,
0,0,0,0,138,0,138,0,882.1881660590007,882.1881660590007,882.1881660590007,882.1881660590007,882.1881660590007,882.1881660590007,882.1881660590007,1,1,azul,1,['N_B'],883.8904075749997,883.8904075749997,883.8904075749997,883.8904075749997,885.910323389,885.910323389,885.910323389,885.910323389,885.910323389,885.910323389,885.910323389,885.910323389,887.9286167179998,887.9286167179998,887.9286167179998,887.9286167179998,,,,,,,,,,,,,,,,,,,,,,,,,,,,,,08,007,2022-09-23_14h40.44.973,test2,2022.2.4,59.80640117688498,
0,0,0,0,139,0,139,0,887.9286167179998,887.9286167179998,887.9286167179998,887.9286167179998,887.9286167179998,887.9286167179998,887.9286167179998,1,1,azul,0,['N_A'],889.7132000519996,889.7132000519996,889.7132000519996,889.7132000519996,891.7325659819999,891.7325659819999,891.7325659819999,891.7325659819999,891.7325659819999,891.7325659819999,891.7325659819999,891.7325659819999,893.7518296899998,893.7518296899998,893.7518296899998,893.7518296899998,,,,,,,,,,,,,,,,,,,,,,,,,,,,,,08,007,2022-09-23_14h40.44.973,test2,2022.2.4,59.80640117688498,
0,0,0,0,140,0,140,0,893.7518296899998,893.7518296899998,893.7518296899998,893.7518296899998,893.7518296899998,893.7518296899998,893.7518296899998,1,-1,rojo,0,['N_B'],895.5708262469998,895.5708262469998,895.5708262469998,895.5708262469998,897.6058177779996,897.6058177779996,897.6058177779996,897.6058177779996,897.6058177779996,897.6058177779996,897.6058177779996,897.6058177779996,899.6249512819995,899.6249512819995,899.6249512819995,899.6249512819995,,,,,,,,,,,,,,,,,,,,,,,,,,,,,,08,007,2022-09-23_14h40.44.973,test2,2022.2.4,59.80640117688498,
0,0,0,0,141,0,141,0,899.6249512819995,899.6249512819995,899.6249512819995,899.6249512819995,899.6249512819995,899.6249512819995,899.6249512819995,-1,-1,rojo,0,['N_A'],901.4432213479995,901.4432213479995,901.4432213479995,901.4432213479995,903.4619005349996,903.4619005349996,903.4619005349996,903.4619005349996,903.4619005349996,903.4619005349996,903.4619005349996,903.4619005349996,905.4813774579998,905.4813774579998,905.4813774579998,905.4813774579998,,,,,,,,,,,,,,,,,,,,,,,,,,,,,,08,007,2022-09-23_14h40.44.973,test2,2022.2.4,59.80640117688498,
0,0,0,0,142,0,142,0,905.4813774579998,905.4813774579998,905.4813774579998,905.4813774579998,905.4813774579998,905.4813774579998,905.4813774579998,1,1,rojo,0,['N_B'],907.3665601030007,907.3665601030007,907.3665601030007,907.3665601030007,909.3865976670004,909.3865976670004,909.3865976670004,909.3865976670004,909.3865976670004,909.3865976670004,909.3865976670004,909.3865976670004,911.404308059,911.404308059,911.404308059,911.404308059,,,,,,,,,,,,,,,,,,,,,,,,,,,,,,08,007,2022-09-23_14h40.44.973,test2,2022.2.4,59.80640117688498,
0,0,0,0,143,0,143,0,911.404308059,911.404308059,911.404308059,911.404308059,911.404308059,911.404308059,911.404308059,1,1,azul,1,['N_B'],913.0223652860004,913.0223652860004,913.0223652860004,913.0223652860004,915.0418977310001,915.0418977310001,915.0418977310001,915.0418977310001,915.0418977310001,915.0418977310001,915.0418977310001,915.0418977310001,917.0597987790006,917.0597987790006,917.0597987790006,917.0597987790006,,,,,,,,,,,,,,,,,,,,,,,,,,,,,,08,007,2022-09-23_14h40.44.973,test2,2022.2.4,59.80640117688498,
0,0,0,0,144,0,144,0,917.0597987790006,917.0597987790006,917.0597987790006,917.0597987790006,917.0597987790006,917.0597987790006,917.0597987790006,1,1,azul,1,['N_B'],918.9790163500002,918.9790163500002,918.9790163500002,918.9790163500002,920.9984616479996,920.9984616479996,920.9984616479996,920.9984616479996,920.9984616479996,920.9984616479996,920.9984616479996,920.9984616479996,923.0342195120011,923.0342195120011,923.0342195120011,923.0342195120011,,,,,,,,,,,,,,,,,,,,,,,,,,,,,,08,007,2022-09-23_14h40.44.973,test2,2022.2.4,59.80640117688498,
0,0,0,0,145,0,145,0,923.0342195120011,923.0342195120011,923.0342195120011,923.0342195120011,923.0342195120011,923.0342195120011,923.0342195120011,1,-1,azul,0,['N_A'],925.3539751839999,925.3539751839999,925.3539751839999,925.3539751839999,927.3719866250012,927.3719866250012,927.3719866250012,927.3719866250012,927.3719866250012,927.3719866250012,927.3719866250012,927.3719866250012,929.3904370279997,929.3904370279997,929.3904370279997,929.3904370279997,,,,,,,,,,,,,,,,,,,,,,,,,,,,,,08,007,2022-09-23_14h40.44.973,test2,2022.2.4,59.80640117688498,
0,0,0,0,146,0,146,0,929.3904370279997,929.3904370279997,929.3904370279997,929.3904370279997,929.3904370279997,929.3904370279997,929.3904370279997,1,1,rojo,0,['N_B'],931.0430370920003,931.0430370920003,931.0430370920003,931.0430370920003,933.0610354609998,933.0610354609998,933.0610354609998,933.0610354609998,933.0610354609998,933.0610354609998,933.0610354609998,933.0610354609998,935.0799503199996,935.0799503199996,935.0799503199996,935.0799503199996,,,,,,,,,,,,,,,,,,,,,,,,,,,,,,08,007,2022-09-23_14h40.44.973,test2,2022.2.4,59.80640117688498,
0,0,0,0,147,0,147,0,935.0799503199996,935.0799503199996,935.0799503199996,935.0799503199996,935.0799503199996,935.0799503199996,935.0799503199996,1,-1,azul,1,['N_B'],937.0323522520011,937.0323522520011,937.0323522520011,937.0323522520011,939.0511424380002,939.0511424380002,939.0511424380002,939.0511424380002,939.0511424380002,939.0511424380002,939.0511424380002,939.0511424380002,941.0700925620004,941.0700925620004,941.0700925620004,941.0700925620004,,,,,,,,,,,,,,,,,,,,,,,,,,,,,,08,007,2022-09-23_14h40.44.973,test2,2022.2.4,59.80640117688498,
0,0,0,0,148,0,148,0,941.0700925620004,941.0700925620004,941.0700925620004,941.0700925620004,941.0700925620004,941.0700925620004,941.0700925620004,1,1,azul,1,['N_B'],942.9562124510012,942.9562124510012,942.9562124510012,942.9562124510012,944.9750284290003,944.9750284290003,944.9750284290003,944.9750284290003,944.9750284290003,944.9750284290003,944.9750284290003,944.9750284290003,946.9941007750003,946.9941007750003,946.9941007750003,946.9941007750003,,,,,,,,,,,,,,,,,,,,,,,,,,,,,,08,007,2022-09-23_14h40.44.973,test2,2022.2.4,59.80640117688498,
0,0,0,0,149,0,149,0,946.9941007750003,946.9941007750003,946.9941007750003,946.9941007750003,946.9941007750003,946.9941007750003,946.9941007750003,1,-1,azul,1,['N_B'],948.9284221270009,948.9284221270009,948.9284221270009,948.9284221270009,950.9647429670003,950.9647429670003,950.9647429670003,950.9647429670003,950.9647429670003,950.9647429670003,950.9647429670003,950.9647429670003,952.9832777909996,952.9832777909996,952.9832777909996,952.9832777909996,,,,,,,,,,,,,,,,,,,,,,,,,,,,,,08,007,2022-09-23_14h40.44.973,test2,2022.2.4,59.80640117688498,
0,0,0,0,150,0,150,0,952.9832777909996,952.9832777909996,952.9832777909996,952.9832777909996,952.9832777909996,952.9832777909996,952.9832777909996,-1,-1,rojo,1,['N_B'],954.6850744910007,954.6850744910007,954.6850744910007,954.6850744910007,956.7208552270004,956.7208552270004,956.7208552270004,956.7208552270004,956.7208552270004,956.7208552270004,956.7208552270004,956.7208552270004,958.7393527920012,958.7393527920012,958.7393527920012,958.7393527920012,,,,,,,,,,,,,,,,,,,,,,,,,,,,,,08,007,2022-09-23_14h40.44.973,test2,2022.2.4,59.80640117688498,
0,0,0,0,151,0,151,0,958.7393527920012,958.7393527920012,958.7393527920012,958.7393527920012,958.7393527920012,958.7393527920012,958.7393527920012,1,-1,azul,0,['N_A'],960.6924351810012,960.6924351810012,960.6924351810012,960.6924351810012,962.7102112060002,962.7102112060002,962.7102112060002,962.7102112060002,962.7102112060002,962.7102112060002,962.7102112060002,962.7102112060002,964.729669145001,964.729669145001,964.729669145001,964.729669145001,,,,,,,,,,,,,,,,,,,,,,,,,,,,,,08,007,2022-09-23_14h40.44.973,test2,2022.2.4,59.80640117688498,
0,0,0,0,152,0,152,0,964.729669145001,964.729669145001,964.729669145001,964.729669145001,964.729669145001,964.729669145001,964.729669145001,1,1,rojo,1,['N_A'],966.4987086140009,966.4987086140009,966.4987086140009,966.4987086140009,968.5165780770003,968.5165780770003,968.5165780770003,968.5165780770003,968.5165780770003,968.5165780770003,968.5165780770003,968.5165780770003,970.5362971989998,970.5362971989998,970.5362971989998,970.5362971989998,,,,,,,,,,,,,,,,,,,,,,,,,,,,,,08,007,2022-09-23_14h40.44.973,test2,2022.2.4,59.80640117688498,
0,0,0,0,153,0,153,0,970.5362971989998,970.5362971989998,970.5362971989998,970.5362971989998,970.5362971989998,970.5362971989998,970.5362971989998,1,-1,rojo,0,['N_B'],972.221215204001,972.221215204001,972.221215204001,972.221215204001,974.2575918929997,974.2575918929997,974.2575918929997,974.2575918929997,974.2575918929997,974.2575918929997,974.2575918929997,974.2575918929997,976.2762412659995,976.2762412659995,976.2762412659995,976.2762412659995,,,,,,,,,,,,,,,,,,,,,,,,,,,,,,08,007,2022-09-23_14h40.44.973,test2,2022.2.4,59.80640117688498,
0,0,0,0,154,0,154,0,976.2762412659995,976.2762412659995,976.2762412659995,976.2762412659995,976.2762412659995,976.2762412659995,976.2762412659995,1,1,azul,0,['N_A'],978.7115626369996,978.7115626369996,978.7115626369996,978.7115626369996,980.730264064001,980.730264064001,980.730264064001,980.730264064001,980.730264064001,980.730264064001,980.730264064001,980.730264064001,982.7499943120001,982.7499943120001,982.7499943120001,982.7499943120001,,,,,,,,,,,,,,,,,,,,,,,,,,,,,,08,007,2022-09-23_14h40.44.973,test2,2022.2.4,59.80640117688498,
0,0,0,0,155,0,155,0,982.7499943120001,982.7499943120001,982.7499943120001,982.7499943120001,982.7499943120001,982.7499943120001,982.7499943120001,-1,-1,azul,0,['N_B'],984.3678431509998,984.3678431509998,984.3678431509998,984.3678431509998,986.3865916150007,986.3865916150007,986.3865916150007,986.3865916150007,986.3865916150007,986.3865916150007,986.3865916150007,986.3865916150007,988.4057012110006,988.4057012110006,988.4057012110006,988.4057012110006,,,,,,,,,,,,,,,,,,,,,,,,,,,,,,08,007,2022-09-23_14h40.44.973,test2,2022.2.4,59.80640117688498,
0,0,0,0,156,0,156,0,988.4057012110006,988.4057012110006,988.4057012110006,988.4057012110006,988.4057012110006,988.4057012110006,988.4057012110006,1,1,azul,0,['N_A'],991.525758359001,991.525758359001,991.525758359001,991.525758359001,993.5454380660012,993.5454380660012,993.5454380660012,993.5454380660012,993.5454380660012,993.5454380660012,993.5454380660012,993.5454380660012,995.5636911820002,995.5636911820002,995.5636911820002,995.5636911820002,,,,,,,,,,,,,,,,,,,,,,,,,,,,,,08,007,2022-09-23_14h40.44.973,test2,2022.2.4,59.80640117688498,
0,0,0,0,157,0,157,0,995.5636911820002,995.5636911820002,995.5636911820002,995.5636911820002,995.5636911820002,995.5636911820002,995.5636911820002,1,-1,rojo,0,['N_B'],997.2986407549997,997.2986407549997,997.2986407549997,997.2986407549997,999.3346377300004,999.3346377300004,999.3346377300004,999.3346377300004,999.3346377300004,999.3346377300004,999.3346377300004,999.3346377300004,1001.3533084610008,1001.3533084610008,1001.3533084610008,1001.3533084610008,,,,,,,,,,,,,,,,,,,,,,,,,,,,,,08,007,2022-09-23_14h40.44.973,test2,2022.2.4,59.80640117688498,
0,0,0,0,158,0,158,0,1001.3533084610008,1001.3533084610008,1001.3533084610008,1001.3533084610008,1001.3533084610008,1001.3533084610008,1001.3533084610008,1,-1,azul,1,['N_B'],1003.8898397680005,1003.8898397680005,1003.8898397680005,1003.8898397680005,1005.9254731519995,1005.9254731519995,1005.9254731519995,1005.9254731519995,1005.9254731519995,1005.9254731519995,1005.9254731519995,1005.9254731519995,1007.9440918190012,1007.9440918190012,1007.9440918190012,1007.9440918190012,,,,,,,,,,,,,,,,,,,,,,,,,,,,,,08,007,2022-09-23_14h40.44.973,test2,2022.2.4,59.80640117688498,
0,0,0,0,159,0,159,0,1007.9440918190012,1007.9440918190012,1007.9440918190012,1007.9440918190012,1007.9440918190012,1007.9440918190012,1007.9440918190012,1,-1,azul,1,['N_B'],1009.8133289280013,1009.8133289280013,1009.8133289280013,1009.8133289280013,1011.8310435550011,1011.8310435550011,1011.8310435550011,1011.8310435550011,1011.8310435550011,1011.8310435550011,1011.8310435550011,1011.8310435550011,1013.8506864810006,1013.8506864810006,1013.8506864810006,1013.8506864810006,,,,,,,,,,,,,,,,,,,,,,,,,,,,,,08,007,2022-09-23_14h40.44.973,test2,2022.2.4,59.80640117688498,
0,0,0,0,160,0,160,0,1013.8506864810006,1013.8506864810006,1013.8506864810006,1013.8506864810006,1013.8506864810006,1013.8506864810006,1013.8506864810006,1,1,azul,1,['N_B'],1015.4360640089999,1015.4360640089999,1015.4360640089999,1015.4360640089999,1017.4538290990004,1017.4538290990004,1017.4538290990004,1017.4538290990004,1017.4538290990004,1017.4538290990004,1017.4538290990004,1017.4538290990004,1019.4743494249997,1019.4743494249997,1019.4743494249997,1019.4743494249997,,,,,,,,,,,,,,,,,,,,,,,,,,,,,,08,007,2022-09-23_14h40.44.973,test2,2022.2.4,59.80640117688498,
0,0,0,0,161,0,161,0,1019.4743494249997,1019.4743494249997,1019.4743494249997,1019.4743494249997,1019.4743494249997,1019.4743494249997,1019.4743494249997,-1,-1,rojo,1,['N_B'],1022.3438564290009,1022.3438564290009,1022.3438564290009,1022.3438564290009,1024.379337122,1024.379337122,1024.379337122,1024.379337122,1024.379337122,1024.379337122,1024.379337122,1024.379337122,1026.3980624590004,1026.3980624590004,1026.3980624590004,1026.3980624590004,,,,,,,,,,,,,,,,,,,,,,,,,,,,,,08,007,2022-09-23_14h40.44.973,test2,2022.2.4,59.80640117688498,
0,0,0,0,162,0,162,0,1026.3980624590004,1026.3980624590004,1026.3980624590004,1026.3980624590004,1026.3980624590004,1026.3980624590004,1026.3980624590004,1,-1,azul,0,['N_A'],1029.5856077450007,1029.5856077450007,1029.5856077450007,1029.5856077450007,1031.6036910950006,1031.6036910950006,1031.6036910950006,1031.6036910950006,1031.6036910950006,1031.6036910950006,1031.6036910950006,1031.6036910950006,1033.6223651199998,1033.6223651199998,1033.6223651199998,1033.6223651199998,,,,,,,,,,,,,,,,,,,,,,,,,,,,,,08,007,2022-09-23_14h40.44.973,test2,2022.2.4,59.80640117688498,
0,0,0,0,163,0,163,0,1033.6223651199998,1033.6223651199998,1033.6223651199998,1033.6223651199998,1033.6223651199998,1033.6223651199998,1033.6223651199998,-1,1,azul,0,['N_B'],1035.4239556890006,1035.4239556890006,1035.4239556890006,1035.4239556890006,1037.442842802,1037.442842802,1037.442842802,1037.442842802,1037.442842802,1037.442842802,1037.442842802,1037.442842802,1039.461599317001,1039.461599317001,1039.461599317001,1039.461599317001,,,,,,,,,,,,,,,,,,,,,,,,,,,,,,08,007,2022-09-23_14h40.44.973,test2,2022.2.4,59.80640117688498,
0,0,0,0,164,0,164,0,1039.461599317001,1039.461599317001,1039.461599317001,1039.461599317001,1039.461599317001,1039.461599317001,1039.461599317001,1,-1,azul,0,['N_A'],1041.4977788690012,1041.4977788690012,1041.4977788690012,1041.4977788690012,1043.533760878001,1043.533760878001,1043.533760878001,1043.533760878001,1043.533760878001,1043.533760878001,1043.533760878001,1043.533760878001,1045.5525843630003,1045.5525843630003,1045.5525843630003,1045.5525843630003,,,,,,,,,,,,,,,,,,,,,,,,,,,,,,08,007,2022-09-23_14h40.44.973,test2,2022.2.4,59.80640117688498,
0,0,0,0,165,0,165,0,1045.5525843630003,1045.5525843630003,1045.5525843630003,1045.5525843630003,1045.5525843630003,1045.5525843630003,1045.5525843630003,1,-1,rojo,0,['N_B'],1048.7727633880004,1048.7727633880004,1048.7727633880004,1048.7727633880004,1050.790897801,1050.790897801,1050.790897801,1050.790897801,1050.790897801,1050.790897801,1050.790897801,1050.790897801,1052.8107208790007,1052.8107208790007,1052.8107208790007,1052.8107208790007,,,,,,,,,,,,,,,,,,,,,,,,,,,,,,08,007,2022-09-23_14h40.44.973,test2,2022.2.4,59.80640117688498,
0,0,0,0,166,0,166,0,1052.8107208790007,1052.8107208790007,1052.8107208790007,1052.8107208790007,1052.8107208790007,1052.8107208790007,1052.8107208790007,-1,1,rojo,0,['N_A'],1054.829515274001,1054.829515274001,1054.829515274001,1054.829515274001,1056.8484982500013,1056.8484982500013,1056.8484982500013,1056.8484982500013,1056.8484982500013,1056.8484982500013,1056.8484982500013,1056.8484982500013,1058.8663523710002,1058.8663523710002,1058.8663523710002,1058.8663523710002,,,,,,,,,,,,,,,,,,,,,,,,,,,,,,08,007,2022-09-23_14h40.44.973,test2,2022.2.4,59.80640117688498,
0,0,0,0,167,0,167,0,1058.8663523710002,1058.8663523710002,1058.8663523710002,1058.8663523710002,1058.8663523710002,1058.8663523710002,1058.8663523710002,1,1,rojo,1,['N_A'],1064.206511196,1064.206511196,1064.206511196,1064.206511196,1066.2253399149995,1066.2253399149995,1066.2253399149995,1066.2253399149995,1066.2253399149995,1066.2253399149995,1066.2253399149995,1066.2253399149995,1068.2438974470006,1068.2438974470006,1068.2438974470006,1068.2438974470006,,,,,,,,,,,,,,,,,,,,,,,,,,,,,,08,007,2022-09-23_14h40.44.973,test2,2022.2.4,59.80640117688498,
0,0,0,0,168,0,168,0,1068.2438974470006,1068.2438974470006,1068.2438974470006,1068.2438974470006,1068.2438974470006,1068.2438974470006,1068.2438974470006,1,-1,rojo,0,['N_B'],1070.1123950950005,1070.1123950950005,1070.1123950950005,1070.1123950950005,1072.1308760280008,1072.1308760280008,1072.1308760280008,1072.1308760280008,1072.1308760280008,1072.1308760280008,1072.1308760280008,1072.1308760280008,1074.1502196270012,1074.1502196270012,1074.1502196270012,1074.1502196270012,,,,,,,,,,,,,,,,,,,,,,,,,,,,,,08,007,2022-09-23_14h40.44.973,test2,2022.2.4,59.80640117688498,
0,0,0,0,169,0,169,0,1074.1502196270012,1074.1502196270012,1074.1502196270012,1074.1502196270012,1074.1502196270012,1074.1502196270012,1074.1502196270012,1,1,azul,0,['N_A'],1077.2209526589995,1077.2209526589995,1077.2209526589995,1077.2209526589995,1079.2400758200001,1079.2400758200001,1079.2400758200001,1079.2400758200001,1079.2400758200001,1079.2400758200001,1079.2400758200001,1079.2400758200001,1081.258634238,1081.258634238,1081.258634238,1081.258634238,,,,,,,,,,,,,,,,,,,,,,,,,,,,,,08,007,2022-09-23_14h40.44.973,test2,2022.2.4,59.80640117688498,
0,0,0,0,170,0,170,0,1081.258634238,1081.258634238,1081.258634238,1081.258634238,1081.258634238,1081.258634238,1081.258634238,1,1,rojo,0,['N_B'],1083.9445518049997,1083.9445518049997,1083.9445518049997,1083.9445518049997,1085.964475005001,1085.964475005001,1085.964475005001,1085.964475005001,1085.964475005001,1085.964475005001,1085.964475005001,1085.964475005001,1087.9826979730005,1087.9826979730005,1087.9826979730005,1087.9826979730005,,,,,,,,,,,,,,,,,,,,,,,,,,,,,,08,007,2022-09-23_14h40.44.973,test2,2022.2.4,59.80640117688498,
0,0,0,0,171,0,171,0,1087.9826979730005,1087.9826979730005,1087.9826979730005,1087.9826979730005,1087.9826979730005,1087.9826979730005,1087.9826979730005,1,1,azul,0,['N_A'],1090.2345221169999,1090.2345221169999,1090.2345221169999,1090.2345221169999,1092.2538015660011,1092.2538015660011,1092.2538015660011,1092.2538015660011,1092.2538015660011,1092.2538015660011,1092.2538015660011,1092.2538015660011,1094.2725509209995,1094.2725509209995,1094.2725509209995,1094.2725509209995,,,,,,,,,,,,,,,,,,,,,,,,,,,,,,08,007,2022-09-23_14h40.44.973,test2,2022.2.4,59.80640117688498,
0,0,0,0,172,0,172,0,1094.2725509209995,1094.2725509209995,1094.2725509209995,1094.2725509209995,1094.2725509209995,1094.2725509209995,1094.2725509209995,1,-1,rojo,0,['N_B'],1095.7911628870006,1095.7911628870006,1095.7911628870006,1095.7911628870006,1097.8268165050013,1097.8268165050013,1097.8268165050013,1097.8268165050013,1097.8268165050013,1097.8268165050013,1097.8268165050013,1097.8268165050013,1099.8457182639995,1099.8457182639995,1099.8457182639995,1099.8457182639995,,,,,,,,,,,,,,,,,,,,,,,,,,,,,,08,007,2022-09-23_14h40.44.973,test2,2022.2.4,59.80640117688498,
0,0,0,0,173,0,173,0,1099.8457182639995,1099.8457182639995,1099.8457182639995,1099.8457182639995,1099.8457182639995,1099.8457182639995,1099.8457182639995,1,-1,azul,0,['N_A'],1101.2966560590012,1101.2966560590012,1101.2966560590012,1101.2966560590012,1103.333794409,1103.333794409,1103.333794409,1103.333794409,1103.333794409,1103.333794409,1103.333794409,1103.333794409,1105.351976371001,1105.351976371001,1105.351976371001,1105.351976371001,,,,,,,,,,,,,,,,,,,,,,,,,,,,,,08,007,2022-09-23_14h40.44.973,test2,2022.2.4,59.80640117688498,
0,0,0,0,174,0,174,0,1105.351976371001,1105.351976371001,1105.351976371001,1105.351976371001,1105.351976371001,1105.351976371001,1105.351976371001,1,-1,rojo,0,['N_B'],1107.1204832050007,1107.1204832050007,1107.1204832050007,1107.1204832050007,1109.156780233001,1109.156780233001,1109.156780233001,1109.156780233001,1109.156780233001,1109.156780233001,1109.156780233001,1109.156780233001,1111.174449817001,1111.174449817001,1111.174449817001,1111.174449817001,,,,,,,,,,,,,,,,,,,,,,,,,,,,,,08,007,2022-09-23_14h40.44.973,test2,2022.2.4,59.80640117688498,
0,0,0,0,175,0,175,0,1111.174449817001,1111.174449817001,1111.174449817001,1111.174449817001,1111.174449817001,1111.174449817001,1111.174449817001,-1,-1,rojo,0,['N_A'],1113.0105254629998,1113.0105254629998,1113.0105254629998,1113.0105254629998,1115.0462721160002,1115.0462721160002,1115.0462721160002,1115.0462721160002,1115.0462721160002,1115.0462721160002,1115.0462721160002,1115.0462721160002,1117.0639361450012,1117.0639361450012,1117.0639361450012,1117.0639361450012,,,,,,,,,,,,,,,,,,,,,,,,,,,,,,08,007,2022-09-23_14h40.44.973,test2,2022.2.4,59.80640117688498,
0,0,0,0,176,0,176,0,1117.0639361450012,1117.0639361450012,1117.0639361450012,1117.0639361450012,1117.0639361450012,1117.0639361450012,1117.0639361450012,1,-1,rojo,0,['N_B'],1118.9336328950012,1118.9336328950012,1118.9336328950012,1118.9336328950012,1120.9520361220002,1120.9520361220002,1120.9520361220002,1120.9520361220002,1120.9520361220002,1120.9520361220002,1120.9520361220002,1120.9520361220002,1122.970988387,1122.970988387,1122.970988387,1122.970988387,,,,,,,,,,,,,,,,,,,,,,,,,,,,,,08,007,2022-09-23_14h40.44.973,test2,2022.2.4,59.80640117688498,
0,0,0,0,177,0,177,0,1122.970988387,1122.970988387,1122.970988387,1122.970988387,1122.970988387,1122.970988387,1122.970988387,1,1,azul,1,['N_B'],1124.7224026679996,1124.7224026679996,1124.7224026679996,1124.7224026679996,1126.742345834,1126.742345834,1126.742345834,1126.742345834,1126.742345834,1126.742345834,1126.742345834,1126.742345834,1128.7600322470007,1128.7600322470007,1128.7600322470007,1128.7600322470007,,,,,,,,,,,,,,,,,,,,,,,,,,,,,,08,007,2022-09-23_14h40.44.973,test2,2022.2.4,59.80640117688498,
0,0,0,0,178,0,178,0,1128.7600322470007,1128.7600322470007,1128.7600322470007,1128.7600322470007,1128.7600322470007,1128.7600322470007,1128.7600322470007,1,-1,azul,0,['N_A'],1131.0637577350008,1131.0637577350008,1131.0637577350008,1131.0637577350008,1133.1000818370012,1133.1000818370012,1133.1000818370012,1133.1000818370012,1133.1000818370012,1133.1000818370012,1133.1000818370012,1133.1000818370012,1135.1177227420012,1135.1177227420012,1135.1177227420012,1135.1177227420012,,,,,,,,,,,,,,,,,,,,,,,,,,,,,,08,007,2022-09-23_14h40.44.973,test2,2022.2.4,59.80640117688498,
0,0,0,0,179,0,179,0,1135.1177227420012,1135.1177227420012,1135.1177227420012,1135.1177227420012,1135.1177227420012,1135.1177227420012,1135.1177227420012,1,-1,rojo,0,['N_B'],1136.9023942390013,1136.9023942390013,1136.9023942390013,1136.9023942390013,1138.9397520519997,1138.9397520519997,1138.9397520519997,1138.9397520519997,1138.9397520519997,1138.9397520519997,1138.9397520519997,1138.9397520519997,1140.9577392539995,1140.9577392539995,1140.9577392539995,1140.9577392539995,,,,,,,,,,,,,,,,,,,,,,,,,,,,,,08,007,2022-09-23_14h40.44.973,test2,2022.2.4,59.80640117688498,
