trials_2.thisRepN,trials_2.thisTrialN,trials_2.thisN,trials_2.thisIndex,trials.thisRepN,trials.thisTrialN,trials.thisN,trials.thisIndex,Instrucción2.started,N_A_4.started,N_B_4.started,Exitos_3.started,Dias_3.started,Stimuli_1.started,Stimuli_2.started,Transitions,Rewards,Mode,Stay,Neighbour,Stimuli_3.started,Modo.started,Dias2.started,Exitos2.started,Stimuli_3.stopped,Modo.stopped,Dias2.stopped,Exitos2.stopped,Reward.started,Stimuli_reward.started,Exitos3.started,Dias3.started,Reward.stopped,Stimuli_reward.stopped,Exitos3.stopped,Dias3.stopped,Cue_text.started,Stimuli_4.started,Exitos4.started,Dias4.started,Stimuli_3_3.started,Stimuli_2_3.started,Instrucción.started,N_A.started,N_B.started,N_C.started,Exitos_2.started,Dias_2.started,Stimuli_1_3.started,Stimuli_3_2.started,Stimuli_2_2.started,Pregunta.started,N_A_2.started,N_B_2.started,N_C_2.started,Exitos5.started,Dias5.started,Stimuli_1_2.started,Resp_final_1,Modo2.started,Modo1.started,Pregunta_4.started,Modo3.started,Exitos7.started,Dias6.started,Resp_final_2,Modo1_2.started,Pregunta_3.started,Modo2_2.started,Exitos8.started,Dias7.started,Resp_final_3,Mensaje_Final2.started,Exitos6.started,participant,session,date,expName,psychopyVersion,frameRate,
0,0,0,0,0,0,0,0,1118.452581595,1118.452581595,1118.452581595,1118.452581595,1118.452581595,1118.452581595,1118.452581595,0,0,0,0,['N_A'],1131.46534213,1131.46534213,1131.46534213,1131.46534213,1133.533994195,1133.533994195,1133.533994195,1133.533994195,1133.533994195,1133.533994195,1133.533994195,1133.533994195,1135.57031811,1135.57031811,1135.57031811,1135.57031811,,,,,,,,,,,,,,,,,,,,,,,,,,,,,,,,,,,,,,,08,005,2022-09-23_10h28.56.744,test2,2022.2.4,59.8944893883693,
0,0,0,0,1,0,1,0,1135.57031811,1135.57031811,1135.57031811,1135.57031811,1135.57031811,1135.57031811,1135.57031811,1,-1,rojo,0,['N_B'],1141.292441226,1141.292441226,1141.292441226,1141.292441226,1143.328693638,1143.328693638,1143.328693638,1143.328693638,1143.328693638,1143.328693638,1143.328693638,1143.328693638,1145.365014758,1145.365014758,1145.365014758,1145.365014758,,,,,,,,,,,,,,,,,,,,,,,,,,,,,,,,,,,,,,,08,005,2022-09-23_10h28.56.744,test2,2022.2.4,59.8944893883693,
0,0,0,0,2,0,2,0,1145.365014758,1145.365014758,1145.365014758,1145.365014758,1145.365014758,1145.365014758,1145.365014758,-1,-1,rojo,1,['N_B'],1149.4355934339999,1149.4355934339999,1149.4355934339999,1149.4355934339999,1151.471124555,1151.471124555,1151.471124555,1151.471124555,1151.471124555,1151.471124555,1151.471124555,1151.471124555,1153.506352512,1153.506352512,1153.506352512,1153.506352512,,,,,,,,,,,,,,,,,,,,,,,,,,,,,,,,,,,,,,,08,005,2022-09-23_10h28.56.744,test2,2022.2.4,59.8944893883693,
0,0,0,0,3,0,3,0,1153.506352512,1153.506352512,1153.506352512,1153.506352512,1153.506352512,1153.506352512,1153.506352512,1,-1,azul,0,['N_A'],1155.325192689,1155.325192689,1155.325192689,1155.325192689,1157.361546953,1157.361546953,1157.361546953,1157.361546953,1157.361546953,1157.361546953,1157.361546953,1157.361546953,1159.396985665,1159.396985665,1159.396985665,1159.396985665,,,,,,,,,,,,,,,,,,,,,,,,,,,,,,,,,,,,,,,08,005,2022-09-23_10h28.56.744,test2,2022.2.4,59.8944893883693,
0,0,0,0,4,0,4,0,1159.396985665,1159.396985665,1159.396985665,1159.396985665,1159.396985665,1159.396985665,1159.396985665,-1,-1,azul,1,['N_A'],1161.215424476,1161.215424476,1161.215424476,1161.215424476,1163.283583861,1163.283583861,1163.283583861,1163.283583861,1163.283583861,1163.283583861,1163.283583861,1163.283583861,1165.320102444,1165.320102444,1165.320102444,1165.320102444,,,,,,,,,,,,,,,,,,,,,,,,,,,,,,,,,,,,,,,08,005,2022-09-23_10h28.56.744,test2,2022.2.4,59.8944893883693,
0,0,0,0,5,0,5,0,1165.320102444,1165.320102444,1165.320102444,1165.320102444,1165.320102444,1165.320102444,1165.320102444,-1,1,azul,1,['N_A'],1170.674707603,1170.674707603,1170.674707603,1170.674707603,1172.693983829,1172.693983829,1172.693983829,1172.693983829,1172.693983829,1172.693983829,1172.693983829,1172.693983829,1174.730324135,1174.730324135,1174.730324135,1174.730324135,,,,,,,,,,,,,,,,,,,,,,,,,,,,,,,,,,,,,,,08,005,2022-09-23_10h28.56.744,test2,2022.2.4,59.8944893883693,
0,0,0,0,6,0,6,0,1174.730324135,1174.730324135,1174.730324135,1174.730324135,1174.730324135,1174.730324135,1174.730324135,-1,-1,azul,0,['N_B'],1177.817026929,1177.817026929,1177.817026929,1177.817026929,1179.835565709,1179.835565709,1179.835565709,1179.835565709,1179.835565709,1179.835565709,1179.835565709,1179.835565709,1181.871545119,1181.871545119,1181.871545119,1181.871545119,,,,,,,,,,,,,,,,,,,,,,,,,,,,,,,,,,,,,,,08,005,2022-09-23_10h28.56.744,test2,2022.2.4,59.8944893883693,
0,0,0,0,7,0,7,0,1181.871545119,1181.871545119,1181.871545119,1181.871545119,1181.871545119,1181.871545119,1181.871545119,1,1,azul,1,['N_B'],1185.825107298,1185.825107298,1185.825107298,1185.825107298,1187.844093036,1187.844093036,1187.844093036,1187.844093036,1187.844093036,1187.844093036,1187.844093036,1187.844093036,1189.880703655,1189.880703655,1189.880703655,1189.880703655,,,,,,,,,,,,,,,,,,,,,,,,,,,,,,,,,,,,,,,08,005,2022-09-23_10h28.56.744,test2,2022.2.4,59.8944893883693,
0,0,0,0,8,0,8,0,1189.880703655,1189.880703655,1189.880703655,1189.880703655,1189.880703655,1189.880703655,1189.880703655,-1,1,rojo,1,['N_B'],1191.931388139,1191.931388139,1191.931388139,1191.931388139,1193.951266964,1193.951266964,1193.951266964,1193.951266964,1193.951266964,1193.951266964,1193.951266964,1193.951266964,1195.969242529,1195.969242529,1195.969242529,1195.969242529,,,,,,,,,,,,,,,,,,,,,,,,,,,,,,,,,,,,,,,08,005,2022-09-23_10h28.56.744,test2,2022.2.4,59.8944893883693,
0,0,0,0,9,0,9,0,1195.969242529,1195.969242529,1195.969242529,1195.969242529,1195.969242529,1195.969242529,1195.969242529,1,1,azul,1,['N_B'],1198.2888972389999,1198.2888972389999,1198.2888972389999,1198.2888972389999,1200.308014107,1200.308014107,1200.308014107,1200.308014107,1200.308014107,1200.308014107,1200.308014107,1200.308014107,1202.3267669479999,1202.3267669479999,1202.3267669479999,1202.3267669479999,,,,,,,,,,,,,,,,,,,,,,,,,,,,,,,,,,,,,,,08,005,2022-09-23_10h28.56.744,test2,2022.2.4,59.8944893883693,
0,0,0,0,10,0,10,0,1202.3267669479999,1202.3267669479999,1202.3267669479999,1202.3267669479999,1202.3267669479999,1202.3267669479999,1202.3267669479999,1,-1,azul,0,['N_A'],1204.596338442,1204.596338442,1204.596338442,1204.596338442,1206.632347657,1206.632347657,1206.632347657,1206.632347657,1206.632347657,1206.632347657,1206.632347657,1206.632347657,1208.6508997469998,1208.6508997469998,1208.6508997469998,1208.6508997469998,,,,,,,,,,,,,,,,,,,,,,,,,,,,,,,,,,,,,,,08,005,2022-09-23_10h28.56.744,test2,2022.2.4,59.8944893883693,
0,0,0,0,11,0,11,0,1208.6508997469998,1208.6508997469998,1208.6508997469998,1208.6508997469998,1208.6508997469998,1208.6508997469998,1208.6508997469998,1,-1,rojo,1,['N_A'],1212.8046512570002,1212.8046512570002,1212.8046512570002,1212.8046512570002,1214.823739361,1214.823739361,1214.823739361,1214.823739361,1214.823739361,1214.823739361,1214.823739361,1214.823739361,1216.84311421,1216.84311421,1216.84311421,1216.84311421,,,,,,,,,,,,,,,,,,,,,,,,,,,,,,,,,,,,,,,08,005,2022-09-23_10h28.56.744,test2,2022.2.4,59.8944893883693,
0,0,0,0,12,0,12,0,1216.84311421,1216.84311421,1216.84311421,1216.84311421,1216.84311421,1216.84311421,1216.84311421,1,1,rojo,1,['N_A'],1221.03085343,1221.03085343,1221.03085343,1221.03085343,1223.0499155260002,1223.0499155260002,1223.0499155260002,1223.0499155260002,1223.0499155260002,1223.0499155260002,1223.0499155260002,1223.0499155260002,1225.068580974,1225.068580974,1225.068580974,1225.068580974,,,,,,,,,,,,,,,,,,,,,,,,,,,,,,,,,,,,,,,08,005,2022-09-23_10h28.56.744,test2,2022.2.4,59.8944893883693,
0,0,0,0,13,0,13,0,1225.068580974,1225.068580974,1225.068580974,1225.068580974,1225.068580974,1225.068580974,1225.068580974,-1,-1,azul,1,['N_A'],1228.8892694180001,1228.8892694180001,1228.8892694180001,1228.8892694180001,1230.908537436,1230.908537436,1230.908537436,1230.908537436,1230.908537436,1230.908537436,1230.908537436,1230.908537436,1232.9266916509998,1232.9266916509998,1232.9266916509998,1232.9266916509998,,,,,,,,,,,,,,,,,,,,,,,,,,,,,,,,,,,,,,,08,005,2022-09-23_10h28.56.744,test2,2022.2.4,59.8944893883693,
0,0,0,0,14,0,14,0,1232.9266916509998,1232.9266916509998,1232.9266916509998,1232.9266916509998,1232.9266916509998,1232.9266916509998,1232.9266916509998,-1,1,azul,1,['N_A'],1234.7294206029999,1234.7294206029999,1234.7294206029999,1234.7294206029999,1236.748297938,1236.748297938,1236.748297938,1236.748297938,1236.748297938,1236.748297938,1236.748297938,1236.748297938,1238.7669194460002,1238.7669194460002,1238.7669194460002,1238.7669194460002,,,,,,,,,,,,,,,,,,,,,,,,,,,,,,,,,,,,,,,08,005,2022-09-23_10h28.56.744,test2,2022.2.4,59.8944893883693,
0,0,0,0,15,0,15,0,1238.7669194460002,1238.7669194460002,1238.7669194460002,1238.7669194460002,1238.7669194460002,1238.7669194460002,1238.7669194460002,1,1,rojo,1,['N_A'],1240.419069848,1240.419069848,1240.419069848,1240.419069848,1242.4386523699998,1242.4386523699998,1242.4386523699998,1242.4386523699998,1242.4386523699998,1242.4386523699998,1242.4386523699998,1242.4386523699998,1244.4560784550001,1244.4560784550001,1244.4560784550001,1244.4560784550001,,,,,,,,,,,,,,,,,,,,,,,,,,,,,,,,,,,,,,,08,005,2022-09-23_10h28.56.744,test2,2022.2.4,59.8944893883693,
0,0,0,0,16,0,16,0,1244.4560784550001,1244.4560784550001,1244.4560784550001,1244.4560784550001,1244.4560784550001,1244.4560784550001,1244.4560784550001,1,1,rojo,1,['N_A'],1246.491519347,1246.491519347,1246.491519347,1246.491519347,1248.5116194230002,1248.5116194230002,1248.5116194230002,1248.5116194230002,1248.5116194230002,1248.5116194230002,1248.5116194230002,1248.5116194230002,1250.529663824,1250.529663824,1250.529663824,1250.529663824,,,,,,,,,,,,,,,,,,,,,,,,,,,,,,,,,,,,,,,08,005,2022-09-23_10h28.56.744,test2,2022.2.4,59.8944893883693,
0,0,0,0,17,0,17,0,1250.529663824,1250.529663824,1250.529663824,1250.529663824,1250.529663824,1250.529663824,1250.529663824,1,1,rojo,1,['N_A'],1252.0317794700002,1252.0317794700002,1252.0317794700002,1252.0317794700002,1254.050984459,1254.050984459,1254.050984459,1254.050984459,1254.050984459,1254.050984459,1254.050984459,1254.050984459,1256.0687890739998,1256.0687890739998,1256.0687890739998,1256.0687890739998,,,,,,,,,,,,,,,,,,,,,,,,,,,,,,,,,,,,,,,08,005,2022-09-23_10h28.56.744,test2,2022.2.4,59.8944893883693,
0,0,0,0,18,0,18,0,1256.0687890739998,1256.0687890739998,1256.0687890739998,1256.0687890739998,1256.0687890739998,1256.0687890739998,1256.0687890739998,1,1,rojo,1,['N_A'],1258.171345246,1258.171345246,1258.171345246,1258.171345246,1260.1918244619999,1260.1918244619999,1260.1918244619999,1260.1918244619999,1260.1918244619999,1260.1918244619999,1260.1918244619999,1260.1918244619999,1262.2099125460002,1262.2099125460002,1262.2099125460002,1262.2099125460002,,,,,,,,,,,,,,,,,,,,,,,,,,,,,,,,,,,,,,,08,005,2022-09-23_10h28.56.744,test2,2022.2.4,59.8944893883693,
0,0,0,0,19,0,19,0,1262.2099125460002,1262.2099125460002,1262.2099125460002,1262.2099125460002,1262.2099125460002,1262.2099125460002,1262.2099125460002,-1,1,azul,1,['N_A'],1265.5628844139999,1265.5628844139999,1265.5628844139999,1265.5628844139999,1267.581464524,1267.581464524,1267.581464524,1267.581464524,1267.581464524,1267.581464524,1267.581464524,1267.581464524,1269.601167098,1269.601167098,1269.601167098,1269.601167098,,,,,,,,,,,,,,,,,,,,,,,,,,,,,,,,,,,,,,,08,005,2022-09-23_10h28.56.744,test2,2022.2.4,59.8944893883693,
0,0,0,0,20,0,20,0,1269.601167098,1269.601167098,1269.601167098,1269.601167098,1269.601167098,1269.601167098,1269.601167098,-1,-1,azul,1,['N_A'],1271.0032905700002,1271.0032905700002,1271.0032905700002,1271.0032905700002,1273.0207295449998,1273.0207295449998,1273.0207295449998,1273.0207295449998,1273.0207295449998,1273.0207295449998,1273.0207295449998,1273.0207295449998,1275.0396952939998,1275.0396952939998,1275.0396952939998,1275.0396952939998,,,,,,,,,,,,,,,,,,,,,,,,,,,,,,,,,,,,,,,08,005,2022-09-23_10h28.56.744,test2,2022.2.4,59.8944893883693,
0,0,0,0,21,0,21,0,1275.0396952939998,1275.0396952939998,1275.0396952939998,1275.0396952939998,1275.0396952939998,1275.0396952939998,1275.0396952939998,1,1,rojo,1,['N_A'],1276.4423796869999,1276.4423796869999,1276.4423796869999,1276.4423796869999,1278.4615309090002,1278.4615309090002,1278.4615309090002,1278.4615309090002,1278.4615309090002,1278.4615309090002,1278.4615309090002,1278.4615309090002,1280.4795556790002,1280.4795556790002,1280.4795556790002,1280.4795556790002,,,,,,,,,,,,,,,,,,,,,,,,,,,,,,,,,,,,,,,08,005,2022-09-23_10h28.56.744,test2,2022.2.4,59.8944893883693,
0,0,0,0,22,0,22,0,1280.4795556790002,1280.4795556790002,1280.4795556790002,1280.4795556790002,1280.4795556790002,1280.4795556790002,1280.4795556790002,1,1,rojo,1,['N_A'],1282.464816636,1282.464816636,1282.464816636,1282.464816636,1284.484470313,1284.484470313,1284.484470313,1284.484470313,1284.484470313,1284.484470313,1284.484470313,1284.484470313,1286.5031648850002,1286.5031648850002,1286.5031648850002,1286.5031648850002,,,,,,,,,,,,,,,,,,,,,,,,,,,,,,,,,,,,,,,08,005,2022-09-23_10h28.56.744,test2,2022.2.4,59.8944893883693,
0,0,0,0,23,0,23,0,1286.5031648850002,1286.5031648850002,1286.5031648850002,1286.5031648850002,1286.5031648850002,1286.5031648850002,1286.5031648850002,-1,-1,azul,1,['N_A'],1288.939240165,1288.939240165,1288.939240165,1288.939240165,1290.95776658,1290.95776658,1290.95776658,1290.95776658,1290.95776658,1290.95776658,1290.95776658,1290.95776658,1292.976752195,1292.976752195,1292.976752195,1292.976752195,,,,,,,,,,,,,,,,,,,,,,,,,,,,,,,,,,,,,,,08,005,2022-09-23_10h28.56.744,test2,2022.2.4,59.8944893883693,
0,0,0,0,24,0,24,0,1292.976752195,1292.976752195,1292.976752195,1292.976752195,1292.976752195,1292.976752195,1292.976752195,1,1,rojo,1,['N_A'],1295.0288801220001,1295.0288801220001,1295.0288801220001,1295.0288801220001,1297.0478295750002,1297.0478295750002,1297.0478295750002,1297.0478295750002,1297.0478295750002,1297.0478295750002,1297.0478295750002,1297.0478295750002,1299.0667663430002,1299.0667663430002,1299.0667663430002,1299.0667663430002,,,,,,,,,,,,,,,,,,,,,,,,,,,,,,,,,,,,,,,08,005,2022-09-23_10h28.56.744,test2,2022.2.4,59.8944893883693,
0,0,0,0,25,0,25,0,1299.0667663430002,1299.0667663430002,1299.0667663430002,1299.0667663430002,1299.0667663430002,1299.0667663430002,1299.0667663430002,-1,-1,azul,1,['N_A'],1301.018481109,1301.018481109,1301.018481109,1301.018481109,1303.0374042380001,1303.0374042380001,1303.0374042380001,1303.0374042380001,1303.0374042380001,1303.0374042380001,1303.0374042380001,1303.0374042380001,1305.056827777,1305.056827777,1305.056827777,1305.056827777,,,,,,,,,,,,,,,,,,,,,,,,,,,,,,,,,,,,,,,08,005,2022-09-23_10h28.56.744,test2,2022.2.4,59.8944893883693,
0,0,0,0,26,0,26,0,1305.056827777,1305.056827777,1305.056827777,1305.056827777,1305.056827777,1305.056827777,1305.056827777,1,1,rojo,1,['N_A'],1306.7757747849998,1306.7757747849998,1306.7757747849998,1306.7757747849998,1308.795210389,1308.795210389,1308.795210389,1308.795210389,1308.795210389,1308.795210389,1308.795210389,1308.795210389,1310.812491716,1310.812491716,1310.812491716,1310.812491716,,,,,,,,,,,,,,,,,,,,,,,,,,,,,,,,,,,,,,,08,005,2022-09-23_10h28.56.744,test2,2022.2.4,59.8944893883693,
0,0,0,0,27,0,27,0,1310.812491716,1310.812491716,1310.812491716,1310.812491716,1310.812491716,1310.812491716,1310.812491716,1,1,rojo,1,['N_A'],1312.3989229699998,1312.3989229699998,1312.3989229699998,1312.3989229699998,1314.417352352,1314.417352352,1314.417352352,1314.417352352,1314.417352352,1314.417352352,1314.417352352,1314.417352352,1316.4357829019998,1316.4357829019998,1316.4357829019998,1316.4357829019998,,,,,,,,,,,,,,,,,,,,,,,,,,,,,,,,,,,,,,,08,005,2022-09-23_10h28.56.744,test2,2022.2.4,59.8944893883693,
0,0,0,0,28,0,28,0,1316.4357829019998,1316.4357829019998,1316.4357829019998,1316.4357829019998,1316.4357829019998,1316.4357829019998,1316.4357829019998,1,-1,rojo,0,['N_B'],1317.887017285,1317.887017285,1317.887017285,1317.887017285,1319.9061009499999,1319.9061009499999,1319.9061009499999,1319.9061009499999,1319.9061009499999,1319.9061009499999,1319.9061009499999,1319.9061009499999,1321.925498508,1321.925498508,1321.925498508,1321.925498508,,,,,,,,,,,,,,,,,,,,,,,,,,,,,,,,,,,,,,,08,005,2022-09-23_10h28.56.744,test2,2022.2.4,59.8944893883693,
0,0,0,0,29,0,29,0,1321.925498508,1321.925498508,1321.925498508,1321.925498508,1321.925498508,1321.925498508,1321.925498508,-1,1,rojo,1,['N_B'],1325.1293097169998,1325.1293097169998,1325.1293097169998,1325.1293097169998,1327.1478138639998,1327.1478138639998,1327.1478138639998,1327.1478138639998,1327.1478138639998,1327.1478138639998,1327.1478138639998,1327.1478138639998,1329.166208887,1329.166208887,1329.166208887,1329.166208887,,,,,,,,,,,,,,,,,,,,,,,,,,,,,,,,,,,,,,,08,005,2022-09-23_10h28.56.744,test2,2022.2.4,59.8944893883693,
0,0,0,0,30,0,30,0,1329.166208887,1329.166208887,1329.166208887,1329.166208887,1329.166208887,1329.166208887,1329.166208887,1,-1,azul,1,['N_B'],1330.7350440480002,1330.7350440480002,1330.7350440480002,1330.7350440480002,1332.7709988109998,1332.7709988109998,1332.7709988109998,1332.7709988109998,1332.7709988109998,1332.7709988109998,1332.7709988109998,1332.7709988109998,1334.7894310999998,1334.7894310999998,1334.7894310999998,1334.7894310999998,,,,,,,,,,,,,,,,,,,,,,,,,,,,,,,,,,,,,,,08,005,2022-09-23_10h28.56.744,test2,2022.2.4,59.8944893883693,
0,0,0,0,31,0,31,0,1334.7894310999998,1334.7894310999998,1334.7894310999998,1334.7894310999998,1334.7894310999998,1334.7894310999998,1334.7894310999998,1,-1,azul,0,['N_A'],1336.14108376,1336.14108376,1336.14108376,1336.14108376,1338.17667156,1338.17667156,1338.17667156,1338.17667156,1338.17667156,1338.17667156,1338.17667156,1338.17667156,1340.195856743,1340.195856743,1340.195856743,1340.195856743,,,,,,,,,,,,,,,,,,,,,,,,,,,,,,,,,,,,,,,08,005,2022-09-23_10h28.56.744,test2,2022.2.4,59.8944893883693,
0,0,0,0,32,0,32,0,1340.195856743,1340.195856743,1340.195856743,1340.195856743,1340.195856743,1340.195856743,1340.195856743,1,-1,rojo,1,['N_A'],1342.4309774340002,1342.4309774340002,1342.4309774340002,1342.4309774340002,1344.449710345,1344.449710345,1344.449710345,1344.449710345,1344.449710345,1344.449710345,1344.449710345,1344.449710345,1346.4693763439998,1346.4693763439998,1346.4693763439998,1346.4693763439998,,,,,,,,,,,,,,,,,,,,,,,,,,,,,,,,,,,,,,,08,005,2022-09-23_10h28.56.744,test2,2022.2.4,59.8944893883693,
0,0,0,0,33,0,33,0,1346.4693763439998,1346.4693763439998,1346.4693763439998,1346.4693763439998,1346.4693763439998,1346.4693763439998,1346.4693763439998,-1,1,azul,1,['N_A'],1348.7385001229998,1348.7385001229998,1348.7385001229998,1348.7385001229998,1350.7573604440001,1350.7573604440001,1350.7573604440001,1350.7573604440001,1350.7573604440001,1350.7573604440001,1350.7573604440001,1350.7573604440001,1352.7758373220001,1352.7758373220001,1352.7758373220001,1352.7758373220001,,,,,,,,,,,,,,,,,,,,,,,,,,,,,,,,,,,,,,,08,005,2022-09-23_10h28.56.744,test2,2022.2.4,59.8944893883693,
0,0,0,0,34,0,34,0,1352.7758373220001,1352.7758373220001,1352.7758373220001,1352.7758373220001,1352.7758373220001,1352.7758373220001,1352.7758373220001,1,-1,rojo,1,['N_A'],1354.961995238,1354.961995238,1354.961995238,1354.961995238,1356.998282118,1356.998282118,1356.998282118,1356.998282118,1356.998282118,1356.998282118,1356.998282118,1356.998282118,1359.0166945009998,1359.0166945009998,1359.0166945009998,1359.0166945009998,,,,,,,,,,,,,,,,,,,,,,,,,,,,,,,,,,,,,,,08,005,2022-09-23_10h28.56.744,test2,2022.2.4,59.8944893883693,
0,0,0,0,35,0,35,0,1359.0166945009998,1359.0166945009998,1359.0166945009998,1359.0166945009998,1359.0166945009998,1359.0166945009998,1359.0166945009998,1,-1,rojo,0,['N_B'],1361.1524230419998,1361.1524230419998,1361.1524230419998,1361.1524230419998,1363.1879799629999,1363.1879799629999,1363.1879799629999,1363.1879799629999,1363.1879799629999,1363.1879799629999,1363.1879799629999,1363.1879799629999,1365.2062322180002,1365.2062322180002,1365.2062322180002,1365.2062322180002,,,,,,,,,,,,,,,,,,,,,,,,,,,,,,,,,,,,,,,08,005,2022-09-23_10h28.56.744,test2,2022.2.4,59.8944893883693,
0,0,0,0,36,0,36,0,1365.2062322180002,1365.2062322180002,1365.2062322180002,1365.2062322180002,1365.2062322180002,1365.2062322180002,1365.2062322180002,1,-1,azul,1,['N_B'],1366.55828644,1366.55828644,1366.55828644,1366.55828644,1368.594528383,1368.594528383,1368.594528383,1368.594528383,1368.594528383,1368.594528383,1368.594528383,1368.594528383,1370.611814661,1370.611814661,1370.611814661,1370.611814661,,,,,,,,,,,,,,,,,,,,,,,,,,,,,,,,,,,,,,,08,005,2022-09-23_10h28.56.744,test2,2022.2.4,59.8944893883693,
0,0,0,0,37,0,37,0,1370.611814661,1370.611814661,1370.611814661,1370.611814661,1370.611814661,1370.611814661,1370.611814661,1,-1,azul,0,['N_A'],1371.9801639710001,1371.9801639710001,1371.9801639710001,1371.9801639710001,1373.9996765399999,1373.9996765399999,1373.9996765399999,1373.9996765399999,1373.9996765399999,1373.9996765399999,1373.9996765399999,1373.9996765399999,1376.018641251,1376.018641251,1376.018641251,1376.018641251,,,,,,,,,,,,,,,,,,,,,,,,,,,,,,,,,,,,,,,08,005,2022-09-23_10h28.56.744,test2,2022.2.4,59.8944893883693,
0,0,0,0,38,0,38,0,1376.018641251,1376.018641251,1376.018641251,1376.018641251,1376.018641251,1376.018641251,1376.018641251,1,1,rojo,1,['N_A'],1377.419632855,1377.419632855,1377.419632855,1377.419632855,1379.4385542369998,1379.4385542369998,1379.4385542369998,1379.4385542369998,1379.4385542369998,1379.4385542369998,1379.4385542369998,1379.4385542369998,1381.4578134689998,1381.4578134689998,1381.4578134689998,1381.4578134689998,,,,,,,,,,,,,,,,,,,,,,,,,,,,,,,,,,,,,,,08,005,2022-09-23_10h28.56.744,test2,2022.2.4,59.8944893883693,
0,0,0,0,39,0,39,0,1381.4578134689998,1381.4578134689998,1381.4578134689998,1381.4578134689998,1381.4578134689998,1381.4578134689998,1381.4578134689998,1,-1,rojo,1,['N_A'],1382.926068481,1382.926068481,1382.926068481,1382.926068481,1384.945429908,1384.945429908,1384.945429908,1384.945429908,1384.945429908,1384.945429908,1384.945429908,1384.945429908,1386.9636352290001,1386.9636352290001,1386.9636352290001,1386.9636352290001,,,,,,,,,,,,,,,,,,,,,,,,,,,,,,,,,,,,,,,08,005,2022-09-23_10h28.56.744,test2,2022.2.4,59.8944893883693,
0,0,0,0,40,0,40,0,1386.9636352290001,1386.9636352290001,1386.9636352290001,1386.9636352290001,1386.9636352290001,1386.9636352290001,1386.9636352290001,1,1,rojo,1,['N_A'],1388.549091731,1388.549091731,1388.549091731,1388.549091731,1390.567880883,1390.567880883,1390.567880883,1390.567880883,1390.567880883,1390.567880883,1390.567880883,1390.567880883,1392.5864892430002,1392.5864892430002,1392.5864892430002,1392.5864892430002,,,,,,,,,,,,,,,,,,,,,,,,,,,,,,,,,,,,,,,08,005,2022-09-23_10h28.56.744,test2,2022.2.4,59.8944893883693,
0,0,0,0,41,0,41,0,1392.5864892430002,1392.5864892430002,1392.5864892430002,1392.5864892430002,1392.5864892430002,1392.5864892430002,1392.5864892430002,-1,-1,azul,1,['N_A'],1396.640492705,1396.640492705,1396.640492705,1396.640492705,1398.659421399,1398.659421399,1398.659421399,1398.659421399,1398.659421399,1398.659421399,1398.659421399,1398.659421399,1400.6797094669998,1400.6797094669998,1400.6797094669998,1400.6797094669998,,,,,,,,,,,,,,,,,,,,,,,,,,,,,,,,,,,,,,,08,005,2022-09-23_10h28.56.744,test2,2022.2.4,59.8944893883693,
0,0,0,0,42,0,42,0,1400.6797094669998,1400.6797094669998,1400.6797094669998,1400.6797094669998,1400.6797094669998,1400.6797094669998,1400.6797094669998,-1,1,azul,1,['N_A'],1402.6640823310001,1402.6640823310001,1402.6640823310001,1402.6640823310001,1404.683235318,1404.683235318,1404.683235318,1404.683235318,1404.683235318,1404.683235318,1404.683235318,1404.683235318,1406.702537717,1406.702537717,1406.702537717,1406.702537717,,,,,,,,,,,,,,,,,,,,,,,,,,,,,,,,,,,,,,,08,005,2022-09-23_10h28.56.744,test2,2022.2.4,59.8944893883693,
0,0,0,0,43,0,43,0,1406.702537717,1406.702537717,1406.702537717,1406.702537717,1406.702537717,1406.702537717,1406.702537717,1,1,rojo,1,['N_A'],1408.6038089,1408.6038089,1408.6038089,1408.6038089,1410.6231455939999,1410.6231455939999,1410.6231455939999,1410.6231455939999,1410.6231455939999,1410.6231455939999,1410.6231455939999,1410.6231455939999,1412.6424958680002,1412.6424958680002,1412.6424958680002,1412.6424958680002,,,,,,,,,,,,,,,,,,,,,,,,,,,,,,,,,,,,,,,08,005,2022-09-23_10h28.56.744,test2,2022.2.4,59.8944893883693,
0,0,0,0,44,0,44,0,1412.6424958680002,1412.6424958680002,1412.6424958680002,1412.6424958680002,1412.6424958680002,1412.6424958680002,1412.6424958680002,1,-1,rojo,1,['N_A'],1419.900079332,1419.900079332,1419.900079332,1419.900079332,1421.936735253,1421.936735253,1421.936735253,1421.936735253,1421.936735253,1421.936735253,1421.936735253,1421.936735253,1423.954710153,1423.954710153,1423.954710153,1423.954710153,,,,,,,,,,,,,,,,,,,,,,,,,,,,,,,,,,,,,,,08,005,2022-09-23_10h28.56.744,test2,2022.2.4,59.8944893883693,
0,0,0,0,45,0,45,0,1423.954710153,1423.954710153,1423.954710153,1423.954710153,1423.954710153,1423.954710153,1423.954710153,1,-1,rojo,0,['N_B'],1425.373048565,1425.373048565,1425.373048565,1425.373048565,1427.4089155489999,1427.4089155489999,1427.4089155489999,1427.4089155489999,1427.4089155489999,1427.4089155489999,1427.4089155489999,1427.4089155489999,1429.4274643249998,1429.4274643249998,1429.4274643249998,1429.4274643249998,,,,,,,,,,,,,,,,,,,,,,,,,,,,,,,,,,,,,,,08,005,2022-09-23_10h28.56.744,test2,2022.2.4,59.8944893883693,
0,0,0,0,46,0,46,0,1429.4274643249998,1429.4274643249998,1429.4274643249998,1429.4274643249998,1429.4274643249998,1429.4274643249998,1429.4274643249998,1,-1,azul,1,['N_B'],1430.8285357420002,1430.8285357420002,1430.8285357420002,1430.8285357420002,1432.8478850190002,1432.8478850190002,1432.8478850190002,1432.8478850190002,1432.8478850190002,1432.8478850190002,1432.8478850190002,1432.8478850190002,1434.8658877750001,1434.8658877750001,1434.8658877750001,1434.8658877750001,,,,,,,,,,,,,,,,,,,,,,,,,,,,,,,,,,,,,,,08,005,2022-09-23_10h28.56.744,test2,2022.2.4,59.8944893883693,
0,0,0,0,47,0,47,0,1434.8658877750001,1434.8658877750001,1434.8658877750001,1434.8658877750001,1434.8658877750001,1434.8658877750001,1434.8658877750001,-1,1,rojo,1,['N_B'],1436.2845753519998,1436.2845753519998,1436.2845753519998,1436.2845753519998,1438.305221753,1438.305221753,1438.305221753,1438.305221753,1438.305221753,1438.305221753,1438.305221753,1438.305221753,1440.3223044969998,1440.3223044969998,1440.3223044969998,1440.3223044969998,,,,,,,,,,,,,,,,,,,,,,,,,,,,,,,,,,,,,,,08,005,2022-09-23_10h28.56.744,test2,2022.2.4,59.8944893883693,
0,0,0,0,48,0,48,0,1440.3223044969998,1440.3223044969998,1440.3223044969998,1440.3223044969998,1440.3223044969998,1440.3223044969998,1440.3223044969998,1,1,azul,0,['N_A'],1442.208229258,1442.208229258,1442.208229258,1442.208229258,1444.2276871810002,1444.2276871810002,1444.2276871810002,1444.2276871810002,1444.2276871810002,1444.2276871810002,1444.2276871810002,1444.2276871810002,1446.2457686599998,1446.2457686599998,1446.2457686599998,1446.2457686599998,,,,,,,,,,,,,,,,,,,,,,,,,,,,,,,,,,,,,,,08,005,2022-09-23_10h28.56.744,test2,2022.2.4,59.8944893883693,
0,0,0,0,49,0,49,0,1446.2457686599998,1446.2457686599998,1446.2457686599998,1446.2457686599998,1446.2457686599998,1446.2457686599998,1446.2457686599998,1,1,rojo,0,['N_B'],1448.2482950219999,1448.2482950219999,1448.2482950219999,1448.2482950219999,1450.267050741,1450.267050741,1450.267050741,1450.267050741,1450.267050741,1450.267050741,1450.267050741,1450.267050741,1452.2852586430001,1452.2852586430001,1452.2852586430001,1452.2852586430001,,,,,,,,,,,,,,,,,,,,,,,,,,,,,,,,,,,,,,,08,005,2022-09-23_10h28.56.744,test2,2022.2.4,59.8944893883693,
0,0,0,0,50,0,50,0,1452.2852586430001,1452.2852586430001,1452.2852586430001,1452.2852586430001,1452.2852586430001,1452.2852586430001,1452.2852586430001,-1,1,rojo,0,['N_A'],1453.637481774,1453.637481774,1453.637481774,1453.637481774,1455.656942292,1455.656942292,1455.656942292,1455.656942292,1455.656942292,1455.656942292,1455.656942292,1455.656942292,1457.674533132,1457.674533132,1457.674533132,1457.674533132,,,,,,,,,,,,,,,,,,,,,,,,,,,,,,,,,,,,,,,08,005,2022-09-23_10h28.56.744,test2,2022.2.4,59.8944893883693,
0,0,0,0,51,0,51,0,1457.674533132,1457.674533132,1457.674533132,1457.674533132,1457.674533132,1457.674533132,1457.674533132,1,1,rojo,0,['N_B'],1459.0114869259999,1459.0114869259999,1459.0114869259999,1459.0114869259999,1461.0281987269998,1461.0281987269998,1461.0281987269998,1461.0281987269998,1461.0281987269998,1461.0281987269998,1461.0281987269998,1461.0281987269998,1463.0471168840002,1463.0471168840002,1463.0471168840002,1463.0471168840002,,,,,,,,,,,,,,,,,,,,,,,,,,,,,,,,,,,,,,,08,005,2022-09-23_10h28.56.744,test2,2022.2.4,59.8944893883693,
0,0,0,0,52,0,52,0,1463.0471168840002,1463.0471168840002,1463.0471168840002,1463.0471168840002,1463.0471168840002,1463.0471168840002,1463.0471168840002,-1,-1,rojo,0,['N_A'],1465.6676009340001,1465.6676009340001,1465.6676009340001,1465.6676009340001,1467.686644521,1467.686644521,1467.686644521,1467.686644521,1467.686644521,1467.686644521,1467.686644521,1467.686644521,1469.705983821,1469.705983821,1469.705983821,1469.705983821,,,,,,,,,,,,,,,,,,,,,,,,,,,,,,,,,,,,,,,08,005,2022-09-23_10h28.56.744,test2,2022.2.4,59.8944893883693,
0,0,0,0,53,0,53,0,1469.705983821,1469.705983821,1469.705983821,1469.705983821,1469.705983821,1469.705983821,1469.705983821,1,1,rojo,1,['N_A'],1472.124569331,1472.124569331,1472.124569331,1472.124569331,1474.143532416,1474.143532416,1474.143532416,1474.143532416,1474.143532416,1474.143532416,1474.143532416,1474.143532416,1476.1620775099998,1476.1620775099998,1476.1620775099998,1476.1620775099998,,,,,,,,,,,,,,,,,,,,,,,,,,,,,,,,,,,,,,,08,005,2022-09-23_10h28.56.744,test2,2022.2.4,59.8944893883693,
0,0,0,0,54,0,54,0,1476.1620775099998,1476.1620775099998,1476.1620775099998,1476.1620775099998,1476.1620775099998,1476.1620775099998,1476.1620775099998,1,-1,rojo,0,['N_B'],1478.831927,1478.831927,1478.831927,1478.831927,1480.868265234,1480.868265234,1480.868265234,1480.868265234,1480.868265234,1480.868265234,1480.868265234,1480.868265234,1482.8863098059999,1482.8863098059999,1482.8863098059999,1482.8863098059999,,,,,,,,,,,,,,,,,,,,,,,,,,,,,,,,,,,,,,,08,005,2022-09-23_10h28.56.744,test2,2022.2.4,59.8944893883693,
0,0,0,0,55,0,55,0,1482.8863098059999,1482.8863098059999,1482.8863098059999,1482.8863098059999,1482.8863098059999,1482.8863098059999,1482.8863098059999,1,-1,azul,0,['N_A'],1484.3049111110001,1484.3049111110001,1484.3049111110001,1484.3049111110001,1486.322778341,1486.322778341,1486.322778341,1486.322778341,1486.322778341,1486.322778341,1486.322778341,1486.322778341,1488.3423053180002,1488.3423053180002,1488.3423053180002,1488.3423053180002,,,,,,,,,,,,,,,,,,,,,,,,,,,,,,,,,,,,,,,08,005,2022-09-23_10h28.56.744,test2,2022.2.4,59.8944893883693,
0,0,0,0,56,0,56,0,1488.3423053180002,1488.3423053180002,1488.3423053180002,1488.3423053180002,1488.3423053180002,1488.3423053180002,1488.3423053180002,1,1,rojo,1,['N_A'],1490.2277251839998,1490.2277251839998,1490.2277251839998,1490.2277251839998,1492.246066261,1492.246066261,1492.246066261,1492.246066261,1492.246066261,1492.246066261,1492.246066261,1492.246066261,1494.266083886,1494.266083886,1494.266083886,1494.266083886,,,,,,,,,,,,,,,,,,,,,,,,,,,,,,,,,,,,,,,08,005,2022-09-23_10h28.56.744,test2,2022.2.4,59.8944893883693,
0,0,0,0,57,0,57,0,1494.266083886,1494.266083886,1494.266083886,1494.266083886,1494.266083886,1494.266083886,1494.266083886,1,-1,rojo,0,['N_B'],1496.8687035330001,1496.8687035330001,1496.8687035330001,1496.8687035330001,1498.9052824470002,1498.9052824470002,1498.9052824470002,1498.9052824470002,1498.9052824470002,1498.9052824470002,1498.9052824470002,1498.9052824470002,1500.9224435469998,1500.9224435469998,1500.9224435469998,1500.9224435469998,,,,,,,,,,,,,,,,,,,,,,,,,,,,,,,,,,,,,,,08,005,2022-09-23_10h28.56.744,test2,2022.2.4,59.8944893883693,
0,0,0,0,58,0,58,0,1500.9224435469998,1500.9224435469998,1500.9224435469998,1500.9224435469998,1500.9224435469998,1500.9224435469998,1500.9224435469998,-1,-1,rojo,0,['N_A'],1503.6264700959998,1503.6264700959998,1503.6264700959998,1503.6264700959998,1505.6616457869998,1505.6616457869998,1505.6616457869998,1505.6616457869998,1505.6616457869998,1505.6616457869998,1505.6616457869998,1505.6616457869998,1507.681031413,1507.681031413,1507.681031413,1507.681031413,,,,,,,,,,,,,,,,,,,,,,,,,,,,,,,,,,,,,,,08,005,2022-09-23_10h28.56.744,test2,2022.2.4,59.8944893883693,
0,0,0,0,59,0,59,0,1507.681031413,1507.681031413,1507.681031413,1507.681031413,1507.681031413,1507.681031413,1507.681031413,-1,-1,azul,1,['N_A'],1509.100321651,1509.100321651,1509.100321651,1509.100321651,1511.1353905950002,1511.1353905950002,1511.1353905950002,1511.1353905950002,1511.1353905950002,1511.1353905950002,1511.1353905950002,1511.1353905950002,1513.152824303,1513.152824303,1513.152824303,1513.152824303,,,,,,,,,,,,,,,,,,,,,,,,,,,,,,,,,,,,,,,08,005,2022-09-23_10h28.56.744,test2,2022.2.4,59.8944893883693,
0,0,0,0,60,0,60,0,1513.152824303,1513.152824303,1513.152824303,1513.152824303,1513.152824303,1513.152824303,1513.152824303,1,-1,rojo,0,['N_B'],1515.0381225019999,1515.0381225019999,1515.0381225019999,1515.0381225019999,1517.0567727700002,1517.0567727700002,1517.0567727700002,1517.0567727700002,1517.0567727700002,1517.0567727700002,1517.0567727700002,1517.0567727700002,1519.075698758,1519.075698758,1519.075698758,1519.075698758,,,,,,,,,,,,,,,,,,,,,,,,,,,,,,,,,,,,,,,08,005,2022-09-23_10h28.56.744,test2,2022.2.4,59.8944893883693,
0,0,0,0,61,0,61,0,1519.075698758,1519.075698758,1519.075698758,1519.075698758,1519.075698758,1519.075698758,1519.075698758,-1,1,rojo,1,['N_B'],1525.0326140609998,1525.0326140609998,1525.0326140609998,1525.0326140609998,1527.0523310699998,1527.0523310699998,1527.0523310699998,1527.0523310699998,1527.0523310699998,1527.0523310699998,1527.0523310699998,1527.0523310699998,1529.0709945,1529.0709945,1529.0709945,1529.0709945,,,,,,,,,,,,,,,,,,,,,,,,,,,,,,,,,,,,,,,08,005,2022-09-23_10h28.56.744,test2,2022.2.4,59.8944893883693,
0,0,0,0,62,0,62,0,1529.0709945,1529.0709945,1529.0709945,1529.0709945,1529.0709945,1529.0709945,1529.0709945,1,1,azul,1,['N_B'],1530.672022769,1530.672022769,1530.672022769,1530.672022769,1532.692372064,1532.692372064,1532.692372064,1532.692372064,1532.692372064,1532.692372064,1532.692372064,1532.692372064,1534.710224449,1534.710224449,1534.710224449,1534.710224449,,,,,,,,,,,,,,,,,,,,,,,,,,,,,,,,,,,,,,,08,005,2022-09-23_10h28.56.744,test2,2022.2.4,59.8944893883693,
0,0,0,0,63,0,63,0,1534.710224449,1534.710224449,1534.710224449,1534.710224449,1534.710224449,1534.710224449,1534.710224449,1,1,azul,1,['N_B'],1536.2793422799998,1536.2793422799998,1536.2793422799998,1536.2793422799998,1538.2969517140002,1538.2969517140002,1538.2969517140002,1538.2969517140002,1538.2969517140002,1538.2969517140002,1538.2969517140002,1538.2969517140002,1540.316525591,1540.316525591,1540.316525591,1540.316525591,,,,,,,,,,,,,,,,,,,,,,,,,,,,,,,,,,,,,,,08,005,2022-09-23_10h28.56.744,test2,2022.2.4,59.8944893883693,
0,0,0,0,64,0,64,0,1540.316525591,1540.316525591,1540.316525591,1540.316525591,1540.316525591,1540.316525591,1540.316525591,1,-1,azul,1,['N_B'],1541.801050288,1541.801050288,1541.801050288,1541.801050288,1543.837457412,1543.837457412,1543.837457412,1543.837457412,1543.837457412,1543.837457412,1543.837457412,1543.837457412,1545.855180884,1545.855180884,1545.855180884,1545.855180884,,,,,,,,,,,,,,,,,,,,,,,,,,,,,,,,,,,,,,,08,005,2022-09-23_10h28.56.744,test2,2022.2.4,59.8944893883693,
0,0,0,0,65,0,65,0,1545.855180884,1545.855180884,1545.855180884,1545.855180884,1545.855180884,1545.855180884,1545.855180884,1,-1,azul,0,['N_A'],1547.2244732759998,1547.2244732759998,1547.2244732759998,1547.2244732759998,1549.2607477160002,1549.2607477160002,1549.2607477160002,1549.2607477160002,1549.2607477160002,1549.2607477160002,1549.2607477160002,1549.2607477160002,1551.2784454260002,1551.2784454260002,1551.2784454260002,1551.2784454260002,,,,,,,,,,,,,,,,,,,,,,,,,,,,,,,,,,,,,,,08,005,2022-09-23_10h28.56.744,test2,2022.2.4,59.8944893883693,
0,0,0,0,66,0,66,0,1551.2784454260002,1551.2784454260002,1551.2784454260002,1551.2784454260002,1551.2784454260002,1551.2784454260002,1551.2784454260002,-1,-1,azul,1,['N_A'],1555.533166343,1555.533166343,1555.533166343,1555.533166343,1557.551649618,1557.551649618,1557.551649618,1557.551649618,1557.551649618,1557.551649618,1557.551649618,1557.551649618,1559.5709807800001,1559.5709807800001,1559.5709807800001,1559.5709807800001,,,,,,,,,,,,,,,,,,,,,,,,,,,,,,,,,,,,,,,08,005,2022-09-23_10h28.56.744,test2,2022.2.4,59.8944893883693,
0,0,0,0,67,0,67,0,1559.5709807800001,1559.5709807800001,1559.5709807800001,1559.5709807800001,1559.5709807800001,1559.5709807800001,1559.5709807800001,1,1,rojo,1,['N_A'],1561.0889990500002,1561.0889990500002,1561.0889990500002,1561.0889990500002,1563.1077929280002,1563.1077929280002,1563.1077929280002,1563.1077929280002,1563.1077929280002,1563.1077929280002,1563.1077929280002,1563.1077929280002,1565.1281937649999,1565.1281937649999,1565.1281937649999,1565.1281937649999,,,,,,,,,,,,,,,,,,,,,,,,,,,,,,,,,,,,,,,08,005,2022-09-23_10h28.56.744,test2,2022.2.4,59.8944893883693,
0,0,0,0,68,0,68,0,1565.1281937649999,1565.1281937649999,1565.1281937649999,1565.1281937649999,1565.1281937649999,1565.1281937649999,1565.1281937649999,1,-1,rojo,1,['N_A'],1567.5125281889998,1567.5125281889998,1567.5125281889998,1567.5125281889998,1569.5499128620002,1569.5499128620002,1569.5499128620002,1569.5499128620002,1569.5499128620002,1569.5499128620002,1569.5499128620002,1569.5499128620002,1571.5671337810002,1571.5671337810002,1571.5671337810002,1571.5671337810002,,,,,,,,,,,,,,,,,,,,,,,,,,,,,,,,,,,,,,,08,005,2022-09-23_10h28.56.744,test2,2022.2.4,59.8944893883693,
0,0,0,0,69,0,69,0,1571.5671337810002,1571.5671337810002,1571.5671337810002,1571.5671337810002,1571.5671337810002,1571.5671337810002,1571.5671337810002,1,-1,rojo,1,['N_A'],1572.986375265,1572.986375265,1572.986375265,1572.986375265,1575.022141442,1575.022141442,1575.022141442,1575.022141442,1575.022141442,1575.022141442,1575.022141442,1575.022141442,1577.0398146660002,1577.0398146660002,1577.0398146660002,1577.0398146660002,,,,,,,,,,,,,,,,,,,,,,,,,,,,,,,,,,,,,,,08,005,2022-09-23_10h28.56.744,test2,2022.2.4,59.8944893883693,
0,0,0,0,70,0,70,0,1577.0398146660002,1577.0398146660002,1577.0398146660002,1577.0398146660002,1577.0398146660002,1577.0398146660002,1577.0398146660002,1,-1,rojo,0,['N_B'],1578.407899596,1578.407899596,1578.407899596,1578.407899596,1580.444600012,1580.444600012,1580.444600012,1580.444600012,1580.444600012,1580.444600012,1580.444600012,1580.444600012,1582.4622779180002,1582.4622779180002,1582.4622779180002,1582.4622779180002,,,,,,,,,,,,,,,,,,,,,,,,,,,,,,,,,,,,,,,08,005,2022-09-23_10h28.56.744,test2,2022.2.4,59.8944893883693,
0,0,0,0,71,0,71,0,1582.4622779180002,1582.4622779180002,1582.4622779180002,1582.4622779180002,1582.4622779180002,1582.4622779180002,1582.4622779180002,-1,-1,rojo,1,['N_B'],1583.830507722,1583.830507722,1583.830507722,1583.830507722,1585.8671845850001,1585.8671845850001,1585.8671845850001,1585.8671845850001,1585.8671845850001,1585.8671845850001,1585.8671845850001,1585.8671845850001,1587.8848782480002,1587.8848782480002,1587.8848782480002,1587.8848782480002,,,,,,,,,,,,,,,,,,,,,,,,,,,,,,,,,,,,,,,08,005,2022-09-23_10h28.56.744,test2,2022.2.4,59.8944893883693,
0,0,0,0,72,0,72,0,1587.8848782480002,1587.8848782480002,1587.8848782480002,1587.8848782480002,1587.8848782480002,1587.8848782480002,1587.8848782480002,1,-1,azul,1,['N_B'],1589.253725113,1589.253725113,1589.253725113,1589.253725113,1591.2725837229998,1591.2725837229998,1591.2725837229998,1591.2725837229998,1591.2725837229998,1591.2725837229998,1591.2725837229998,1591.2725837229998,1593.2908157079999,1593.2908157079999,1593.2908157079999,1593.2908157079999,,,,,,,,,,,,,,,,,,,,,,,,,,,,,,,,,,,,,,,08,005,2022-09-23_10h28.56.744,test2,2022.2.4,59.8944893883693,
0,0,0,0,73,0,73,0,1593.2908157079999,1593.2908157079999,1593.2908157079999,1593.2908157079999,1593.2908157079999,1593.2908157079999,1593.2908157079999,1,1,azul,1,['N_B'],1594.692698571,1594.692698571,1594.692698571,1594.692698571,1596.7127878180002,1596.7127878180002,1596.7127878180002,1596.7127878180002,1596.7127878180002,1596.7127878180002,1596.7127878180002,1596.7127878180002,1598.730666059,1598.730666059,1598.730666059,1598.730666059,,,,,,,,,,,,,,,,,,,,,,,,,,,,,,,,,,,,,,,08,005,2022-09-23_10h28.56.744,test2,2022.2.4,59.8944893883693,
0,0,0,0,74,0,74,0,1598.730666059,1598.730666059,1598.730666059,1598.730666059,1598.730666059,1598.730666059,1598.730666059,-1,1,rojo,1,['N_B'],1600.232677309,1600.232677309,1600.232677309,1600.232677309,1602.251464062,1602.251464062,1602.251464062,1602.251464062,1602.251464062,1602.251464062,1602.251464062,1602.251464062,1604.269821433,1604.269821433,1604.269821433,1604.269821433,,,,,,,,,,,,,,,,,,,,,,,,,,,,,,,,,,,,,,,08,005,2022-09-23_10h28.56.744,test2,2022.2.4,59.8944893883693,
0,0,0,0,75,0,75,0,1604.269821433,1604.269821433,1604.269821433,1604.269821433,1604.269821433,1604.269821433,1604.269821433,1,-1,azul,1,['N_B'],1607.7236681289999,1607.7236681289999,1607.7236681289999,1607.7236681289999,1609.7603472889998,1609.7603472889998,1609.7603472889998,1609.7603472889998,1609.7603472889998,1609.7603472889998,1609.7603472889998,1609.7603472889998,1611.77853695,1611.77853695,1611.77853695,1611.77853695,,,,,,,,,,,,,,,,,,,,,,,,,,,,,,,,,,,,,,,08,005,2022-09-23_10h28.56.744,test2,2022.2.4,59.8944893883693,
0,0,0,0,76,0,76,0,1611.77853695,1611.77853695,1611.77853695,1611.77853695,1611.77853695,1611.77853695,1611.77853695,-1,-1,rojo,0,['N_A'],1614.0808726419998,1614.0808726419998,1614.0808726419998,1614.0808726419998,1616.0995124049998,1616.0995124049998,1616.0995124049998,1616.0995124049998,1616.0995124049998,1616.0995124049998,1616.0995124049998,1616.0995124049998,1618.119139236,1618.119139236,1618.119139236,1618.119139236,,,,,,,,,,,,,,,,,,,,,,,,,,,,,,,,,,,,,,,08,005,2022-09-23_10h28.56.744,test2,2022.2.4,59.8944893883693,
0,0,0,0,77,0,77,0,1618.119139236,1618.119139236,1618.119139236,1618.119139236,1618.119139236,1618.119139236,1618.119139236,1,1,rojo,1,['N_A'],1619.937758626,1619.937758626,1619.937758626,1619.937758626,1621.9562411109998,1621.9562411109998,1621.9562411109998,1621.9562411109998,1621.9562411109998,1621.9562411109998,1621.9562411109998,1621.9562411109998,1623.9745625369999,1623.9745625369999,1623.9745625369999,1623.9745625369999,,,,,,,,,,,,,,,,,,,,,,,,,,,,,,,,,,,,,,,08,005,2022-09-23_10h28.56.744,test2,2022.2.4,59.8944893883693,
0,0,0,0,78,0,78,0,1623.9745625369999,1623.9745625369999,1623.9745625369999,1623.9745625369999,1623.9745625369999,1623.9745625369999,1623.9745625369999,-1,-1,azul,1,['N_A'],1625.327081959,1625.327081959,1625.327081959,1625.327081959,1627.3626693469998,1627.3626693469998,1627.3626693469998,1627.3626693469998,1627.3626693469998,1627.3626693469998,1627.3626693469998,1627.3626693469998,1629.381231572,1629.381231572,1629.381231572,1629.381231572,,,,,,,,,,,,,,,,,,,,,,,,,,,,,,,,,,,,,,,08,005,2022-09-23_10h28.56.744,test2,2022.2.4,59.8944893883693,
0,0,0,0,79,0,79,0,1629.381231572,1629.381231572,1629.381231572,1629.381231572,1629.381231572,1629.381231572,1629.381231572,-1,-1,azul,1,['N_A'],1631.149829013,1631.149829013,1631.149829013,1631.149829013,1633.186377062,1633.186377062,1633.186377062,1633.186377062,1633.186377062,1633.186377062,1633.186377062,1633.186377062,1635.204326367,1635.204326367,1635.204326367,1635.204326367,,,,,,,,,,,,,,,,,,,,,,,,,,,,,,,,,,,,,,,08,005,2022-09-23_10h28.56.744,test2,2022.2.4,59.8944893883693,
0,0,0,0,80,0,80,0,1635.204326367,1635.204326367,1635.204326367,1635.204326367,1635.204326367,1635.204326367,1635.204326367,-1,-1,azul,0,['N_B'],1636.5552705819998,1636.5552705819998,1636.5552705819998,1636.5552705819998,1638.591764041,1638.591764041,1638.591764041,1638.591764041,1638.591764041,1638.591764041,1638.591764041,1638.591764041,1640.628163402,1640.628163402,1640.628163402,1640.628163402,,,,,,,,,,,,,,,,,,,,,,,,,,,,,,,,,,,,,,,08,005,2022-09-23_10h28.56.744,test2,2022.2.4,59.8944893883693,
0,0,0,0,81,0,81,0,1640.628163402,1640.628163402,1640.628163402,1640.628163402,1640.628163402,1640.628163402,1640.628163402,1,-1,azul,1,['N_B'],1641.995226571,1641.995226571,1641.995226571,1641.995226571,1644.031403916,1644.031403916,1644.031403916,1644.031403916,1644.031403916,1644.031403916,1644.031403916,1644.031403916,1646.0494999250002,1646.0494999250002,1646.0494999250002,1646.0494999250002,,,,,,,,,,,,,,,,,,,,,,,,,,,,,,,,,,,,,,,08,005,2022-09-23_10h28.56.744,test2,2022.2.4,59.8944893883693,
0,0,0,0,82,0,82,0,1646.0494999250002,1646.0494999250002,1646.0494999250002,1646.0494999250002,1646.0494999250002,1646.0494999250002,1646.0494999250002,1,-1,azul,1,['N_B'],1647.501572719,1647.501572719,1647.501572719,1647.501572719,1649.520437376,1649.520437376,1649.520437376,1649.520437376,1649.520437376,1649.520437376,1649.520437376,1649.520437376,1651.5394817570002,1651.5394817570002,1651.5394817570002,1651.5394817570002,,,,,,,,,,,,,,,,,,,,,,,,,,,,,,,,,,,,,,,08,005,2022-09-23_10h28.56.744,test2,2022.2.4,59.8944893883693,
0,0,0,0,83,0,83,0,1651.5394817570002,1651.5394817570002,1651.5394817570002,1651.5394817570002,1651.5394817570002,1651.5394817570002,1651.5394817570002,-1,1,rojo,1,['N_B'],1652.890572567,1652.890572567,1652.890572567,1652.890572567,1654.908952686,1654.908952686,1654.908952686,1654.908952686,1654.908952686,1654.908952686,1654.908952686,1654.908952686,1656.928034545,1656.928034545,1656.928034545,1656.928034545,,,,,,,,,,,,,,,,,,,,,,,,,,,,,,,,,,,,,,,08,005,2022-09-23_10h28.56.744,test2,2022.2.4,59.8944893883693,
0,0,0,0,84,0,84,0,1656.928034545,1656.928034545,1656.928034545,1656.928034545,1656.928034545,1656.928034545,1656.928034545,-1,-1,rojo,1,['N_B'],1658.279671341,1658.279671341,1658.279671341,1658.279671341,1660.298743729,1660.298743729,1660.298743729,1660.298743729,1660.298743729,1660.298743729,1660.298743729,1660.298743729,1662.317137073,1662.317137073,1662.317137073,1662.317137073,,,,,,,,,,,,,,,,,,,,,,,,,,,,,,,,,,,,,,,08,005,2022-09-23_10h28.56.744,test2,2022.2.4,59.8944893883693,
0,0,0,0,85,0,85,0,1662.317137073,1662.317137073,1662.317137073,1662.317137073,1662.317137073,1662.317137073,1662.317137073,-1,1,rojo,1,['N_B'],1663.8865218079998,1663.8865218079998,1663.8865218079998,1663.8865218079998,1665.904876065,1665.904876065,1665.904876065,1665.904876065,1665.904876065,1665.904876065,1665.904876065,1665.904876065,1667.9231241639998,1667.9231241639998,1667.9231241639998,1667.9231241639998,,,,,,,,,,,,,,,,,,,,,,,,,,,,,,,,,,,,,,,08,005,2022-09-23_10h28.56.744,test2,2022.2.4,59.8944893883693,
0,0,0,0,86,0,86,0,1667.9231241639998,1667.9231241639998,1667.9231241639998,1667.9231241639998,1667.9231241639998,1667.9231241639998,1667.9231241639998,1,-1,azul,1,['N_B'],1669.3919509179998,1669.3919509179998,1669.3919509179998,1669.3919509179998,1671.4278807469998,1671.4278807469998,1671.4278807469998,1671.4278807469998,1671.4278807469998,1671.4278807469998,1671.4278807469998,1671.4278807469998,1673.44594548,1673.44594548,1673.44594548,1673.44594548,,,,,,,,,,,,,,,,,,,,,,,,,,,,,,,,,,,,,,,08,005,2022-09-23_10h28.56.744,test2,2022.2.4,59.8944893883693,
0,0,0,0,87,0,87,0,1673.44594548,1673.44594548,1673.44594548,1673.44594548,1673.44594548,1673.44594548,1673.44594548,1,-1,azul,1,['N_B'],1674.9479723880002,1674.9479723880002,1674.9479723880002,1674.9479723880002,1676.9675218700002,1676.9675218700002,1676.9675218700002,1676.9675218700002,1676.9675218700002,1676.9675218700002,1676.9675218700002,1676.9675218700002,1678.9864749760002,1678.9864749760002,1678.9864749760002,1678.9864749760002,,,,,,,,,,,,,,,,,,,,,,,,,,,,,,,,,,,,,,,08,005,2022-09-23_10h28.56.744,test2,2022.2.4,59.8944893883693,
0,0,0,0,88,0,88,0,1678.9864749760002,1678.9864749760002,1678.9864749760002,1678.9864749760002,1678.9864749760002,1678.9864749760002,1678.9864749760002,1,1,azul,1,['N_B'],1680.9216089089998,1680.9216089089998,1680.9216089089998,1680.9216089089998,1682.9397065639998,1682.9397065639998,1682.9397065639998,1682.9397065639998,1682.9397065639998,1682.9397065639998,1682.9397065639998,1682.9397065639998,1684.959087124,1684.959087124,1684.959087124,1684.959087124,,,,,,,,,,,,,,,,,,,,,,,,,,,,,,,,,,,,,,,08,005,2022-09-23_10h28.56.744,test2,2022.2.4,59.8944893883693,
0,0,0,0,89,0,89,0,1684.959087124,1684.959087124,1684.959087124,1684.959087124,1684.959087124,1684.959087124,1684.959087124,1,-1,azul,0,['N_A'],1686.644863793,1686.644863793,1686.644863793,1686.644863793,1688.6809427229998,1688.6809427229998,1688.6809427229998,1688.6809427229998,1688.6809427229998,1688.6809427229998,1688.6809427229998,1688.6809427229998,1690.6987487170002,1690.6987487170002,1690.6987487170002,1690.6987487170002,,,,,,,,,,,,,,,,,,,,,,,,,,,,,,,,,,,,,,,08,005,2022-09-23_10h28.56.744,test2,2022.2.4,59.8944893883693,
0,0,0,0,90,0,90,0,1690.6987487170002,1690.6987487170002,1690.6987487170002,1690.6987487170002,1690.6987487170002,1690.6987487170002,1690.6987487170002,1,-1,rojo,1,['N_A'],1692.3673843529998,1692.3673843529998,1692.3673843529998,1692.3673843529998,1694.3865670100001,1694.3865670100001,1694.3865670100001,1694.3865670100001,1694.3865670100001,1694.3865670100001,1694.3865670100001,1694.3865670100001,1696.4050374299998,1696.4050374299998,1696.4050374299998,1696.4050374299998,,,,,,,,,,,,,,,,,,,,,,,,,,,,,,,,,,,,,,,08,005,2022-09-23_10h28.56.744,test2,2022.2.4,59.8944893883693,
0,0,0,0,91,0,91,0,1696.4050374299998,1696.4050374299998,1696.4050374299998,1696.4050374299998,1696.4050374299998,1696.4050374299998,1696.4050374299998,-1,1,azul,1,['N_A'],1698.0069263799999,1698.0069263799999,1698.0069263799999,1698.0069263799999,1700.0258219710001,1700.0258219710001,1700.0258219710001,1700.0258219710001,1700.0258219710001,1700.0258219710001,1700.0258219710001,1700.0258219710001,1702.0453382049998,1702.0453382049998,1702.0453382049998,1702.0453382049998,,,,,,,,,,,,,,,,,,,,,,,,,,,,,,,,,,,,,,,08,005,2022-09-23_10h28.56.744,test2,2022.2.4,59.8944893883693,
0,0,0,0,92,0,92,0,1702.0453382049998,1702.0453382049998,1702.0453382049998,1702.0453382049998,1702.0453382049998,1702.0453382049998,1702.0453382049998,1,-1,rojo,1,['N_A'],1705.9991579690002,1705.9991579690002,1705.9991579690002,1705.9991579690002,1708.0354558329998,1708.0354558329998,1708.0354558329998,1708.0354558329998,1708.0354558329998,1708.0354558329998,1708.0354558329998,1708.0354558329998,1710.054500817,1710.054500817,1710.054500817,1710.054500817,,,,,,,,,,,,,,,,,,,,,,,,,,,,,,,,,,,,,,,08,005,2022-09-23_10h28.56.744,test2,2022.2.4,59.8944893883693,
0,0,0,0,93,0,93,0,1710.054500817,1710.054500817,1710.054500817,1710.054500817,1710.054500817,1710.054500817,1710.054500817,-1,-1,azul,0,['N_B'],1711.3889917089998,1711.3889917089998,1711.3889917089998,1711.3889917089998,1713.4253985429998,1713.4253985429998,1713.4253985429998,1713.4253985429998,1713.4253985429998,1713.4253985429998,1713.4253985429998,1713.4253985429998,1715.4429267839998,1715.4429267839998,1715.4429267839998,1715.4429267839998,,,,,,,,,,,,,,,,,,,,,,,,,,,,,,,,,,,,,,,08,005,2022-09-23_10h28.56.744,test2,2022.2.4,59.8944893883693,
0,0,0,0,94,0,94,0,1715.4429267839998,1715.4429267839998,1715.4429267839998,1715.4429267839998,1715.4429267839998,1715.4429267839998,1715.4429267839998,-1,-1,rojo,1,['N_B'],1716.8436598800001,1716.8436598800001,1716.8436598800001,1716.8436598800001,1718.8625556089999,1718.8625556089999,1718.8625556089999,1718.8625556089999,1718.8625556089999,1718.8625556089999,1718.8625556089999,1718.8625556089999,1720.8822952399998,1720.8822952399998,1720.8822952399998,1720.8822952399998,,,,,,,,,,,,,,,,,,,,,,,,,,,,,,,,,,,,,,,08,005,2022-09-23_10h28.56.744,test2,2022.2.4,59.8944893883693,
0,0,0,0,95,0,95,0,1720.8822952399998,1720.8822952399998,1720.8822952399998,1720.8822952399998,1720.8822952399998,1720.8822952399998,1720.8822952399998,1,1,azul,1,['N_B'],1722.2839420040002,1722.2839420040002,1722.2839420040002,1722.2839420040002,1724.303011927,1724.303011927,1724.303011927,1724.303011927,1724.303011927,1724.303011927,1724.303011927,1724.303011927,1726.3210046689999,1726.3210046689999,1726.3210046689999,1726.3210046689999,,,,,,,,,,,,,,,,,,,,,,,,,,,,,,,,,,,,,,,08,005,2022-09-23_10h28.56.744,test2,2022.2.4,59.8944893883693,
0,0,0,0,96,0,96,0,1726.3210046689999,1726.3210046689999,1726.3210046689999,1726.3210046689999,1726.3210046689999,1726.3210046689999,1726.3210046689999,-1,-1,rojo,1,['N_B'],1727.9902828450001,1727.9902828450001,1727.9902828450001,1727.9902828450001,1730.0083115189998,1730.0083115189998,1730.0083115189998,1730.0083115189998,1730.0083115189998,1730.0083115189998,1730.0083115189998,1730.0083115189998,1732.0278359269998,1732.0278359269998,1732.0278359269998,1732.0278359269998,,,,,,,,,,,,,,,,,,,,,,,,,,,,,,,,,,,,,,,08,005,2022-09-23_10h28.56.744,test2,2022.2.4,59.8944893883693,
0,0,0,0,97,0,97,0,1732.0278359269998,1732.0278359269998,1732.0278359269998,1732.0278359269998,1732.0278359269998,1732.0278359269998,1732.0278359269998,1,1,azul,1,['N_B'],1733.62965689,1733.62965689,1733.62965689,1733.62965689,1735.649194972,1735.649194972,1735.649194972,1735.649194972,1735.649194972,1735.649194972,1735.649194972,1735.649194972,1737.6668931259999,1737.6668931259999,1737.6668931259999,1737.6668931259999,,,,,,,,,,,,,,,,,,,,,,,,,,,,,,,,,,,,,,,08,005,2022-09-23_10h28.56.744,test2,2022.2.4,59.8944893883693,
0,0,0,0,98,0,98,0,1737.6668931259999,1737.6668931259999,1737.6668931259999,1737.6668931259999,1737.6668931259999,1737.6668931259999,1737.6668931259999,1,-1,azul,0,['N_A'],1741.287572726,1741.287572726,1741.287572726,1741.287572726,1743.32404943,1743.32404943,1743.32404943,1743.32404943,1743.32404943,1743.32404943,1743.32404943,1743.32404943,1745.3426139179999,1745.3426139179999,1745.3426139179999,1745.3426139179999,,,,,,,,,,,,,,,,,,,,,,,,,,,,,,,,,,,,,,,08,005,2022-09-23_10h28.56.744,test2,2022.2.4,59.8944893883693,
0,0,0,0,99,0,99,0,1745.3426139179999,1745.3426139179999,1745.3426139179999,1745.3426139179999,1745.3426139179999,1745.3426139179999,1745.3426139179999,1,-1,rojo,1,['N_A'],1746.7108250170002,1746.7108250170002,1746.7108250170002,1746.7108250170002,1748.747173079,1748.747173079,1748.747173079,1748.747173079,1748.747173079,1748.747173079,1748.747173079,1748.747173079,1750.764866786,1750.764866786,1750.764866786,1750.764866786,,,,,,,,,,,,,,,,,,,,,,,,,,,,,,,,,,,,,,,08,005,2022-09-23_10h28.56.744,test2,2022.2.4,59.8944893883693,
0,0,0,0,100,0,100,0,1750.764866786,1750.764866786,1750.764866786,1750.764866786,1750.764866786,1750.764866786,1750.764866786,1,-1,rojo,0,['N_B'],1752.2328908010002,1752.2328908010002,1752.2328908010002,1752.2328908010002,1754.2697663780002,1754.2697663780002,1754.2697663780002,1754.2697663780002,1754.2697663780002,1754.2697663780002,1754.2697663780002,1754.2697663780002,1756.288105801,1756.288105801,1756.288105801,1756.288105801,,,,,,,,,,,,,,,,,,,,,,,,,,,,,,,,,,,,,,,08,005,2022-09-23_10h28.56.744,test2,2022.2.4,59.8944893883693,
0,0,0,0,101,0,101,0,1756.288105801,1756.288105801,1756.288105801,1756.288105801,1756.288105801,1756.288105801,1756.288105801,-1,-1,rojo,1,['N_B'],1757.639742698,1757.639742698,1757.639742698,1757.639742698,1759.6757254010001,1759.6757254010001,1759.6757254010001,1759.6757254010001,1759.6757254010001,1759.6757254010001,1759.6757254010001,1759.6757254010001,1761.6936648069998,1761.6936648069998,1761.6936648069998,1761.6936648069998,,,,,,,,,,,,,,,,,,,,,,,,,,,,,,,,,,,,,,,08,005,2022-09-23_10h28.56.744,test2,2022.2.4,59.8944893883693,
0,0,0,0,102,0,102,0,1761.6936648069998,1761.6936648069998,1761.6936648069998,1761.6936648069998,1761.6936648069998,1761.6936648069998,1761.6936648069998,1,-1,azul,1,['N_B'],1763.245972586,1763.245972586,1763.245972586,1763.245972586,1765.28182463,1765.28182463,1765.28182463,1765.28182463,1765.28182463,1765.28182463,1765.28182463,1765.28182463,1767.2997184980002,1767.2997184980002,1767.2997184980002,1767.2997184980002,,,,,,,,,,,,,,,,,,,,,,,,,,,,,,,,,,,,,,,08,005,2022-09-23_10h28.56.744,test2,2022.2.4,59.8944893883693,
0,0,0,0,103,0,103,0,1767.2997184980002,1767.2997184980002,1767.2997184980002,1767.2997184980002,1767.2997184980002,1767.2997184980002,1767.2997184980002,-1,-1,rojo,0,['N_A'],1768.701541571,1768.701541571,1768.701541571,1768.701541571,1770.72006068,1770.72006068,1770.72006068,1770.72006068,1770.72006068,1770.72006068,1770.72006068,1770.72006068,1772.739527897,1772.739527897,1772.739527897,1772.739527897,,,,,,,,,,,,,,,,,,,,,,,,,,,,,,,,,,,,,,,08,005,2022-09-23_10h28.56.744,test2,2022.2.4,59.8944893883693,
0,0,0,0,104,0,104,0,1772.739527897,1772.739527897,1772.739527897,1772.739527897,1772.739527897,1772.739527897,1772.739527897,-1,1,azul,1,['N_A'],1774.141181749,1774.141181749,1774.141181749,1774.141181749,1776.159685466,1776.159685466,1776.159685466,1776.159685466,1776.159685466,1776.159685466,1776.159685466,1776.159685466,1778.1783574960002,1778.1783574960002,1778.1783574960002,1778.1783574960002,,,,,,,,,,,,,,,,,,,,,,,,,,,,,,,,,,,,,,,08,005,2022-09-23_10h28.56.744,test2,2022.2.4,59.8944893883693,
0,0,0,0,105,0,105,0,1778.1783574960002,1778.1783574960002,1778.1783574960002,1778.1783574960002,1778.1783574960002,1778.1783574960002,1778.1783574960002,-1,-1,azul,1,['N_A'],1780.7830540759999,1780.7830540759999,1780.7830540759999,1780.7830540759999,1782.8174711630002,1782.8174711630002,1782.8174711630002,1782.8174711630002,1782.8174711630002,1782.8174711630002,1782.8174711630002,1782.8174711630002,1784.835657374,1784.835657374,1784.835657374,1784.835657374,,,,,,,,,,,,,,,,,,,,,,,,,,,,,,,,,,,,,,,08,005,2022-09-23_10h28.56.744,test2,2022.2.4,59.8944893883693,
0,0,0,0,106,0,106,0,1784.835657374,1784.835657374,1784.835657374,1784.835657374,1784.835657374,1784.835657374,1784.835657374,1,-1,rojo,0,['N_B'],1786.6208493259999,1786.6208493259999,1786.6208493259999,1786.6208493259999,1788.6571180530002,1788.6571180530002,1788.6571180530002,1788.6571180530002,1788.6571180530002,1788.6571180530002,1788.6571180530002,1788.6571180530002,1790.675624705,1790.675624705,1790.675624705,1790.675624705,,,,,,,,,,,,,,,,,,,,,,,,,,,,,,,,,,,,,,,08,005,2022-09-23_10h28.56.744,test2,2022.2.4,59.8944893883693,
0,0,0,0,107,0,107,0,1790.675624705,1790.675624705,1790.675624705,1790.675624705,1790.675624705,1790.675624705,1790.675624705,-1,-1,rojo,1,['N_B'],1792.2105987799998,1792.2105987799998,1792.2105987799998,1792.2105987799998,1794.2476133480002,1794.2476133480002,1794.2476133480002,1794.2476133480002,1794.2476133480002,1794.2476133480002,1794.2476133480002,1794.2476133480002,1796.2647664459998,1796.2647664459998,1796.2647664459998,1796.2647664459998,,,,,,,,,,,,,,,,,,,,,,,,,,,,,,,,,,,,,,,08,005,2022-09-23_10h28.56.744,test2,2022.2.4,59.8944893883693,
0,0,0,0,108,0,108,0,1796.2647664459998,1796.2647664459998,1796.2647664459998,1796.2647664459998,1796.2647664459998,1796.2647664459998,1796.2647664459998,-1,-1,rojo,1,['N_B'],1797.6000891699998,1797.6000891699998,1797.6000891699998,1797.6000891699998,1799.6365553950002,1799.6365553950002,1799.6365553950002,1799.6365553950002,1799.6365553950002,1799.6365553950002,1799.6365553950002,1799.6365553950002,1801.6544159470002,1801.6544159470002,1801.6544159470002,1801.6544159470002,,,,,,,,,,,,,,,,,,,,,,,,,,,,,,,,,,,,,,,08,005,2022-09-23_10h28.56.744,test2,2022.2.4,59.8944893883693,
0,0,0,0,109,0,109,0,1801.6544159470002,1801.6544159470002,1801.6544159470002,1801.6544159470002,1801.6544159470002,1801.6544159470002,1801.6544159470002,1,-1,azul,0,['N_A'],1803.0725363899999,1803.0725363899999,1803.0725363899999,1803.0725363899999,1805.1089714860002,1805.1089714860002,1805.1089714860002,1805.1089714860002,1805.1089714860002,1805.1089714860002,1805.1089714860002,1805.1089714860002,1807.1268397800002,1807.1268397800002,1807.1268397800002,1807.1268397800002,,,,,,,,,,,,,,,,,,,,,,,,,,,,,,,,,,,,,,,08,005,2022-09-23_10h28.56.744,test2,2022.2.4,59.8944893883693,
0,0,0,0,110,0,110,0,1807.1268397800002,1807.1268397800002,1807.1268397800002,1807.1268397800002,1807.1268397800002,1807.1268397800002,1807.1268397800002,1,-1,rojo,1,['N_A'],1808.69516137,1808.69516137,1808.69516137,1808.69516137,1810.714636938,1810.714636938,1810.714636938,1810.714636938,1810.714636938,1810.714636938,1810.714636938,1810.714636938,1812.734199632,1812.734199632,1812.734199632,1812.734199632,,,,,,,,,,,,,,,,,,,,,,,,,,,,,,,,,,,,,,,08,005,2022-09-23_10h28.56.744,test2,2022.2.4,59.8944893883693,
0,0,0,0,111,0,111,0,1812.734199632,1812.734199632,1812.734199632,1812.734199632,1812.734199632,1812.734199632,1812.734199632,1,1,rojo,1,['N_A'],1814.1516305020002,1814.1516305020002,1814.1516305020002,1814.1516305020002,1816.169985498,1816.169985498,1816.169985498,1816.169985498,1816.169985498,1816.169985498,1816.169985498,1816.169985498,1818.189538026,1818.189538026,1818.189538026,1818.189538026,,,,,,,,,,,,,,,,,,,,,,,,,,,,,,,,,,,,,,,08,005,2022-09-23_10h28.56.744,test2,2022.2.4,59.8944893883693,
0,0,0,0,112,0,112,0,1818.189538026,1818.189538026,1818.189538026,1818.189538026,1818.189538026,1818.189538026,1818.189538026,1,-1,rojo,0,['N_B'],1822.427244317,1822.427244317,1822.427244317,1822.427244317,1824.4635468449999,1824.4635468449999,1824.4635468449999,1824.4635468449999,1824.4635468449999,1824.4635468449999,1824.4635468449999,1824.4635468449999,1826.483018278,1826.483018278,1826.483018278,1826.483018278,,,,,,,,,,,,,,,,,,,,,,,,,,,,,,,,,,,,,,,08,005,2022-09-23_10h28.56.744,test2,2022.2.4,59.8944893883693,
0,0,0,0,113,0,113,0,1826.483018278,1826.483018278,1826.483018278,1826.483018278,1826.483018278,1826.483018278,1826.483018278,-1,-1,rojo,1,['N_B'],1828.083422639,1828.083422639,1828.083422639,1828.083422639,1830.1202251759998,1830.1202251759998,1830.1202251759998,1830.1202251759998,1830.1202251759998,1830.1202251759998,1830.1202251759998,1830.1202251759998,1832.1384887299998,1832.1384887299998,1832.1384887299998,1832.1384887299998,,,,,,,,,,,,,,,,,,,,,,,,,,,,,,,,,,,,,,,08,005,2022-09-23_10h28.56.744,test2,2022.2.4,59.8944893883693,
0,0,0,0,114,0,114,0,1832.1384887299998,1832.1384887299998,1832.1384887299998,1832.1384887299998,1832.1384887299998,1832.1384887299998,1832.1384887299998,1,-1,azul,0,['N_A'],1833.774147631,1833.774147631,1833.774147631,1833.774147631,1835.809981187,1835.809981187,1835.809981187,1835.809981187,1835.809981187,1835.809981187,1835.809981187,1835.809981187,1837.827595726,1837.827595726,1837.827595726,1837.827595726,,,,,,,,,,,,,,,,,,,,,,,,,,,,,,,,,,,,,,,08,005,2022-09-23_10h28.56.744,test2,2022.2.4,59.8944893883693,
0,0,0,0,115,0,115,0,1837.827595726,1837.827595726,1837.827595726,1837.827595726,1837.827595726,1837.827595726,1837.827595726,1,-1,rojo,0,['N_B'],1839.729944727,1839.729944727,1839.729944727,1839.729944727,1841.7666970980001,1841.7666970980001,1841.7666970980001,1841.7666970980001,1841.7666970980001,1841.7666970980001,1841.7666970980001,1841.7666970980001,1843.7841896910002,1843.7841896910002,1843.7841896910002,1843.7841896910002,,,,,,,,,,,,,,,,,,,,,,,,,,,,,,,,,,,,,,,08,005,2022-09-23_10h28.56.744,test2,2022.2.4,59.8944893883693,
0,0,0,0,116,0,116,0,1843.7841896910002,1843.7841896910002,1843.7841896910002,1843.7841896910002,1843.7841896910002,1843.7841896910002,1843.7841896910002,1,-1,azul,0,['N_A'],1845.469587928,1845.469587928,1845.469587928,1845.469587928,1847.488009803,1847.488009803,1847.488009803,1847.488009803,1847.488009803,1847.488009803,1847.488009803,1847.488009803,1849.5080545510002,1849.5080545510002,1849.5080545510002,1849.5080545510002,,,,,,,,,,,,,,,,,,,,,,,,,,,,,,,,,,,,,,,08,005,2022-09-23_10h28.56.744,test2,2022.2.4,59.8944893883693,
0,0,0,0,117,0,117,0,1849.5080545510002,1849.5080545510002,1849.5080545510002,1849.5080545510002,1849.5080545510002,1849.5080545510002,1849.5080545510002,-1,1,azul,1,['N_A'],1852.211371276,1852.211371276,1852.211371276,1852.211371276,1854.229702247,1854.229702247,1854.229702247,1854.229702247,1854.229702247,1854.229702247,1854.229702247,1854.229702247,1856.2474873600002,1856.2474873600002,1856.2474873600002,1856.2474873600002,,,,,,,,,,,,,,,,,,,,,,,,,,,,,,,,,,,,,,,08,005,2022-09-23_10h28.56.744,test2,2022.2.4,59.8944893883693,
0,0,0,0,118,0,118,0,1856.2474873600002,1856.2474873600002,1856.2474873600002,1856.2474873600002,1856.2474873600002,1856.2474873600002,1856.2474873600002,-1,-1,azul,1,['N_A'],1858.767471031,1858.767471031,1858.767471031,1858.767471031,1860.7869716879998,1860.7869716879998,1860.7869716879998,1860.7869716879998,1860.7869716879998,1860.7869716879998,1860.7869716879998,1860.7869716879998,1862.8059322269999,1862.8059322269999,1862.8059322269999,1862.8059322269999,,,,,,,,,,,,,,,,,,,,,,,,,,,,,,,,,,,,,,,08,005,2022-09-23_10h28.56.744,test2,2022.2.4,59.8944893883693,
0,0,0,0,119,0,119,0,1862.8059322269999,1862.8059322269999,1862.8059322269999,1862.8059322269999,1862.8059322269999,1862.8059322269999,1862.8059322269999,1,1,rojo,1,['N_A'],1864.1900847690001,1864.1900847690001,1864.1900847690001,1864.1900847690001,1866.2089821870002,1866.2089821870002,1866.2089821870002,1866.2089821870002,1866.2089821870002,1866.2089821870002,1866.2089821870002,1866.2089821870002,1868.2283012260002,1868.2283012260002,1868.2283012260002,1868.2283012260002,,,,,,,,,,,,,,,,,,,,,,,,,,,,,,,,,,,,,,,08,005,2022-09-23_10h28.56.744,test2,2022.2.4,59.8944893883693,
0,0,0,0,120,0,120,0,1868.2283012260002,1868.2283012260002,1868.2283012260002,1868.2283012260002,1868.2283012260002,1868.2283012260002,1868.2283012260002,1,-1,rojo,1,['N_A'],1869.6800075190001,1869.6800075190001,1869.6800075190001,1869.6800075190001,1871.716204089,1871.716204089,1871.716204089,1871.716204089,1871.716204089,1871.716204089,1871.716204089,1871.716204089,1873.7341652429998,1873.7341652429998,1873.7341652429998,1873.7341652429998,,,,,,,,,,,,,,,,,,,,,,,,,,,,,,,,,,,,,,,08,005,2022-09-23_10h28.56.744,test2,2022.2.4,59.8944893883693,
0,0,0,0,121,0,121,0,1873.7341652429998,1873.7341652429998,1873.7341652429998,1873.7341652429998,1873.7341652429998,1873.7341652429998,1873.7341652429998,1,-1,rojo,0,['N_B'],1875.1192455879998,1875.1192455879998,1875.1192455879998,1875.1192455879998,1877.155288778,1877.155288778,1877.155288778,1877.155288778,1877.155288778,1877.155288778,1877.155288778,1877.155288778,1879.1737856729999,1879.1737856729999,1879.1737856729999,1879.1737856729999,,,,,,,,,,,,,,,,,,,,,,,,,,,,,,,,,,,,,,,08,005,2022-09-23_10h28.56.744,test2,2022.2.4,59.8944893883693,
0,0,0,0,122,0,122,0,1879.1737856729999,1879.1737856729999,1879.1737856729999,1879.1737856729999,1879.1737856729999,1879.1737856729999,1879.1737856729999,1,-1,azul,1,['N_B'],1880.575356219,1880.575356219,1880.575356219,1880.575356219,1882.6110063190001,1882.6110063190001,1882.6110063190001,1882.6110063190001,1882.6110063190001,1882.6110063190001,1882.6110063190001,1882.6110063190001,1884.629057669,1884.629057669,1884.629057669,1884.629057669,,,,,,,,,,,,,,,,,,,,,,,,,,,,,,,,,,,,,,,08,005,2022-09-23_10h28.56.744,test2,2022.2.4,59.8944893883693,
0,0,0,0,123,0,123,0,1884.629057669,1884.629057669,1884.629057669,1884.629057669,1884.629057669,1884.629057669,1884.629057669,1,-1,azul,0,['N_A'],1885.9640051509998,1885.9640051509998,1885.9640051509998,1885.9640051509998,1888.0005272380001,1888.0005272380001,1888.0005272380001,1888.0005272380001,1888.0005272380001,1888.0005272380001,1888.0005272380001,1888.0005272380001,1890.0185337300002,1890.0185337300002,1890.0185337300002,1890.0185337300002,,,,,,,,,,,,,,,,,,,,,,,,,,,,,,,,,,,,,,,08,005,2022-09-23_10h28.56.744,test2,2022.2.4,59.8944893883693,
0,0,0,0,124,0,124,0,1890.0185337300002,1890.0185337300002,1890.0185337300002,1890.0185337300002,1890.0185337300002,1890.0185337300002,1890.0185337300002,1,-1,rojo,1,['N_A'],1892.154480292,1892.154480292,1892.154480292,1892.154480292,1894.173417833,1894.173417833,1894.173417833,1894.173417833,1894.173417833,1894.173417833,1894.173417833,1894.173417833,1896.191546588,1896.191546588,1896.191546588,1896.191546588,,,,,,,,,,,,,,,,,,,,,,,,,,,,,,,,,,,,,,,08,005,2022-09-23_10h28.56.744,test2,2022.2.4,59.8944893883693,
0,0,0,0,125,0,125,0,1896.191546588,1896.191546588,1896.191546588,1896.191546588,1896.191546588,1896.191546588,1896.191546588,1,1,rojo,1,['N_A'],1898.228375029,1898.228375029,1898.228375029,1898.228375029,1900.2468783309998,1900.2468783309998,1900.2468783309998,1900.2468783309998,1900.2468783309998,1900.2468783309998,1900.2468783309998,1900.2468783309998,1902.265692781,1902.265692781,1902.265692781,1902.265692781,,,,,,,,,,,,,,,,,,,,,,,,,,,,,,,,,,,,,,,08,005,2022-09-23_10h28.56.744,test2,2022.2.4,59.8944893883693,
0,0,0,0,126,0,126,0,1902.265692781,1902.265692781,1902.265692781,1902.265692781,1902.265692781,1902.265692781,1902.265692781,-1,-1,azul,1,['N_A'],1903.634683309,1903.634683309,1903.634683309,1903.634683309,1905.670463309,1905.670463309,1905.670463309,1905.670463309,1905.670463309,1905.670463309,1905.670463309,1905.670463309,1907.6884991919999,1907.6884991919999,1907.6884991919999,1907.6884991919999,,,,,,,,,,,,,,,,,,,,,,,,,,,,,,,,,,,,,,,08,005,2022-09-23_10h28.56.744,test2,2022.2.4,59.8944893883693,
0,0,0,0,127,0,127,0,1907.6884991919999,1907.6884991919999,1907.6884991919999,1907.6884991919999,1907.6884991919999,1907.6884991919999,1907.6884991919999,1,-1,rojo,1,['N_A'],1909.0560904000001,1909.0560904000001,1909.0560904000001,1909.0560904000001,1911.092700597,1911.092700597,1911.092700597,1911.092700597,1911.092700597,1911.092700597,1911.092700597,1911.092700597,1913.1102574620002,1913.1102574620002,1913.1102574620002,1913.1102574620002,,,,,,,,,,,,,,,,,,,,,,,,,,,,,,,,,,,,,,,08,005,2022-09-23_10h28.56.744,test2,2022.2.4,59.8944893883693,
0,0,0,0,128,0,128,0,1913.1102574620002,1913.1102574620002,1913.1102574620002,1913.1102574620002,1913.1102574620002,1913.1102574620002,1913.1102574620002,-1,-1,azul,1,['N_A'],1914.5286831189999,1914.5286831189999,1914.5286831189999,1914.5286831189999,1916.565692941,1916.565692941,1916.565692941,1916.565692941,1916.565692941,1916.565692941,1916.565692941,1916.565692941,1918.5836083030001,1918.5836083030001,1918.5836083030001,1918.5836083030001,,,,,,,,,,,,,,,,,,,,,,,,,,,,,,,,,,,,,,,08,005,2022-09-23_10h28.56.744,test2,2022.2.4,59.8944893883693,
0,0,0,0,129,0,129,0,1918.5836083030001,1918.5836083030001,1918.5836083030001,1918.5836083030001,1918.5836083030001,1918.5836083030001,1918.5836083030001,1,-1,rojo,0,['N_B'],1920.0852829070002,1920.0852829070002,1920.0852829070002,1920.0852829070002,1922.1220490070002,1922.1220490070002,1922.1220490070002,1922.1220490070002,1922.1220490070002,1922.1220490070002,1922.1220490070002,1922.1220490070002,1924.1392399200001,1924.1392399200001,1924.1392399200001,1924.1392399200001,,,,,,,,,,,,,,,,,,,,,,,,,,,,,,,,,,,,,,,08,005,2022-09-23_10h28.56.744,test2,2022.2.4,59.8944893883693,
0,0,0,0,130,0,130,0,1924.1392399200001,1924.1392399200001,1924.1392399200001,1924.1392399200001,1924.1392399200001,1924.1392399200001,1924.1392399200001,1,-1,azul,1,['N_B'],1925.6246506270002,1925.6246506270002,1925.6246506270002,1925.6246506270002,1927.661004496,1927.661004496,1927.661004496,1927.661004496,1927.661004496,1927.661004496,1927.661004496,1927.661004496,1929.6795396129999,1929.6795396129999,1929.6795396129999,1929.6795396129999,,,,,,,,,,,,,,,,,,,,,,,,,,,,,,,,,,,,,,,08,005,2022-09-23_10h28.56.744,test2,2022.2.4,59.8944893883693,
0,0,0,0,131,0,131,0,1929.6795396129999,1929.6795396129999,1929.6795396129999,1929.6795396129999,1929.6795396129999,1929.6795396129999,1929.6795396129999,1,-1,azul,1,['N_B'],1931.014126719,1931.014126719,1931.014126719,1931.014126719,1933.0497510429998,1933.0497510429998,1933.0497510429998,1933.0497510429998,1933.0497510429998,1933.0497510429998,1933.0497510429998,1933.0497510429998,1935.067887121,1935.067887121,1935.067887121,1935.067887121,,,,,,,,,,,,,,,,,,,,,,,,,,,,,,,,,,,,,,,08,005,2022-09-23_10h28.56.744,test2,2022.2.4,59.8944893883693,
0,0,0,0,132,0,132,0,1935.067887121,1935.067887121,1935.067887121,1935.067887121,1935.067887121,1935.067887121,1935.067887121,1,-1,azul,0,['N_A'],1936.637101959,1936.637101959,1936.637101959,1936.637101959,1938.6731398149998,1938.6731398149998,1938.6731398149998,1938.6731398149998,1938.6731398149998,1938.6731398149998,1938.6731398149998,1938.6731398149998,1940.690879985,1940.690879985,1940.690879985,1940.690879985,,,,,,,,,,,,,,,,,,,,,,,,,,,,,,,,,,,,,,,08,005,2022-09-23_10h28.56.744,test2,2022.2.4,59.8944893883693,
0,0,0,0,133,0,133,0,1940.690879985,1940.690879985,1940.690879985,1940.690879985,1940.690879985,1940.690879985,1940.690879985,-1,-1,azul,1,['N_A'],1942.059817728,1942.059817728,1942.059817728,1942.059817728,1944.09634665,1944.09634665,1944.09634665,1944.09634665,1944.09634665,1944.09634665,1944.09634665,1944.09634665,1946.1134221199998,1946.1134221199998,1946.1134221199998,1946.1134221199998,,,,,,,,,,,,,,,,,,,,,,,,,,,,,,,,,,,,,,,08,005,2022-09-23_10h28.56.744,test2,2022.2.4,59.8944893883693,
0,0,0,0,134,0,134,0,1946.1134221199998,1946.1134221199998,1946.1134221199998,1946.1134221199998,1946.1134221199998,1946.1134221199998,1946.1134221199998,-1,-1,azul,1,['N_A'],1947.498860085,1947.498860085,1947.498860085,1947.498860085,1949.5183774949999,1949.5183774949999,1949.5183774949999,1949.5183774949999,1949.5183774949999,1949.5183774949999,1949.5183774949999,1949.5183774949999,1951.5364286810002,1951.5364286810002,1951.5364286810002,1951.5364286810002,,,,,,,,,,,,,,,,,,,,,,,,,,,,,,,,,,,,,,,08,005,2022-09-23_10h28.56.744,test2,2022.2.4,59.8944893883693,
0,0,0,0,135,0,135,0,1951.5364286810002,1951.5364286810002,1951.5364286810002,1951.5364286810002,1951.5364286810002,1951.5364286810002,1951.5364286810002,1,1,rojo,1,['N_A'],1953.1563517850002,1953.1563517850002,1953.1563517850002,1953.1563517850002,1955.1733841389998,1955.1733841389998,1955.1733841389998,1955.1733841389998,1955.1733841389998,1955.1733841389998,1955.1733841389998,1955.1733841389998,1957.19271001,1957.19271001,1957.19271001,1957.19271001,,,,,,,,,,,,,,,,,,,,,,,,,,,,,,,,,,,,,,,08,005,2022-09-23_10h28.56.744,test2,2022.2.4,59.8944893883693,
0,0,0,0,136,0,136,0,1957.19271001,1957.19271001,1957.19271001,1957.19271001,1957.19271001,1957.19271001,1957.19271001,1,-1,rojo,1,['N_A'],1959.9619726899998,1959.9619726899998,1959.9619726899998,1959.9619726899998,1961.9808720130002,1961.9808720130002,1961.9808720130002,1961.9808720130002,1961.9808720130002,1961.9808720130002,1961.9808720130002,1961.9808720130002,1964.0003935910001,1964.0003935910001,1964.0003935910001,1964.0003935910001,,,,,,,,,,,,,,,,,,,,,,,,,,,,,,,,,,,,,,,08,005,2022-09-23_10h28.56.744,test2,2022.2.4,59.8944893883693,
0,0,0,0,137,0,137,0,1964.0003935910001,1964.0003935910001,1964.0003935910001,1964.0003935910001,1964.0003935910001,1964.0003935910001,1964.0003935910001,1,1,rojo,1,['N_A'],1965.6020003719998,1965.6020003719998,1965.6020003719998,1965.6020003719998,1967.6212527209998,1967.6212527209998,1967.6212527209998,1967.6212527209998,1967.6212527209998,1967.6212527209998,1967.6212527209998,1967.6212527209998,1969.639374945,1969.639374945,1969.639374945,1969.639374945,,,,,,,,,,,,,,,,,,,,,,,,,,,,,,,,,,,,,,,08,005,2022-09-23_10h28.56.744,test2,2022.2.4,59.8944893883693,
0,0,0,0,138,0,138,0,1969.639374945,1969.639374945,1969.639374945,1969.639374945,1969.639374945,1969.639374945,1969.639374945,-1,-1,azul,1,['N_A'],1971.1912121019998,1971.1912121019998,1971.1912121019998,1971.1912121019998,1973.228193749,1973.228193749,1973.228193749,1973.228193749,1973.228193749,1973.228193749,1973.228193749,1973.228193749,1975.246335771,1975.246335771,1975.246335771,1975.246335771,,,,,,,,,,,,,,,,,,,,,,,,,,,,,,,,,,,,,,,08,005,2022-09-23_10h28.56.744,test2,2022.2.4,59.8944893883693,
0,0,0,0,139,0,139,0,1975.246335771,1975.246335771,1975.246335771,1975.246335771,1975.246335771,1975.246335771,1975.246335771,-1,-1,azul,0,['N_B'],1976.663956406,1976.663956406,1976.663956406,1976.663956406,1978.700438471,1978.700438471,1978.700438471,1978.700438471,1978.700438471,1978.700438471,1978.700438471,1978.700438471,1980.719033225,1980.719033225,1980.719033225,1980.719033225,,,,,,,,,,,,,,,,,,,,,,,,,,,,,,,,,,,,,,,08,005,2022-09-23_10h28.56.744,test2,2022.2.4,59.8944893883693,
0,0,0,0,140,0,140,0,1980.719033225,1980.719033225,1980.719033225,1980.719033225,1980.719033225,1980.719033225,1980.719033225,1,-1,azul,1,['N_B'],1982.170465943,1982.170465943,1982.170465943,1982.170465943,1984.2066292000002,1984.2066292000002,1984.2066292000002,1984.2066292000002,1984.2066292000002,1984.2066292000002,1984.2066292000002,1984.2066292000002,1986.225182806,1986.225182806,1986.225182806,1986.225182806,,,,,,,,,,,,,,,,,,,,,,,,,,,,,,,,,,,,,,,08,005,2022-09-23_10h28.56.744,test2,2022.2.4,59.8944893883693,
0,0,0,0,141,0,141,0,1986.225182806,1986.225182806,1986.225182806,1986.225182806,1986.225182806,1986.225182806,1986.225182806,1,-1,azul,1,['N_B'],1987.6102107519998,1987.6102107519998,1987.6102107519998,1987.6102107519998,1989.645849659,1989.645849659,1989.645849659,1989.645849659,1989.645849659,1989.645849659,1989.645849659,1989.645849659,1991.6641291530002,1991.6641291530002,1991.6641291530002,1991.6641291530002,,,,,,,,,,,,,,,,,,,,,,,,,,,,,,,,,,,,,,,08,005,2022-09-23_10h28.56.744,test2,2022.2.4,59.8944893883693,
0,0,0,0,142,0,142,0,1991.6641291530002,1991.6641291530002,1991.6641291530002,1991.6641291530002,1991.6641291530002,1991.6641291530002,1991.6641291530002,1,-1,azul,0,['N_A'],1993.031844249,1993.031844249,1993.031844249,1993.031844249,1995.0510215820002,1995.0510215820002,1995.0510215820002,1995.0510215820002,1995.0510215820002,1995.0510215820002,1995.0510215820002,1995.0510215820002,1997.069775396,1997.069775396,1997.069775396,1997.069775396,,,,,,,,,,,,,,,,,,,,,,,,,,,,,,,,,,,,,,,08,005,2022-09-23_10h28.56.744,test2,2022.2.4,59.8944893883693,
0,0,0,0,143,0,143,0,1997.069775396,1997.069775396,1997.069775396,1997.069775396,1997.069775396,1997.069775396,1997.069775396,1,1,rojo,1,['N_A'],1998.471857671,1998.471857671,1998.471857671,1998.471857671,2000.4912721489998,2000.4912721489998,2000.4912721489998,2000.4912721489998,2000.4912721489998,2000.4912721489998,2000.4912721489998,2000.4912721489998,2002.509781559,2002.509781559,2002.509781559,2002.509781559,,,,,,,,,,,,,,,,,,,,,,,,,,,,,,,,,,,,,,,08,005,2022-09-23_10h28.56.744,test2,2022.2.4,59.8944893883693,
0,0,0,0,144,0,144,0,2002.509781559,2002.509781559,2002.509781559,2002.509781559,2002.509781559,2002.509781559,2002.509781559,-1,1,azul,1,['N_A'],2003.860903948,2003.860903948,2003.860903948,2003.860903948,2005.879592176,2005.879592176,2005.879592176,2005.879592176,2005.879592176,2005.879592176,2005.879592176,2005.879592176,2007.8989185399998,2007.8989185399998,2007.8989185399998,2007.8989185399998,,,,,,,,,,,,,,,,,,,,,,,,,,,,,,,,,,,,,,,08,005,2022-09-23_10h28.56.744,test2,2022.2.4,59.8944893883693,
0,0,0,0,145,0,145,0,2007.8989185399998,2007.8989185399998,2007.8989185399998,2007.8989185399998,2007.8989185399998,2007.8989185399998,2007.8989185399998,-1,-1,azul,1,['N_A'],2009.21677041,2009.21677041,2009.21677041,2009.21677041,2011.235215683,2011.235215683,2011.235215683,2011.235215683,2011.235215683,2011.235215683,2011.235215683,2011.235215683,2013.2552230929998,2013.2552230929998,2013.2552230929998,2013.2552230929998,,,,,,,,,,,,,,,,,,,,,,,,,,,,,,,,,,,,,,,08,005,2022-09-23_10h28.56.744,test2,2022.2.4,59.8944893883693,
0,0,0,0,146,0,146,0,2013.2552230929998,2013.2552230929998,2013.2552230929998,2013.2552230929998,2013.2552230929998,2013.2552230929998,2013.2552230929998,1,1,rojo,1,['N_A'],2014.5726894430002,2014.5726894430002,2014.5726894430002,2014.5726894430002,2016.5915561109998,2016.5915561109998,2016.5915561109998,2016.5915561109998,2016.5915561109998,2016.5915561109998,2016.5915561109998,2016.5915561109998,2018.610652269,2018.610652269,2018.610652269,2018.610652269,,,,,,,,,,,,,,,,,,,,,,,,,,,,,,,,,,,,,,,08,005,2022-09-23_10h28.56.744,test2,2022.2.4,59.8944893883693,
0,0,0,0,147,0,147,0,2018.610652269,2018.610652269,2018.610652269,2018.610652269,2018.610652269,2018.610652269,2018.610652269,1,1,rojo,1,['N_A'],2020.0121565020002,2020.0121565020002,2020.0121565020002,2020.0121565020002,2022.0313068910002,2022.0313068910002,2022.0313068910002,2022.0313068910002,2022.0313068910002,2022.0313068910002,2022.0313068910002,2022.0313068910002,2024.0496755319998,2024.0496755319998,2024.0496755319998,2024.0496755319998,,,,,,,,,,,,,,,,,,,,,,,,,,,,,,,,,,,,,,,08,005,2022-09-23_10h28.56.744,test2,2022.2.4,59.8944893883693,
0,0,0,0,148,0,148,0,2024.0496755319998,2024.0496755319998,2024.0496755319998,2024.0496755319998,2024.0496755319998,2024.0496755319998,2024.0496755319998,-1,-1,azul,1,['N_A'],2025.368470145,2025.368470145,2025.368470145,2025.368470145,2027.4041089300001,2027.4041089300001,2027.4041089300001,2027.4041089300001,2027.4041089300001,2027.4041089300001,2027.4041089300001,2027.4041089300001,2029.422571582,2029.422571582,2029.422571582,2029.422571582,,,,,,,,,,,,,,,,,,,,,,,,,,,,,,,,,,,,,,,08,005,2022-09-23_10h28.56.744,test2,2022.2.4,59.8944893883693,
0,0,0,0,149,0,149,0,2029.422571582,2029.422571582,2029.422571582,2029.422571582,2029.422571582,2029.422571582,2029.422571582,-1,-1,azul,1,['N_A'],2030.756854976,2030.756854976,2030.756854976,2030.756854976,2032.79341464,2032.79341464,2032.79341464,2032.79341464,2032.79341464,2032.79341464,2032.79341464,2032.79341464,2034.812652718,2034.812652718,2034.812652718,2034.812652718,,,,,,,,,,,,,,,,,,,,,,,,,,,,,,,,,,,,,,,08,005,2022-09-23_10h28.56.744,test2,2022.2.4,59.8944893883693,
0,0,0,0,150,0,150,0,2034.812652718,2034.812652718,2034.812652718,2034.812652718,2034.812652718,2034.812652718,2034.812652718,1,-1,rojo,1,['N_A'],2036.3963964379998,2036.3963964379998,2036.3963964379998,2036.3963964379998,2038.4331562680002,2038.4331562680002,2038.4331562680002,2038.4331562680002,2038.4331562680002,2038.4331562680002,2038.4331562680002,2038.4331562680002,2040.451264399,2040.451264399,2040.451264399,2040.451264399,,,,,,,,,,,,,,,,,,,,,,,,,,,,,,,,,,,,,,,08,005,2022-09-23_10h28.56.744,test2,2022.2.4,59.8944893883693,
0,0,0,0,151,0,151,0,2040.451264399,2040.451264399,2040.451264399,2040.451264399,2040.451264399,2040.451264399,2040.451264399,1,-1,rojo,1,['N_A'],2041.870393259,2041.870393259,2041.870393259,2041.870393259,2043.8892125720001,2043.8892125720001,2043.8892125720001,2043.8892125720001,2043.8892125720001,2043.8892125720001,2043.8892125720001,2043.8892125720001,2045.907617136,2045.907617136,2045.907617136,2045.907617136,,,,,,,,,,,,,,,,,,,,,,,,,,,,,,,,,,,,,,,08,005,2022-09-23_10h28.56.744,test2,2022.2.4,59.8944893883693,
0,0,0,0,152,0,152,0,2045.907617136,2045.907617136,2045.907617136,2045.907617136,2045.907617136,2045.907617136,2045.907617136,1,1,rojo,1,['N_A'],2047.2253965950001,2047.2253965950001,2047.2253965950001,2047.2253965950001,2049.2443537810004,2049.2443537810004,2049.2443537810004,2049.2443537810004,2049.2443537810004,2049.2443537810004,2049.2443537810004,2049.2443537810004,2051.263020558,2051.263020558,2051.263020558,2051.263020558,,,,,,,,,,,,,,,,,,,,,,,,,,,,,,,,,,,,,,,08,005,2022-09-23_10h28.56.744,test2,2022.2.4,59.8944893883693,
0,0,0,0,153,0,153,0,2051.263020558,2051.263020558,2051.263020558,2051.263020558,2051.263020558,2051.263020558,2051.263020558,-1,-1,azul,1,['N_A'],2052.6980650140003,2052.6980650140003,2052.6980650140003,2052.6980650140003,2054.734238743,2054.734238743,2054.734238743,2054.734238743,2054.734238743,2054.734238743,2054.734238743,2054.734238743,2056.752376089,2056.752376089,2056.752376089,2056.752376089,,,,,,,,,,,,,,,,,,,,,,,,,,,,,,,,,,,,,,,08,005,2022-09-23_10h28.56.744,test2,2022.2.4,59.8944893883693,
0,0,0,0,154,0,154,0,2056.752376089,2056.752376089,2056.752376089,2056.752376089,2056.752376089,2056.752376089,2056.752376089,-1,-1,azul,1,['N_A'],2058.087729619,2058.087729619,2058.087729619,2058.087729619,2060.1239254290003,2060.1239254290003,2060.1239254290003,2060.1239254290003,2060.1239254290003,2060.1239254290003,2060.1239254290003,2060.1239254290003,2062.1417828189997,2062.1417828189997,2062.1417828189997,2062.1417828189997,,,,,,,,,,,,,,,,,,,,,,,,,,,,,,,,,,,,,,,08,005,2022-09-23_10h28.56.744,test2,2022.2.4,59.8944893883693,
0,0,0,0,155,0,155,0,2062.1417828189997,2062.1417828189997,2062.1417828189997,2062.1417828189997,2062.1417828189997,2062.1417828189997,2062.1417828189997,-1,-1,azul,1,['N_A'],2063.4772472510003,2063.4772472510003,2063.4772472510003,2063.4772472510003,2065.496093369,2065.496093369,2065.496093369,2065.496093369,2065.496093369,2065.496093369,2065.496093369,2065.496093369,2067.5139419469997,2067.5139419469997,2067.5139419469997,2067.5139419469997,,,,,,,,,,,,,,,,,,,,,,,,,,,,,,,,,,,,,,,08,005,2022-09-23_10h28.56.744,test2,2022.2.4,59.8944893883693,
0,0,0,0,156,0,156,0,2067.5139419469997,2067.5139419469997,2067.5139419469997,2067.5139419469997,2067.5139419469997,2067.5139419469997,2067.5139419469997,1,1,rojo,1,['N_A'],2068.899867868,2068.899867868,2068.899867868,2068.899867868,2070.919038627,2070.919038627,2070.919038627,2070.919038627,2070.919038627,2070.919038627,2070.919038627,2070.919038627,2072.9375483530002,2072.9375483530002,2072.9375483530002,2072.9375483530002,,,,,,,,,,,,,,,,,,,,,,,,,,,,,,,,,,,,,,,08,005,2022-09-23_10h28.56.744,test2,2022.2.4,59.8944893883693,
0,0,0,0,157,0,157,0,2072.9375483530002,2072.9375483530002,2072.9375483530002,2072.9375483530002,2072.9375483530002,2072.9375483530002,2072.9375483530002,-1,-1,azul,1,['N_A'],2074.355265798,2074.355265798,2074.355265798,2074.355265798,2076.391909162,2076.391909162,2076.391909162,2076.391909162,2076.391909162,2076.391909162,2076.391909162,2076.391909162,2078.4108575339997,2078.4108575339997,2078.4108575339997,2078.4108575339997,,,,,,,,,,,,,,,,,,,,,,,,,,,,,,,,,,,,,,,08,005,2022-09-23_10h28.56.744,test2,2022.2.4,59.8944893883693,
0,0,0,0,158,0,158,0,2078.4108575339997,2078.4108575339997,2078.4108575339997,2078.4108575339997,2078.4108575339997,2078.4108575339997,2078.4108575339997,1,-1,rojo,1,['N_A'],2079.711727027,2079.711727027,2079.711727027,2079.711727027,2081.7474534109997,2081.7474534109997,2081.7474534109997,2081.7474534109997,2081.7474534109997,2081.7474534109997,2081.7474534109997,2081.7474534109997,2083.765205922,2083.765205922,2083.765205922,2083.765205922,,,,,,,,,,,,,,,,,,,,,,,,,,,,,,,,,,,,,,,08,005,2022-09-23_10h28.56.744,test2,2022.2.4,59.8944893883693,
0,0,0,0,159,0,159,0,2083.765205922,2083.765205922,2083.765205922,2083.765205922,2083.765205922,2083.765205922,2083.765205922,-1,-1,azul,1,['N_A'],2085.15002035,2085.15002035,2085.15002035,2085.15002035,2087.1868534630003,2087.1868534630003,2087.1868534630003,2087.1868534630003,2087.1868534630003,2087.1868534630003,2087.1868534630003,2087.1868534630003,2089.2046154259997,2089.2046154259997,2089.2046154259997,2089.2046154259997,,,,,,,,,,,,,,,,,,,,,,,,,,,,,,,,,,,,,,,08,005,2022-09-23_10h28.56.744,test2,2022.2.4,59.8944893883693,
0,0,0,0,160,0,160,0,2089.2046154259997,2089.2046154259997,2089.2046154259997,2089.2046154259997,2089.2046154259997,2089.2046154259997,2089.2046154259997,1,-1,rojo,0,['N_B'],2090.723795178,2090.723795178,2090.723795178,2090.723795178,2092.742747597,2092.742747597,2092.742747597,2092.742747597,2092.742747597,2092.742747597,2092.742747597,2092.742747597,2094.760952812,2094.760952812,2094.760952812,2094.760952812,,,,,,,,,,,,,,,,,,,,,,,,,,,,,,,,,,,,,,,08,005,2022-09-23_10h28.56.744,test2,2022.2.4,59.8944893883693,
0,0,0,0,161,0,161,0,2094.760952812,2094.760952812,2094.760952812,2094.760952812,2094.760952812,2094.760952812,2094.760952812,1,1,azul,1,['N_B'],2096.1463063519996,2096.1463063519996,2096.1463063519996,2096.1463063519996,2098.164710711,2098.164710711,2098.164710711,2098.164710711,2098.164710711,2098.164710711,2098.164710711,2098.164710711,2100.1842244609998,2100.1842244609998,2100.1842244609998,2100.1842244609998,,,,,,,,,,,,,,,,,,,,,,,,,,,,,,,,,,,,,,,08,005,2022-09-23_10h28.56.744,test2,2022.2.4,59.8944893883693,
0,0,0,0,162,0,162,0,2100.1842244609998,2100.1842244609998,2100.1842244609998,2100.1842244609998,2100.1842244609998,2100.1842244609998,2100.1842244609998,1,-1,azul,1,['N_B'],2101.7031810790004,2101.7031810790004,2101.7031810790004,2101.7031810790004,2103.7207531169997,2103.7207531169997,2103.7207531169997,2103.7207531169997,2103.7207531169997,2103.7207531169997,2103.7207531169997,2103.7207531169997,2105.740809868,2105.740809868,2105.740809868,2105.740809868,,,,,,,,,,,,,,,,,,,,,,,,,,,,,,,,,,,,,,,08,005,2022-09-23_10h28.56.744,test2,2022.2.4,59.8944893883693,
0,0,0,0,163,0,163,0,2105.740809868,2105.740809868,2105.740809868,2105.740809868,2105.740809868,2105.740809868,2105.740809868,1,1,azul,1,['N_B'],2107.1080110089997,2107.1080110089997,2107.1080110089997,2107.1080110089997,2109.1275848900004,2109.1275848900004,2109.1275848900004,2109.1275848900004,2109.1275848900004,2109.1275848900004,2109.1275848900004,2109.1275848900004,2111.145539665,2111.145539665,2111.145539665,2111.145539665,,,,,,,,,,,,,,,,,,,,,,,,,,,,,,,,,,,,,,,08,005,2022-09-23_10h28.56.744,test2,2022.2.4,59.8944893883693,
0,0,0,0,164,0,164,0,2111.145539665,2111.145539665,2111.145539665,2111.145539665,2111.145539665,2111.145539665,2111.145539665,1,-1,azul,1,['N_B'],2112.497493584,2112.497493584,2112.497493584,2112.497493584,2114.5337569679996,2114.5337569679996,2114.5337569679996,2114.5337569679996,2114.5337569679996,2114.5337569679996,2114.5337569679996,2114.5337569679996,2116.5516383820004,2116.5516383820004,2116.5516383820004,2116.5516383820004,,,,,,,,,,,,,,,,,,,,,,,,,,,,,,,,,,,,,,,08,005,2022-09-23_10h28.56.744,test2,2022.2.4,59.8944893883693,
0,0,0,0,165,0,165,0,2116.5516383820004,2116.5516383820004,2116.5516383820004,2116.5516383820004,2116.5516383820004,2116.5516383820004,2116.5516383820004,-1,-1,rojo,1,['N_B'],2117.969802546,2117.969802546,2117.969802546,2117.969802546,2120.0060179969996,2120.0060179969996,2120.0060179969996,2120.0060179969996,2120.0060179969996,2120.0060179969996,2120.0060179969996,2120.0060179969996,2122.026102723,2122.026102723,2122.026102723,2122.026102723,,,,,,,,,,,,,,,,,,,,,,,,,,,,,,,,,,,,,,,08,005,2022-09-23_10h28.56.744,test2,2022.2.4,59.8944893883693,
0,0,0,0,166,0,166,0,2122.026102723,2122.026102723,2122.026102723,2122.026102723,2122.026102723,2122.026102723,2122.026102723,1,-1,azul,0,['N_A'],2123.626604442,2123.626604442,2123.626604442,2123.626604442,2125.662806149,2125.662806149,2125.662806149,2125.662806149,2125.662806149,2125.662806149,2125.662806149,2125.662806149,2127.680731169,2127.680731169,2127.680731169,2127.680731169,,,,,,,,,,,,,,,,,,,,,,,,,,,,,,,,,,,,,,,08,005,2022-09-23_10h28.56.744,test2,2022.2.4,59.8944893883693,
0,0,0,0,167,0,167,0,2127.680731169,2127.680731169,2127.680731169,2127.680731169,2127.680731169,2127.680731169,2127.680731169,-1,-1,azul,1,['N_A'],2129.067240632,2129.067240632,2129.067240632,2129.067240632,2131.1026427569996,2131.1026427569996,2131.1026427569996,2131.1026427569996,2131.1026427569996,2131.1026427569996,2131.1026427569996,2131.1026427569996,2133.120029334,2133.120029334,2133.120029334,2133.120029334,,,,,,,,,,,,,,,,,,,,,,,,,,,,,,,,,,,,,,,08,005,2022-09-23_10h28.56.744,test2,2022.2.4,59.8944893883693,
0,0,0,0,168,0,168,0,2133.120029334,2133.120029334,2133.120029334,2133.120029334,2133.120029334,2133.120029334,2133.120029334,-1,-1,azul,1,['N_A'],2134.488408002,2134.488408002,2134.488408002,2134.488408002,2136.5253553660004,2136.5253553660004,2136.5253553660004,2136.5253553660004,2136.5253553660004,2136.5253553660004,2136.5253553660004,2136.5253553660004,2138.5430666479997,2138.5430666479997,2138.5430666479997,2138.5430666479997,,,,,,,,,,,,,,,,,,,,,,,,,,,,,,,,,,,,,,,08,005,2022-09-23_10h28.56.744,test2,2022.2.4,59.8944893883693,
0,0,0,0,169,0,169,0,2138.5430666479997,2138.5430666479997,2138.5430666479997,2138.5430666479997,2138.5430666479997,2138.5430666479997,2138.5430666479997,1,-1,rojo,1,['N_A'],2139.8946120640003,2139.8946120640003,2139.8946120640003,2139.8946120640003,2141.9129192660002,2141.9129192660002,2141.9129192660002,2141.9129192660002,2141.9129192660002,2141.9129192660002,2141.9129192660002,2141.9129192660002,2143.9322615399997,2143.9322615399997,2143.9322615399997,2143.9322615399997,,,,,,,,,,,,,,,,,,,,,,,,,,,,,,,,,,,,,,,08,005,2022-09-23_10h28.56.744,test2,2022.2.4,59.8944893883693,
0,0,0,0,170,0,170,0,2143.9322615399997,2143.9322615399997,2143.9322615399997,2143.9322615399997,2143.9322615399997,2143.9322615399997,2143.9322615399997,1,1,rojo,1,['N_A'],2145.2673496899997,2145.2673496899997,2145.2673496899997,2145.2673496899997,2147.2864622770003,2147.2864622770003,2147.2864622770003,2147.2864622770003,2147.2864622770003,2147.2864622770003,2147.2864622770003,2147.2864622770003,2149.3049365670004,2149.3049365670004,2149.3049365670004,2149.3049365670004,,,,,,,,,,,,,,,,,,,,,,,,,,,,,,,,,,,,,,,08,005,2022-09-23_10h28.56.744,test2,2022.2.4,59.8944893883693,
0,0,0,0,171,0,171,0,2149.3049365670004,2149.3049365670004,2149.3049365670004,2149.3049365670004,2149.3049365670004,2149.3049365670004,2149.3049365670004,-1,-1,azul,0,['N_B'],2151.1563285459997,2151.1563285459997,2151.1563285459997,2151.1563285459997,2153.1936203409996,2153.1936203409996,2153.1936203409996,2153.1936203409996,2153.1936203409996,2153.1936203409996,2153.1936203409996,2153.1936203409996,2155.2109477370004,2155.2109477370004,2155.2109477370004,2155.2109477370004,,,,,,,,,,,,,,,,,,,,,,,,,,,,,,,,,,,,,,,08,005,2022-09-23_10h28.56.744,test2,2022.2.4,59.8944893883693,
0,0,0,0,172,0,172,0,2155.2109477370004,2155.2109477370004,2155.2109477370004,2155.2109477370004,2155.2109477370004,2155.2109477370004,2155.2109477370004,1,-1,azul,1,['N_B'],2157.2138576979996,2157.2138576979996,2157.2138576979996,2157.2138576979996,2159.2497444729997,2159.2497444729997,2159.2497444729997,2159.2497444729997,2159.2497444729997,2159.2497444729997,2159.2497444729997,2159.2497444729997,2161.2683190139996,2161.2683190139996,2161.2683190139996,2161.2683190139996,,,,,,,,,,,,,,,,,,,,,,,,,,,,,,,,,,,,,,,08,005,2022-09-23_10h28.56.744,test2,2022.2.4,59.8944893883693,
0,0,0,0,173,0,173,0,2161.2683190139996,2161.2683190139996,2161.2683190139996,2161.2683190139996,2161.2683190139996,2161.2683190139996,2161.2683190139996,1,-1,azul,1,['N_B'],2163.9204387560003,2163.9204387560003,2163.9204387560003,2163.9204387560003,2165.9396486980004,2165.9396486980004,2165.9396486980004,2165.9396486980004,2165.9396486980004,2165.9396486980004,2165.9396486980004,2165.9396486980004,2167.9588751499996,2167.9588751499996,2167.9588751499996,2167.9588751499996,,,,,,,,,,,,,,,,,,,,,,,,,,,,,,,,,,,,,,,08,005,2022-09-23_10h28.56.744,test2,2022.2.4,59.8944893883693,
0,0,0,0,174,0,174,0,2167.9588751499996,2167.9588751499996,2167.9588751499996,2167.9588751499996,2167.9588751499996,2167.9588751499996,2167.9588751499996,1,1,azul,1,['N_B'],2169.326721745,2169.326721745,2169.326721745,2169.326721745,2171.3460647399997,2171.3460647399997,2171.3460647399997,2171.3460647399997,2171.3460647399997,2171.3460647399997,2171.3460647399997,2171.3460647399997,2173.364853317,2173.364853317,2173.364853317,2173.364853317,,,,,,,,,,,,,,,,,,,,,,,,,,,,,,,,,,,,,,,08,005,2022-09-23_10h28.56.744,test2,2022.2.4,59.8944893883693,
0,0,0,0,175,0,175,0,2173.364853317,2173.364853317,2173.364853317,2173.364853317,2173.364853317,2173.364853317,2173.364853317,1,-1,azul,1,['N_B'],2175.1497305679995,2175.1497305679995,2175.1497305679995,2175.1497305679995,2177.1683004819997,2177.1683004819997,2177.1683004819997,2177.1683004819997,2177.1683004819997,2177.1683004819997,2177.1683004819997,2177.1683004819997,2179.187209768,2179.187209768,2179.187209768,2179.187209768,,,,,,,,,,,,,,,,,,,,,,,,,,,,,,,,,,,,,,,08,005,2022-09-23_10h28.56.744,test2,2022.2.4,59.8944893883693,
0,0,0,0,176,0,176,0,2179.187209768,2179.187209768,2179.187209768,2179.187209768,2179.187209768,2179.187209768,2179.187209768,1,1,azul,1,['N_B'],2180.739479647,2180.739479647,2180.739479647,2180.739479647,2182.7587914289998,2182.7587914289998,2182.7587914289998,2182.7587914289998,2182.7587914289998,2182.7587914289998,2182.7587914289998,2182.7587914289998,2184.777551778,2184.777551778,2184.777551778,2184.777551778,,,,,,,,,,,,,,,,,,,,,,,,,,,,,,,,,,,,,,,08,005,2022-09-23_10h28.56.744,test2,2022.2.4,59.8944893883693,
0,0,0,0,177,0,177,0,2184.777551778,2184.777551778,2184.777551778,2184.777551778,2184.777551778,2184.777551778,2184.777551778,-1,-1,rojo,1,['N_B'],2186.1447713079997,2186.1447713079997,2186.1447713079997,2186.1447713079997,2188.1816505469997,2188.1816505469997,2188.1816505469997,2188.1816505469997,2188.1816505469997,2188.1816505469997,2188.1816505469997,2188.1816505469997,2190.200260685,2190.200260685,2190.200260685,2190.200260685,,,,,,,,,,,,,,,,,,,,,,,,,,,,,,,,,,,,,,,08,005,2022-09-23_10h28.56.744,test2,2022.2.4,59.8944893883693,
0,0,0,0,178,0,178,0,2190.200260685,2190.200260685,2190.200260685,2190.200260685,2190.200260685,2190.200260685,2190.200260685,1,-1,azul,0,['N_A'],2191.868842076,2191.868842076,2191.868842076,2191.868842076,2193.8872138819997,2193.8872138819997,2193.8872138819997,2193.8872138819997,2193.8872138819997,2193.8872138819997,2193.8872138819997,2193.8872138819997,2195.9056266509997,2195.9056266509997,2195.9056266509997,2195.9056266509997,,,,,,,,,,,,,,,,,,,,,,,,,,,,,,,,,,,,,,,08,005,2022-09-23_10h28.56.744,test2,2022.2.4,59.8944893883693,
0,0,0,0,179,0,179,0,2195.9056266509997,2195.9056266509997,2195.9056266509997,2195.9056266509997,2195.9056266509997,2195.9056266509997,2195.9056266509997,1,1,rojo,1,['N_A'],2197.2417119869997,2197.2417119869997,2197.2417119869997,2197.2417119869997,2199.260696513,2199.260696513,2199.260696513,2199.260696513,2199.260696513,2199.260696513,2199.260696513,2199.260696513,2201.2789229399996,2201.2789229399996,2201.2789229399996,2201.2789229399996,,,,,,,,,,,,,,,,,,,,,,,,,,,,,,,,,,,,,,,08,005,2022-09-23_10h28.56.744,test2,2022.2.4,59.8944893883693,
0,0,0,0,180,0,180,0,2201.2789229399996,2201.2789229399996,2201.2789229399996,2201.2789229399996,2201.2789229399996,2201.2789229399996,2201.2789229399996,1,-1,rojo,1,['N_A'],2202.6636432739997,2202.6636432739997,2202.6636432739997,2202.6636432739997,2204.682116266,2204.682116266,2204.682116266,2204.682116266,2204.682116266,2204.682116266,2204.682116266,2204.682116266,2206.7017188199998,2206.7017188199998,2206.7017188199998,2206.7017188199998,,,,,,,,,,,,,,,,,,,,,,,,,,,,,,,,,,,,,,,08,005,2022-09-23_10h28.56.744,test2,2022.2.4,59.8944893883693,
0,0,0,0,181,0,181,0,2206.7017188199998,2206.7017188199998,2206.7017188199998,2206.7017188199998,2206.7017188199998,2206.7017188199998,2206.7017188199998,1,1,rojo,1,['N_A'],2208.38633976,2208.38633976,2208.38633976,2208.38633976,2210.406473629,2210.406473629,2210.406473629,2210.406473629,2210.406473629,2210.406473629,2210.406473629,2210.406473629,2212.42583335,2212.42583335,2212.42583335,2212.42583335,,,,,,,,,,,,,,,,,,,,,,,,,,,,,,,,,,,,,,,08,005,2022-09-23_10h28.56.744,test2,2022.2.4,59.8944893883693,
0,0,0,0,182,0,182,0,2212.42583335,2212.42583335,2212.42583335,2212.42583335,2212.42583335,2212.42583335,2212.42583335,1,1,rojo,1,['N_A'],2214.0089671100004,2214.0089671100004,2214.0089671100004,2214.0089671100004,2216.029250099,2216.029250099,2216.029250099,2216.029250099,2216.029250099,2216.029250099,2216.029250099,2216.029250099,2218.0474159120004,2218.0474159120004,2218.0474159120004,2218.0474159120004,,,,,,,,,,,,,,,,,,,,,,,,,,,,,,,,,,,,,,,08,005,2022-09-23_10h28.56.744,test2,2022.2.4,59.8944893883693,
0,0,0,0,183,0,183,0,2218.0474159120004,2218.0474159120004,2218.0474159120004,2218.0474159120004,2218.0474159120004,2218.0474159120004,2218.0474159120004,1,1,rojo,1,['N_A'],2220.0489676589996,2220.0489676589996,2220.0489676589996,2220.0489676589996,2222.068093295,2222.068093295,2222.068093295,2222.068093295,2222.068093295,2222.068093295,2222.068093295,2222.068093295,2224.086602001,2224.086602001,2224.086602001,2224.086602001,,,,,,,,,,,,,,,,,,,,,,,,,,,,,,,,,,,,,,,08,005,2022-09-23_10h28.56.744,test2,2022.2.4,59.8944893883693,
0,0,0,0,184,0,184,0,2224.086602001,2224.086602001,2224.086602001,2224.086602001,2224.086602001,2224.086602001,2224.086602001,-1,-1,azul,1,['N_A'],2225.522292105,2225.522292105,2225.522292105,2225.522292105,2227.558799749,2227.558799749,2227.558799749,2227.558799749,2227.558799749,2227.558799749,2227.558799749,2227.558799749,2229.576151075,2229.576151075,2229.576151075,2229.576151075,,,,,,,,,,,,,,,,,,,,,,,,,,,,,,,,,,,,,,,08,005,2022-09-23_10h28.56.744,test2,2022.2.4,59.8944893883693,
