trials_2.thisRepN,trials_2.thisTrialN,trials_2.thisN,trials_2.thisIndex,trials.thisRepN,trials.thisTrialN,trials.thisN,trials.thisIndex,Instrucción2.started,N_A_4.started,N_B_4.started,Exitos_3.started,Dias_3.started,Stimuli_1.started,Stimuli_2.started,Transitions,Rewards,Mode,Stay,Neighbour,Stimuli_3.started,Modo.started,Dias2.started,Exitos2.started,Stimuli_3.stopped,Modo.stopped,Dias2.stopped,Exitos2.stopped,Reward.started,Stimuli_reward.started,Exitos3.started,Dias3.started,Reward.stopped,Stimuli_reward.stopped,Exitos3.stopped,Dias3.stopped,Cue_text.started,Stimuli_4.started,Exitos4.started,Dias4.started,Stimuli_3_3.started,Stimuli_2_3.started,Instrucción.started,N_A.started,N_B.started,N_C.started,Exitos_2.started,Dias_2.started,Stimuli_1_3.started,Stimuli_3_2.started,Stimuli_2_2.started,Pregunta.started,N_A_2.started,N_B_2.started,N_C_2.started,Exitos5.started,Dias5.started,Stimuli_1_2.started,Resp_final_1,Modo2.started,Modo1.started,Pregunta_4.started,Modo3.started,Exitos7.started,Dias6.started,Resp_final_2,Modo1_2.started,Pregunta_3.started,Modo2_2.started,Exitos8.started,Dias7.started,Resp_final_3,Mensaje_Final2.started,Exitos6.started,participant,session,date,expName,psychopyVersion,frameRate,
0,0,0,0,0,0,0,0,861.344977907,861.344977907,861.344977907,861.344977907,861.344977907,861.344977907,861.344977907,0,0,0,0,['N_A'],866.299639897,866.299639897,866.299639897,866.299639897,868.336171692,868.336171692,868.336171692,868.336171692,868.336171692,868.336171692,868.336171692,868.336171692,870.371094236,870.371094236,870.371094236,870.371094236,,,,,,,,,,,,,,,,,,,,,,,,,,,,,,,,,,,,,,,08,012,2022-09-27_14h38.28.406,test2,2022.2.4,60.173421002771974,
0,0,0,0,1,0,1,0,870.371094236,870.371094236,870.371094236,870.371094236,870.371094236,870.371094236,870.371094236,1,-1,rojo,0,['N_B'],872.6910644650001,872.6910644650001,872.6910644650001,872.6910644650001,874.759337798,874.759337798,874.759337798,874.759337798,874.759337798,874.759337798,874.759337798,874.759337798,876.7953083040001,876.7953083040001,876.7953083040001,876.7953083040001,,,,,,,,,,,,,,,,,,,,,,,,,,,,,,,,,,,,,,,08,012,2022-09-27_14h38.28.406,test2,2022.2.4,60.173421002771974,
0,0,0,0,2,0,2,0,876.7953083040001,876.7953083040001,876.7953083040001,876.7953083040001,876.7953083040001,876.7953083040001,876.7953083040001,1,1,azul,1,['N_B'],885.203876813,885.203876813,885.203876813,885.203876813,887.222786231,887.222786231,887.222786231,887.222786231,887.222786231,887.222786231,887.222786231,887.222786231,889.2583734359999,889.2583734359999,889.2583734359999,889.2583734359999,,,,,,,,,,,,,,,,,,,,,,,,,,,,,,,,,,,,,,,08,012,2022-09-27_14h38.28.406,test2,2022.2.4,60.173421002771974,
0,0,0,0,3,0,3,0,889.2583734359999,889.2583734359999,889.2583734359999,889.2583734359999,889.2583734359999,889.2583734359999,889.2583734359999,-1,-1,rojo,1,['N_B'],894.8472208,894.8472208,894.8472208,894.8472208,896.884468226,896.884468226,896.884468226,896.884468226,896.884468226,896.884468226,896.884468226,896.884468226,898.9197691339999,898.9197691339999,898.9197691339999,898.9197691339999,,,,,,,,,,,,,,,,,,,,,,,,,,,,,,,,,,,,,,,08,012,2022-09-27_14h38.28.406,test2,2022.2.4,60.173421002771974,
0,0,0,0,4,0,4,0,898.9197691339999,898.9197691339999,898.9197691339999,898.9197691339999,898.9197691339999,898.9197691339999,898.9197691339999,1,-1,azul,0,['N_A'],901.3710577160001,901.3710577160001,901.3710577160001,901.3710577160001,903.3901174640001,903.3901174640001,903.3901174640001,903.3901174640001,903.3901174640001,903.3901174640001,903.3901174640001,903.3901174640001,905.426143926,905.426143926,905.426143926,905.426143926,,,,,,,,,,,,,,,,,,,,,,,,,,,,,,,,,,,,,,,08,012,2022-09-27_14h38.28.406,test2,2022.2.4,60.173421002771974,
0,0,0,0,5,0,5,0,905.426143926,905.426143926,905.426143926,905.426143926,905.426143926,905.426143926,905.426143926,1,1,rojo,1,['N_A'],910.5819439370001,910.5819439370001,910.5819439370001,910.5819439370001,912.60024076,912.60024076,912.60024076,912.60024076,912.60024076,912.60024076,912.60024076,912.60024076,914.636217223,914.636217223,914.636217223,914.636217223,,,,,,,,,,,,,,,,,,,,,,,,,,,,,,,,,,,,,,,08,012,2022-09-27_14h38.28.406,test2,2022.2.4,60.173421002771974,
0,0,0,0,6,0,6,0,914.636217223,914.636217223,914.636217223,914.636217223,914.636217223,914.636217223,914.636217223,-1,-1,azul,0,['N_B'],924.747117324,924.747117324,924.747117324,924.747117324,926.783197457,926.783197457,926.783197457,926.783197457,926.783197457,926.783197457,926.783197457,926.783197457,928.819617059,928.819617059,928.819617059,928.819617059,,,,,,,,,,,,,,,,,,,,,,,,,,,,,,,,,,,,,,,08,012,2022-09-27_14h38.28.406,test2,2022.2.4,60.173421002771974,
0,0,0,0,7,0,7,0,928.819617059,928.819617059,928.819617059,928.819617059,928.819617059,928.819617059,928.819617059,1,-1,azul,0,['N_A'],930.3862437030001,930.3862437030001,930.3862437030001,930.3862437030001,932.4230741320001,932.4230741320001,932.4230741320001,932.4230741320001,932.4230741320001,932.4230741320001,932.4230741320001,932.4230741320001,934.458532047,934.458532047,934.458532047,934.458532047,,,,,,,,,,,,,,,,,,,,,,,,,,,,,,,,,,,,,,,08,012,2022-09-27_14h38.28.406,test2,2022.2.4,60.173421002771974,
0,0,0,0,8,0,8,0,934.458532047,934.458532047,934.458532047,934.458532047,934.458532047,934.458532047,934.458532047,-1,-1,azul,1,['N_A'],935.9264113590001,935.9264113590001,935.9264113590001,935.9264113590001,937.9453905870001,937.9453905870001,937.9453905870001,937.9453905870001,937.9453905870001,937.9453905870001,937.9453905870001,937.9453905870001,939.963691137,939.963691137,939.963691137,939.963691137,,,,,,,,,,,,,,,,,,,,,,,,,,,,,,,,,,,,,,,08,012,2022-09-27_14h38.28.406,test2,2022.2.4,60.173421002771974,
0,0,0,0,9,0,9,0,939.963691137,939.963691137,939.963691137,939.963691137,939.963691137,939.963691137,939.963691137,-1,1,azul,1,['N_A'],943.23423257,943.23423257,943.23423257,943.23423257,945.253086391,945.253086391,945.253086391,945.253086391,945.253086391,945.253086391,945.253086391,945.253086391,947.2725512129999,947.2725512129999,947.2725512129999,947.2725512129999,,,,,,,,,,,,,,,,,,,,,,,,,,,,,,,,,,,,,,,08,012,2022-09-27_14h38.28.406,test2,2022.2.4,60.173421002771974,
0,0,0,0,10,0,10,0,947.2725512129999,947.2725512129999,947.2725512129999,947.2725512129999,947.2725512129999,947.2725512129999,947.2725512129999,1,1,rojo,1,['N_A'],948.7567498049999,948.7567498049999,948.7567498049999,948.7567498049999,950.775976112,950.775976112,950.775976112,950.775976112,950.775976112,950.775976112,950.775976112,950.775976112,952.7953073950001,952.7953073950001,952.7953073950001,952.7953073950001,,,,,,,,,,,,,,,,,,,,,,,,,,,,,,,,,,,,,,,08,012,2022-09-27_14h38.28.406,test2,2022.2.4,60.173421002771974,
0,0,0,0,11,0,11,0,952.7953073950001,952.7953073950001,952.7953073950001,952.7953073950001,952.7953073950001,952.7953073950001,952.7953073950001,1,-1,rojo,0,['N_B'],956.7824171860001,956.7824171860001,956.7824171860001,956.7824171860001,958.81856531,958.81856531,958.81856531,958.81856531,958.81856531,958.81856531,958.81856531,958.81856531,960.836362459,960.836362459,960.836362459,960.836362459,,,,,,,,,,,,,,,,,,,,,,,,,,,,,,,,,,,,,,,08,012,2022-09-27_14h38.28.406,test2,2022.2.4,60.173421002771974,
0,0,0,0,12,0,12,0,960.836362459,960.836362459,960.836362459,960.836362459,960.836362459,960.836362459,960.836362459,1,-1,azul,1,['N_B'],962.539923552,962.539923552,962.539923552,962.539923552,964.5581771880001,964.5581771880001,964.5581771880001,964.5581771880001,964.5581771880001,964.5581771880001,964.5581771880001,964.5581771880001,966.5764336010001,966.5764336010001,966.5764336010001,966.5764336010001,,,,,,,,,,,,,,,,,,,,,,,,,,,,,,,,,,,,,,,08,012,2022-09-27_14h38.28.406,test2,2022.2.4,60.173421002771974,
0,0,0,0,13,0,13,0,966.5764336010001,966.5764336010001,966.5764336010001,966.5764336010001,966.5764336010001,966.5764336010001,966.5764336010001,1,1,azul,1,['N_B'],969.813418497,969.813418497,969.813418497,969.813418497,971.8323553000001,971.8323553000001,971.8323553000001,971.8323553000001,971.8323553000001,971.8323553000001,971.8323553000001,971.8323553000001,973.8514249870001,973.8514249870001,973.8514249870001,973.8514249870001,,,,,,,,,,,,,,,,,,,,,,,,,,,,,,,,,,,,,,,08,012,2022-09-27_14h38.28.406,test2,2022.2.4,60.173421002771974,
0,0,0,0,14,0,14,0,973.8514249870001,973.8514249870001,973.8514249870001,973.8514249870001,973.8514249870001,973.8514249870001,973.8514249870001,-1,-1,rojo,1,['N_B'],976.271393142,976.271393142,976.271393142,976.271393142,978.3066707230001,978.3066707230001,978.3066707230001,978.3066707230001,978.3066707230001,978.3066707230001,978.3066707230001,978.3066707230001,980.325823325,980.325823325,980.325823325,980.325823325,,,,,,,,,,,,,,,,,,,,,,,,,,,,,,,,,,,,,,,08,012,2022-09-27_14h38.28.406,test2,2022.2.4,60.173421002771974,
0,0,0,0,15,0,15,0,980.325823325,980.325823325,980.325823325,980.325823325,980.325823325,980.325823325,980.325823325,1,-1,azul,0,['N_A'],982.110476363,982.110476363,982.110476363,982.110476363,984.1464642560001,984.1464642560001,984.1464642560001,984.1464642560001,984.1464642560001,984.1464642560001,984.1464642560001,984.1464642560001,986.1652082680001,986.1652082680001,986.1652082680001,986.1652082680001,,,,,,,,,,,,,,,,,,,,,,,,,,,,,,,,,,,,,,,08,012,2022-09-27_14h38.28.406,test2,2022.2.4,60.173421002771974,
0,0,0,0,16,0,16,0,986.1652082680001,986.1652082680001,986.1652082680001,986.1652082680001,986.1652082680001,986.1652082680001,986.1652082680001,1,-1,rojo,0,['N_B'],988.183896916,988.183896916,988.183896916,988.183896916,990.22002117,990.22002117,990.22002117,990.22002117,990.22002117,990.22002117,990.22002117,990.22002117,992.237919262,992.237919262,992.237919262,992.237919262,,,,,,,,,,,,,,,,,,,,,,,,,,,,,,,,,,,,,,,08,012,2022-09-27_14h38.28.406,test2,2022.2.4,60.173421002771974,
0,0,0,0,17,0,17,0,992.237919262,992.237919262,992.237919262,992.237919262,992.237919262,992.237919262,992.237919262,1,-1,azul,0,['N_A'],995.275468212,995.275468212,995.275468212,995.275468212,997.311457725,997.311457725,997.311457725,997.311457725,997.311457725,997.311457725,997.311457725,997.311457725,999.3295927980001,999.3295927980001,999.3295927980001,999.3295927980001,,,,,,,,,,,,,,,,,,,,,,,,,,,,,,,,,,,,,,,08,012,2022-09-27_14h38.28.406,test2,2022.2.4,60.173421002771974,
0,0,0,0,18,0,18,0,999.3295927980001,999.3295927980001,999.3295927980001,999.3295927980001,999.3295927980001,999.3295927980001,999.3295927980001,-1,-1,azul,0,['N_B'],1000.9483813830001,1000.9483813830001,1000.9483813830001,1000.9483813830001,1002.9664101760001,1002.9664101760001,1002.9664101760001,1002.9664101760001,1002.9664101760001,1002.9664101760001,1002.9664101760001,1002.9664101760001,1004.9856372590001,1004.9856372590001,1004.9856372590001,1004.9856372590001,,,,,,,,,,,,,,,,,,,,,,,,,,,,,,,,,,,,,,,08,012,2022-09-27_14h38.28.406,test2,2022.2.4,60.173421002771974,
0,0,0,0,19,0,19,0,1004.9856372590001,1004.9856372590001,1004.9856372590001,1004.9856372590001,1004.9856372590001,1004.9856372590001,1004.9856372590001,1,1,azul,1,['N_B'],1006.8388562240001,1006.8388562240001,1006.8388562240001,1006.8388562240001,1008.857321463,1008.857321463,1008.857321463,1008.857321463,1008.857321463,1008.857321463,1008.857321463,1008.857321463,1010.8925740220001,1010.8925740220001,1010.8925740220001,1010.8925740220001,,,,,,,,,,,,,,,,,,,,,,,,,,,,,,,,,,,,,,,08,012,2022-09-27_14h38.28.406,test2,2022.2.4,60.173421002771974,
0,0,0,0,20,0,20,0,1010.8925740220001,1010.8925740220001,1010.8925740220001,1010.8925740220001,1010.8925740220001,1010.8925740220001,1010.8925740220001,1,1,azul,1,['N_B'],1017.1162427600001,1017.1162427600001,1017.1162427600001,1017.1162427600001,1019.1341588490001,1019.1341588490001,1019.1341588490001,1019.1341588490001,1019.1341588490001,1019.1341588490001,1019.1341588490001,1019.1341588490001,1021.152969765,1021.152969765,1021.152969765,1021.152969765,,,,,,,,,,,,,,,,,,,,,,,,,,,,,,,,,,,,,,,08,012,2022-09-27_14h38.28.406,test2,2022.2.4,60.173421002771974,
0,0,0,0,21,0,21,0,1021.152969765,1021.152969765,1021.152969765,1021.152969765,1021.152969765,1021.152969765,1021.152969765,-1,-1,rojo,0,['N_A'],1022.671492045,1022.671492045,1022.671492045,1022.671492045,1024.7079361800002,1024.7079361800002,1024.7079361800002,1024.7079361800002,1024.7079361800002,1024.7079361800002,1024.7079361800002,1024.7079361800002,1026.7260646700001,1026.7260646700001,1026.7260646700001,1026.7260646700001,,,,,,,,,,,,,,,,,,,,,,,,,,,,,,,,,,,,,,,08,012,2022-09-27_14h38.28.406,test2,2022.2.4,60.173421002771974,
0,0,0,0,22,0,22,0,1026.7260646700001,1026.7260646700001,1026.7260646700001,1026.7260646700001,1026.7260646700001,1026.7260646700001,1026.7260646700001,1,-1,rojo,0,['N_B'],1029.145393546,1029.145393546,1029.145393546,1029.145393546,1031.1640627020001,1031.1640627020001,1031.1640627020001,1031.1640627020001,1031.1640627020001,1031.1640627020001,1031.1640627020001,1031.1640627020001,1033.1833375360002,1033.1833375360002,1033.1833375360002,1033.1833375360002,,,,,,,,,,,,,,,,,,,,,,,,,,,,,,,,,,,,,,,08,012,2022-09-27_14h38.28.406,test2,2022.2.4,60.173421002771974,
0,0,0,0,23,0,23,0,1033.1833375360002,1033.1833375360002,1033.1833375360002,1033.1833375360002,1033.1833375360002,1033.1833375360002,1033.1833375360002,1,1,azul,1,['N_B'],1035.1854532080001,1035.1854532080001,1035.1854532080001,1035.1854532080001,1037.205068662,1037.205068662,1037.205068662,1037.205068662,1037.205068662,1037.205068662,1037.205068662,1037.205068662,1039.223872727,1039.223872727,1039.223872727,1039.223872727,,,,,,,,,,,,,,,,,,,,,,,,,,,,,,,,,,,,,,,08,012,2022-09-27_14h38.28.406,test2,2022.2.4,60.173421002771974,
0,0,0,0,24,0,24,0,1039.223872727,1039.223872727,1039.223872727,1039.223872727,1039.223872727,1039.223872727,1039.223872727,-1,1,rojo,1,['N_B'],1040.925858186,1040.925858186,1040.925858186,1040.925858186,1042.943597939,1042.943597939,1042.943597939,1042.943597939,1042.943597939,1042.943597939,1042.943597939,1042.943597939,1044.962705948,1044.962705948,1044.962705948,1044.962705948,,,,,,,,,,,,,,,,,,,,,,,,,,,,,,,,,,,,,,,08,012,2022-09-27_14h38.28.406,test2,2022.2.4,60.173421002771974,
0,0,0,0,25,0,25,0,1044.962705948,1044.962705948,1044.962705948,1044.962705948,1044.962705948,1044.962705948,1044.962705948,1,-1,azul,1,['N_B'],1046.465830747,1046.465830747,1046.465830747,1046.465830747,1048.4840356949999,1048.4840356949999,1048.4840356949999,1048.4840356949999,1048.4840356949999,1048.4840356949999,1048.4840356949999,1048.4840356949999,1050.502599072,1050.502599072,1050.502599072,1050.502599072,,,,,,,,,,,,,,,,,,,,,,,,,,,,,,,,,,,,,,,08,012,2022-09-27_14h38.28.406,test2,2022.2.4,60.173421002771974,
0,0,0,0,26,0,26,0,1050.502599072,1050.502599072,1050.502599072,1050.502599072,1050.502599072,1050.502599072,1050.502599072,-1,1,rojo,0,['N_A'],1052.6377054139998,1052.6377054139998,1052.6377054139998,1052.6377054139998,1054.657720185,1054.657720185,1054.657720185,1054.657720185,1054.657720185,1054.657720185,1054.657720185,1054.657720185,1056.6759629470002,1056.6759629470002,1056.6759629470002,1056.6759629470002,,,,,,,,,,,,,,,,,,,,,,,,,,,,,,,,,,,,,,,08,012,2022-09-27_14h38.28.406,test2,2022.2.4,60.173421002771974,
0,0,0,0,27,0,27,0,1056.6759629470002,1056.6759629470002,1056.6759629470002,1056.6759629470002,1056.6759629470002,1056.6759629470002,1056.6759629470002,1,-1,rojo,0,['N_B'],1058.0606530179998,1058.0606530179998,1058.0606530179998,1058.0606530179998,1060.0974018850002,1060.0974018850002,1060.0974018850002,1060.0974018850002,1060.0974018850002,1060.0974018850002,1060.0974018850002,1060.0974018850002,1062.1150447179998,1062.1150447179998,1062.1150447179998,1062.1150447179998,,,,,,,,,,,,,,,,,,,,,,,,,,,,,,,,,,,,,,,08,012,2022-09-27_14h38.28.406,test2,2022.2.4,60.173421002771974,
0,0,0,0,28,0,28,0,1062.1150447179998,1062.1150447179998,1062.1150447179998,1062.1150447179998,1062.1150447179998,1062.1150447179998,1062.1150447179998,-1,-1,rojo,1,['N_B'],1063.517596694,1063.517596694,1063.517596694,1063.517596694,1065.552983307,1065.552983307,1065.552983307,1065.552983307,1065.552983307,1065.552983307,1065.552983307,1065.552983307,1067.571474713,1067.571474713,1067.571474713,1067.571474713,,,,,,,,,,,,,,,,,,,,,,,,,,,,,,,,,,,,,,,08,012,2022-09-27_14h38.28.406,test2,2022.2.4,60.173421002771974,
0,0,0,0,29,0,29,0,1067.571474713,1067.571474713,1067.571474713,1067.571474713,1067.571474713,1067.571474713,1067.571474713,1,-1,azul,0,['N_A'],1068.956579868,1068.956579868,1068.956579868,1068.956579868,1070.9921664610001,1070.9921664610001,1070.9921664610001,1070.9921664610001,1070.9921664610001,1070.9921664610001,1070.9921664610001,1070.9921664610001,1073.0101839170002,1073.0101839170002,1073.0101839170002,1073.0101839170002,,,,,,,,,,,,,,,,,,,,,,,,,,,,,,,,,,,,,,,08,012,2022-09-27_14h38.28.406,test2,2022.2.4,60.173421002771974,
0,0,0,0,30,0,30,0,1073.0101839170002,1073.0101839170002,1073.0101839170002,1073.0101839170002,1073.0101839170002,1073.0101839170002,1073.0101839170002,1,-1,rojo,1,['N_A'],1074.3955149520002,1074.3955149520002,1074.3955149520002,1074.3955149520002,1076.4147549109998,1076.4147549109998,1076.4147549109998,1076.4147549109998,1076.4147549109998,1076.4147549109998,1076.4147549109998,1076.4147549109998,1078.4330721800002,1078.4330721800002,1078.4330721800002,1078.4330721800002,,,,,,,,,,,,,,,,,,,,,,,,,,,,,,,,,,,,,,,08,012,2022-09-27_14h38.28.406,test2,2022.2.4,60.173421002771974,
0,0,0,0,31,0,31,0,1078.4330721800002,1078.4330721800002,1078.4330721800002,1078.4330721800002,1078.4330721800002,1078.4330721800002,1078.4330721800002,1,1,rojo,1,['N_A'],1083.1892737879998,1083.1892737879998,1083.1892737879998,1083.1892737879998,1085.2071730070002,1085.2071730070002,1085.2071730070002,1085.2071730070002,1085.2071730070002,1085.2071730070002,1085.2071730070002,1085.2071730070002,1087.226341081,1087.226341081,1087.226341081,1087.226341081,,,,,,,,,,,,,,,,,,,,,,,,,,,,,,,,,,,,,,,08,012,2022-09-27_14h38.28.406,test2,2022.2.4,60.173421002771974,
0,0,0,0,32,0,32,0,1087.226341081,1087.226341081,1087.226341081,1087.226341081,1087.226341081,1087.226341081,1087.226341081,1,-1,rojo,0,['N_B'],1091.1479840430002,1091.1479840430002,1091.1479840430002,1091.1479840430002,1093.1657345029998,1093.1657345029998,1093.1657345029998,1093.1657345029998,1093.1657345029998,1093.1657345029998,1093.1657345029998,1093.1657345029998,1095.1853724070002,1095.1853724070002,1095.1853724070002,1095.1853724070002,,,,,,,,,,,,,,,,,,,,,,,,,,,,,,,,,,,,,,,08,012,2022-09-27_14h38.28.406,test2,2022.2.4,60.173421002771974,
0,0,0,0,33,0,33,0,1095.1853724070002,1095.1853724070002,1095.1853724070002,1095.1853724070002,1095.1853724070002,1095.1853724070002,1095.1853724070002,1,1,azul,1,['N_B'],1098.5560023900002,1098.5560023900002,1098.5560023900002,1098.5560023900002,1100.574298131,1100.574298131,1100.574298131,1100.574298131,1100.574298131,1100.574298131,1100.574298131,1100.574298131,1102.5935725200002,1102.5935725200002,1102.5935725200002,1102.5935725200002,,,,,,,,,,,,,,,,,,,,,,,,,,,,,,,,,,,,,,,08,012,2022-09-27_14h38.28.406,test2,2022.2.4,60.173421002771974,
0,0,0,0,34,0,34,0,1102.5935725200002,1102.5935725200002,1102.5935725200002,1102.5935725200002,1102.5935725200002,1102.5935725200002,1102.5935725200002,1,-1,azul,0,['N_A'],1104.0114313650001,1104.0114313650001,1104.0114313650001,1104.0114313650001,1106.0481417290002,1106.0481417290002,1106.0481417290002,1106.0481417290002,1106.0481417290002,1106.0481417290002,1106.0481417290002,1106.0481417290002,1108.0654911840002,1108.0654911840002,1108.0654911840002,1108.0654911840002,,,,,,,,,,,,,,,,,,,,,,,,,,,,,,,,,,,,,,,08,012,2022-09-27_14h38.28.406,test2,2022.2.4,60.173421002771974,
0,0,0,0,35,0,35,0,1108.0654911840002,1108.0654911840002,1108.0654911840002,1108.0654911840002,1108.0654911840002,1108.0654911840002,1108.0654911840002,1,-1,rojo,0,['N_B'],1109.834333451,1109.834333451,1109.834333451,1109.834333451,1111.8710306130001,1111.8710306130001,1111.8710306130001,1111.8710306130001,1111.8710306130001,1111.8710306130001,1111.8710306130001,1111.8710306130001,1113.889073976,1113.889073976,1113.889073976,1113.889073976,,,,,,,,,,,,,,,,,,,,,,,,,,,,,,,,,,,,,,,08,012,2022-09-27_14h38.28.406,test2,2022.2.4,60.173421002771974,
0,0,0,0,36,0,36,0,1113.889073976,1113.889073976,1113.889073976,1113.889073976,1113.889073976,1113.889073976,1113.889073976,1,-1,azul,0,['N_A'],1118.0775025960002,1118.0775025960002,1118.0775025960002,1118.0775025960002,1120.1135314950002,1120.1135314950002,1120.1135314950002,1120.1135314950002,1120.1135314950002,1120.1135314950002,1120.1135314950002,1120.1135314950002,1122.1320444020002,1122.1320444020002,1122.1320444020002,1122.1320444020002,,,,,,,,,,,,,,,,,,,,,,,,,,,,,,,,,,,,,,,08,012,2022-09-27_14h38.28.406,test2,2022.2.4,60.173421002771974,
0,0,0,0,37,0,37,0,1122.1320444020002,1122.1320444020002,1122.1320444020002,1122.1320444020002,1122.1320444020002,1122.1320444020002,1122.1320444020002,1,-1,rojo,1,['N_A'],1124.033368382,1124.033368382,1124.033368382,1124.033368382,1126.0700102619999,1126.0700102619999,1126.0700102619999,1126.0700102619999,1126.0700102619999,1126.0700102619999,1126.0700102619999,1126.0700102619999,1128.0884700000001,1128.0884700000001,1128.0884700000001,1128.0884700000001,,,,,,,,,,,,,,,,,,,,,,,,,,,,,,,,,,,,,,,08,012,2022-09-27_14h38.28.406,test2,2022.2.4,60.173421002771974,
0,0,0,0,38,0,38,0,1128.0884700000001,1128.0884700000001,1128.0884700000001,1128.0884700000001,1128.0884700000001,1128.0884700000001,1128.0884700000001,1,-1,rojo,0,['N_B'],1130.123443168,1130.123443168,1130.123443168,1130.123443168,1132.1436779800001,1132.1436779800001,1132.1436779800001,1132.1436779800001,1132.1436779800001,1132.1436779800001,1132.1436779800001,1132.1436779800001,1134.161022462,1134.161022462,1134.161022462,1134.161022462,,,,,,,,,,,,,,,,,,,,,,,,,,,,,,,,,,,,,,,08,012,2022-09-27_14h38.28.406,test2,2022.2.4,60.173421002771974,
0,0,0,0,39,0,39,0,1134.161022462,1134.161022462,1134.161022462,1134.161022462,1134.161022462,1134.161022462,1134.161022462,1,1,azul,1,['N_B'],1136.8145830449998,1136.8145830449998,1136.8145830449998,1136.8145830449998,1138.834097086,1138.834097086,1138.834097086,1138.834097086,1138.834097086,1138.834097086,1138.834097086,1138.834097086,1140.8531469580003,1140.8531469580003,1140.8531469580003,1140.8531469580003,,,,,,,,,,,,,,,,,,,,,,,,,,,,,,,,,,,,,,,08,012,2022-09-27_14h38.28.406,test2,2022.2.4,60.173421002771974,
0,0,0,0,40,0,40,0,1140.8531469580003,1140.8531469580003,1140.8531469580003,1140.8531469580003,1140.8531469580003,1140.8531469580003,1140.8531469580003,1,1,azul,1,['N_B'],1142.2538803060002,1142.2538803060002,1142.2538803060002,1142.2538803060002,1144.2737492380002,1144.2737492380002,1144.2737492380002,1144.2737492380002,1144.2737492380002,1144.2737492380002,1144.2737492380002,1144.2737492380002,1146.292019051,1146.292019051,1146.292019051,1146.292019051,,,,,,,,,,,,,,,,,,,,,,,,,,,,,,,,,,,,,,,08,012,2022-09-27_14h38.28.406,test2,2022.2.4,60.173421002771974,
0,0,0,0,41,0,41,0,1146.292019051,1146.292019051,1146.292019051,1146.292019051,1146.292019051,1146.292019051,1146.292019051,1,1,azul,1,['N_B'],1147.692743039,1147.692743039,1147.692743039,1147.692743039,1149.712348563,1149.712348563,1149.712348563,1149.712348563,1149.712348563,1149.712348563,1149.712348563,1149.712348563,1151.7304181119998,1151.7304181119998,1151.7304181119998,1151.7304181119998,,,,,,,,,,,,,,,,,,,,,,,,,,,,,,,,,,,,,,,08,012,2022-09-27_14h38.28.406,test2,2022.2.4,60.173421002771974,
0,0,0,0,42,0,42,0,1151.7304181119998,1151.7304181119998,1151.7304181119998,1151.7304181119998,1151.7304181119998,1151.7304181119998,1151.7304181119998,1,1,azul,1,['N_B'],1153.0996226460002,1153.0996226460002,1153.0996226460002,1153.0996226460002,1155.117957501,1155.117957501,1155.117957501,1155.117957501,1155.117957501,1155.117957501,1155.117957501,1155.117957501,1157.1368430819998,1157.1368430819998,1157.1368430819998,1157.1368430819998,,,,,,,,,,,,,,,,,,,,,,,,,,,,,,,,,,,,,,,08,012,2022-09-27_14h38.28.406,test2,2022.2.4,60.173421002771974,
0,0,0,0,43,0,43,0,1157.1368430819998,1157.1368430819998,1157.1368430819998,1157.1368430819998,1157.1368430819998,1157.1368430819998,1157.1368430819998,1,-1,azul,0,['N_A'],1158.554860142,1158.554860142,1158.554860142,1158.554860142,1160.5745770029998,1160.5745770029998,1160.5745770029998,1160.5745770029998,1160.5745770029998,1160.5745770029998,1160.5745770029998,1160.5745770029998,1162.5929961800002,1162.5929961800002,1162.5929961800002,1162.5929961800002,,,,,,,,,,,,,,,,,,,,,,,,,,,,,,,,,,,,,,,08,012,2022-09-27_14h38.28.406,test2,2022.2.4,60.173421002771974,
0,0,0,0,44,0,44,0,1162.5929961800002,1162.5929961800002,1162.5929961800002,1162.5929961800002,1162.5929961800002,1162.5929961800002,1162.5929961800002,1,1,rojo,1,['N_A'],1164.2280320220002,1164.2280320220002,1164.2280320220002,1164.2280320220002,1166.2467570980002,1166.2467570980002,1166.2467570980002,1166.2467570980002,1166.2467570980002,1166.2467570980002,1166.2467570980002,1166.2467570980002,1168.266625189,1168.266625189,1168.266625189,1168.266625189,,,,,,,,,,,,,,,,,,,,,,,,,,,,,,,,,,,,,,,08,012,2022-09-27_14h38.28.406,test2,2022.2.4,60.173421002771974,
0,0,0,0,45,0,45,0,1168.266625189,1168.266625189,1168.266625189,1168.266625189,1168.266625189,1168.266625189,1168.266625189,1,-1,rojo,0,['N_B'],1169.6344861090001,1169.6344861090001,1169.6344861090001,1169.6344861090001,1171.653701146,1171.653701146,1171.653701146,1171.653701146,1171.653701146,1171.653701146,1171.653701146,1171.653701146,1173.6715274849998,1173.6715274849998,1173.6715274849998,1173.6715274849998,,,,,,,,,,,,,,,,,,,,,,,,,,,,,,,,,,,,,,,08,012,2022-09-27_14h38.28.406,test2,2022.2.4,60.173421002771974,
0,0,0,0,46,0,46,0,1173.6715274849998,1173.6715274849998,1173.6715274849998,1173.6715274849998,1173.6715274849998,1173.6715274849998,1173.6715274849998,1,1,azul,1,['N_B'],1175.640180753,1175.640180753,1175.640180753,1175.640180753,1177.6594742480002,1177.6594742480002,1177.6594742480002,1177.6594742480002,1177.6594742480002,1177.6594742480002,1177.6594742480002,1177.6594742480002,1179.6789005179999,1179.6789005179999,1179.6789005179999,1179.6789005179999,,,,,,,,,,,,,,,,,,,,,,,,,,,,,,,,,,,,,,,08,012,2022-09-27_14h38.28.406,test2,2022.2.4,60.173421002771974,
0,0,0,0,47,0,47,0,1179.6789005179999,1179.6789005179999,1179.6789005179999,1179.6789005179999,1179.6789005179999,1179.6789005179999,1179.6789005179999,1,-1,azul,0,['N_A'],1181.196823538,1181.196823538,1181.196823538,1181.196823538,1183.2328372890001,1183.2328372890001,1183.2328372890001,1183.2328372890001,1183.2328372890001,1183.2328372890001,1183.2328372890001,1183.2328372890001,1185.2514868570001,1185.2514868570001,1185.2514868570001,1185.2514868570001,,,,,,,,,,,,,,,,,,,,,,,,,,,,,,,,,,,,,,,08,012,2022-09-27_14h38.28.406,test2,2022.2.4,60.173421002771974,
0,0,0,0,48,0,48,0,1185.2514868570001,1185.2514868570001,1185.2514868570001,1185.2514868570001,1185.2514868570001,1185.2514868570001,1185.2514868570001,1,-1,rojo,0,['N_B'],1187.687734007,1187.687734007,1187.687734007,1187.687734007,1189.72332959,1189.72332959,1189.72332959,1189.72332959,1189.72332959,1189.72332959,1189.72332959,1189.72332959,1191.741437611,1191.741437611,1191.741437611,1191.741437611,,,,,,,,,,,,,,,,,,,,,,,,,,,,,,,,,,,,,,,08,012,2022-09-27_14h38.28.406,test2,2022.2.4,60.173421002771974,
0,0,0,0,49,0,49,0,1191.741437611,1191.741437611,1191.741437611,1191.741437611,1191.741437611,1191.741437611,1191.741437611,1,-1,azul,1,['N_B'],1194.561868587,1194.561868587,1194.561868587,1194.561868587,1196.5809853360001,1196.5809853360001,1196.5809853360001,1196.5809853360001,1196.5809853360001,1196.5809853360001,1196.5809853360001,1196.5809853360001,1198.5988933170001,1198.5988933170001,1198.5988933170001,1198.5988933170001,,,,,,,,,,,,,,,,,,,,,,,,,,,,,,,,,,,,,,,08,012,2022-09-27_14h38.28.406,test2,2022.2.4,60.173421002771974,
0,0,0,0,50,0,50,0,1198.5988933170001,1198.5988933170001,1198.5988933170001,1198.5988933170001,1198.5988933170001,1198.5988933170001,1198.5988933170001,1,1,azul,1,['N_B'],1201.0519098529999,1201.0519098529999,1201.0519098529999,1201.0519098529999,1203.070446275,1203.070446275,1203.070446275,1203.070446275,1203.070446275,1203.070446275,1203.070446275,1203.070446275,1205.089515307,1205.089515307,1205.089515307,1205.089515307,,,,,,,,,,,,,,,,,,,,,,,,,,,,,,,,,,,,,,,08,012,2022-09-27_14h38.28.406,test2,2022.2.4,60.173421002771974,
0,0,0,0,51,0,51,0,1205.089515307,1205.089515307,1205.089515307,1205.089515307,1205.089515307,1205.089515307,1205.089515307,1,-1,azul,0,['N_A'],1207.4424648620002,1207.4424648620002,1207.4424648620002,1207.4424648620002,1209.460911702,1209.460911702,1209.460911702,1209.460911702,1209.460911702,1209.460911702,1209.460911702,1209.460911702,1211.4800788759999,1211.4800788759999,1211.4800788759999,1211.4800788759999,,,,,,,,,,,,,,,,,,,,,,,,,,,,,,,,,,,,,,,08,012,2022-09-27_14h38.28.406,test2,2022.2.4,60.173421002771974,
0,0,0,0,52,0,52,0,1211.4800788759999,1211.4800788759999,1211.4800788759999,1211.4800788759999,1211.4800788759999,1211.4800788759999,1211.4800788759999,-1,1,azul,1,['N_A'],1212.8980160370002,1212.8980160370002,1212.8980160370002,1212.8980160370002,1214.9172798079999,1214.9172798079999,1214.9172798079999,1214.9172798079999,1214.9172798079999,1214.9172798079999,1214.9172798079999,1214.9172798079999,1216.9360041539999,1216.9360041539999,1216.9360041539999,1216.9360041539999,,,,,,,,,,,,,,,,,,,,,,,,,,,,,,,,,,,,,,,08,012,2022-09-27_14h38.28.406,test2,2022.2.4,60.173421002771974,
0,0,0,0,53,0,53,0,1216.9360041539999,1216.9360041539999,1216.9360041539999,1216.9360041539999,1216.9360041539999,1216.9360041539999,1216.9360041539999,1,-1,rojo,0,['N_B'],1218.338394159,1218.338394159,1218.338394159,1218.338394159,1220.3735701750002,1220.3735701750002,1220.3735701750002,1220.3735701750002,1220.3735701750002,1220.3735701750002,1220.3735701750002,1220.3735701750002,1222.3924965410001,1222.3924965410001,1222.3924965410001,1222.3924965410001,,,,,,,,,,,,,,,,,,,,,,,,,,,,,,,,,,,,,,,08,012,2022-09-27_14h38.28.406,test2,2022.2.4,60.173421002771974,
0,0,0,0,54,0,54,0,1222.3924965410001,1222.3924965410001,1222.3924965410001,1222.3924965410001,1222.3924965410001,1222.3924965410001,1222.3924965410001,1,-1,azul,0,['N_A'],1226.5638471390002,1226.5638471390002,1226.5638471390002,1226.5638471390002,1228.582613392,1228.582613392,1228.582613392,1228.582613392,1228.582613392,1228.582613392,1228.582613392,1228.582613392,1230.6010788180001,1230.6010788180001,1230.6010788180001,1230.6010788180001,,,,,,,,,,,,,,,,,,,,,,,,,,,,,,,,,,,,,,,08,012,2022-09-27_14h38.28.406,test2,2022.2.4,60.173421002771974,
0,0,0,0,55,0,55,0,1230.6010788180001,1230.6010788180001,1230.6010788180001,1230.6010788180001,1230.6010788180001,1230.6010788180001,1230.6010788180001,1,1,rojo,1,['N_A'],1232.3863027480002,1232.3863027480002,1232.3863027480002,1232.3863027480002,1234.404981278,1234.404981278,1234.404981278,1234.404981278,1234.404981278,1234.404981278,1234.404981278,1234.404981278,1236.424403178,1236.424403178,1236.424403178,1236.424403178,,,,,,,,,,,,,,,,,,,,,,,,,,,,,,,,,,,,,,,08,012,2022-09-27_14h38.28.406,test2,2022.2.4,60.173421002771974,
0,0,0,0,56,0,56,0,1236.424403178,1236.424403178,1236.424403178,1236.424403178,1236.424403178,1236.424403178,1236.424403178,1,-1,rojo,0,['N_B'],1237.7925427549999,1237.7925427549999,1237.7925427549999,1237.7925427549999,1239.8289409919998,1239.8289409919998,1239.8289409919998,1239.8289409919998,1239.8289409919998,1239.8289409919998,1239.8289409919998,1239.8289409919998,1241.846428851,1241.846428851,1241.846428851,1241.846428851,,,,,,,,,,,,,,,,,,,,,,,,,,,,,,,,,,,,,,,08,012,2022-09-27_14h38.28.406,test2,2022.2.4,60.173421002771974,
0,0,0,0,57,0,57,0,1241.846428851,1241.846428851,1241.846428851,1241.846428851,1241.846428851,1241.846428851,1241.846428851,1,-1,azul,1,['N_B'],1243.182106784,1243.182106784,1243.182106784,1243.182106784,1245.2000959470001,1245.2000959470001,1245.2000959470001,1245.2000959470001,1245.2000959470001,1245.2000959470001,1245.2000959470001,1245.2000959470001,1247.219160708,1247.219160708,1247.219160708,1247.219160708,,,,,,,,,,,,,,,,,,,,,,,,,,,,,,,,,,,,,,,08,012,2022-09-27_14h38.28.406,test2,2022.2.4,60.173421002771974,
0,0,0,0,58,0,58,0,1247.219160708,1247.219160708,1247.219160708,1247.219160708,1247.219160708,1247.219160708,1247.219160708,1,1,azul,1,['N_B'],1248.6207902390001,1248.6207902390001,1248.6207902390001,1248.6207902390001,1250.640107964,1250.640107964,1250.640107964,1250.640107964,1250.640107964,1250.640107964,1250.640107964,1250.640107964,1252.6583119739998,1252.6583119739998,1252.6583119739998,1252.6583119739998,,,,,,,,,,,,,,,,,,,,,,,,,,,,,,,,,,,,,,,08,012,2022-09-27_14h38.28.406,test2,2022.2.4,60.173421002771974,
0,0,0,0,59,0,59,0,1252.6583119739998,1252.6583119739998,1252.6583119739998,1252.6583119739998,1252.6583119739998,1252.6583119739998,1252.6583119739998,-1,-1,rojo,0,['N_A'],1254.026496863,1254.026496863,1254.026496863,1254.026496863,1256.0634490809998,1256.0634490809998,1256.0634490809998,1256.0634490809998,1256.0634490809998,1256.0634490809998,1256.0634490809998,1256.0634490809998,1258.081625244,1258.081625244,1258.081625244,1258.081625244,,,,,,,,,,,,,,,,,,,,,,,,,,,,,,,,,,,,,,,08,012,2022-09-27_14h38.28.406,test2,2022.2.4,60.173421002771974,
0,0,0,0,60,0,60,0,1258.081625244,1258.081625244,1258.081625244,1258.081625244,1258.081625244,1258.081625244,1258.081625244,1,-1,rojo,1,['N_A'],1259.5831144630001,1259.5831144630001,1259.5831144630001,1259.5831144630001,1261.6190301860001,1261.6190301860001,1261.6190301860001,1261.6190301860001,1261.6190301860001,1261.6190301860001,1261.6190301860001,1261.6190301860001,1263.638025998,1263.638025998,1263.638025998,1263.638025998,,,,,,,,,,,,,,,,,,,,,,,,,,,,,,,,,,,,,,,08,012,2022-09-27_14h38.28.406,test2,2022.2.4,60.173421002771974,
0,0,0,0,61,0,61,0,1263.638025998,1263.638025998,1263.638025998,1263.638025998,1263.638025998,1263.638025998,1263.638025998,1,-1,rojo,0,['N_B'],1265.07284346,1265.07284346,1265.07284346,1265.07284346,1267.0910983540002,1267.0910983540002,1267.0910983540002,1267.0910983540002,1267.0910983540002,1267.0910983540002,1267.0910983540002,1267.0910983540002,1269.1101829580002,1269.1101829580002,1269.1101829580002,1269.1101829580002,,,,,,,,,,,,,,,,,,,,,,,,,,,,,,,,,,,,,,,08,012,2022-09-27_14h38.28.406,test2,2022.2.4,60.173421002771974,
0,0,0,0,62,0,62,0,1269.1101829580002,1269.1101829580002,1269.1101829580002,1269.1101829580002,1269.1101829580002,1269.1101829580002,1269.1101829580002,1,1,azul,1,['N_B'],1270.5616545960002,1270.5616545960002,1270.5616545960002,1270.5616545960002,1272.5812428610002,1272.5812428610002,1272.5812428610002,1272.5812428610002,1272.5812428610002,1272.5812428610002,1272.5812428610002,1272.5812428610002,1274.599859605,1274.599859605,1274.599859605,1274.599859605,,,,,,,,,,,,,,,,,,,,,,,,,,,,,,,,,,,,,,,08,012,2022-09-27_14h38.28.406,test2,2022.2.4,60.173421002771974,
0,0,0,0,63,0,63,0,1274.599859605,1274.599859605,1274.599859605,1274.599859605,1274.599859605,1274.599859605,1274.599859605,1,1,azul,0,['N_A'],1276.0014247519998,1276.0014247519998,1276.0014247519998,1276.0014247519998,1278.020960725,1278.020960725,1278.020960725,1278.020960725,1278.020960725,1278.020960725,1278.020960725,1278.020960725,1280.0384848510002,1280.0384848510002,1280.0384848510002,1280.0384848510002,,,,,,,,,,,,,,,,,,,,,,,,,,,,,,,,,,,,,,,08,012,2022-09-27_14h38.28.406,test2,2022.2.4,60.173421002771974,
0,0,0,0,64,0,64,0,1280.0384848510002,1280.0384848510002,1280.0384848510002,1280.0384848510002,1280.0384848510002,1280.0384848510002,1280.0384848510002,-1,1,azul,1,['N_A'],1281.407724654,1281.407724654,1281.407724654,1281.407724654,1283.426286215,1283.426286215,1283.426286215,1283.426286215,1283.426286215,1283.426286215,1283.426286215,1283.426286215,1285.445637107,1285.445637107,1285.445637107,1285.445637107,,,,,,,,,,,,,,,,,,,,,,,,,,,,,,,,,,,,,,,08,012,2022-09-27_14h38.28.406,test2,2022.2.4,60.173421002771974,
0,0,0,0,65,0,65,0,1285.445637107,1285.445637107,1285.445637107,1285.445637107,1285.445637107,1285.445637107,1285.445637107,1,1,rojo,0,['N_B'],1286.829365646,1286.829365646,1286.829365646,1286.829365646,1288.8498957689999,1288.8498957689999,1288.8498957689999,1288.8498957689999,1288.8498957689999,1288.8498957689999,1288.8498957689999,1288.8498957689999,1290.8673967979998,1290.8673967979998,1290.8673967979998,1290.8673967979998,,,,,,,,,,,,,,,,,,,,,,,,,,,,,,,,,,,,,,,08,012,2022-09-27_14h38.28.406,test2,2022.2.4,60.173421002771974,
0,0,0,0,66,0,66,0,1290.8673967979998,1290.8673967979998,1290.8673967979998,1290.8673967979998,1290.8673967979998,1290.8673967979998,1290.8673967979998,1,1,azul,1,['N_B'],1292.269095046,1292.269095046,1292.269095046,1292.269095046,1294.2890413650002,1294.2890413650002,1294.2890413650002,1294.2890413650002,1294.2890413650002,1294.2890413650002,1294.2890413650002,1294.2890413650002,1296.3065109650001,1296.3065109650001,1296.3065109650001,1296.3065109650001,,,,,,,,,,,,,,,,,,,,,,,,,,,,,,,,,,,,,,,08,012,2022-09-27_14h38.28.406,test2,2022.2.4,60.173421002771974,
0,0,0,0,67,0,67,0,1296.3065109650001,1296.3065109650001,1296.3065109650001,1296.3065109650001,1296.3065109650001,1296.3065109650001,1296.3065109650001,1,1,azul,0,['N_A'],1297.6426455380001,1297.6426455380001,1297.6426455380001,1297.6426455380001,1299.6615840919999,1299.6615840919999,1299.6615840919999,1299.6615840919999,1299.6615840919999,1299.6615840919999,1299.6615840919999,1299.6615840919999,1301.679220728,1301.679220728,1301.679220728,1301.679220728,,,,,,,,,,,,,,,,,,,,,,,,,,,,,,,,,,,,,,,08,012,2022-09-27_14h38.28.406,test2,2022.2.4,60.173421002771974,
0,0,0,0,68,0,68,0,1301.679220728,1301.679220728,1301.679220728,1301.679220728,1301.679220728,1301.679220728,1301.679220728,1,1,rojo,1,['N_A'],1303.114162544,1303.114162544,1303.114162544,1303.114162544,1305.133872117,1305.133872117,1305.133872117,1305.133872117,1305.133872117,1305.133872117,1305.133872117,1305.133872117,1307.153224612,1307.153224612,1307.153224612,1307.153224612,,,,,,,,,,,,,,,,,,,,,,,,,,,,,,,,,,,,,,,08,012,2022-09-27_14h38.28.406,test2,2022.2.4,60.173421002771974,
0,0,0,0,69,0,69,0,1307.153224612,1307.153224612,1307.153224612,1307.153224612,1307.153224612,1307.153224612,1307.153224612,-1,-1,azul,0,['N_B'],1308.5539796470002,1308.5539796470002,1308.5539796470002,1308.5539796470002,1310.5732161199999,1310.5732161199999,1310.5732161199999,1310.5732161199999,1310.5732161199999,1310.5732161199999,1310.5732161199999,1310.5732161199999,1312.59126079,1312.59126079,1312.59126079,1312.59126079,,,,,,,,,,,,,,,,,,,,,,,,,,,,,,,,,,,,,,,08,012,2022-09-27_14h38.28.406,test2,2022.2.4,60.173421002771974,
0,0,0,0,70,0,70,0,1312.59126079,1312.59126079,1312.59126079,1312.59126079,1312.59126079,1312.59126079,1312.59126079,1,1,azul,0,['N_A'],1317.4635083060002,1317.4635083060002,1317.4635083060002,1317.4635083060002,1319.482762921,1319.482762921,1319.482762921,1319.482762921,1319.482762921,1319.482762921,1319.482762921,1319.482762921,1321.5017074920002,1321.5017074920002,1321.5017074920002,1321.5017074920002,,,,,,,,,,,,,,,,,,,,,,,,,,,,,,,,,,,,,,,08,012,2022-09-27_14h38.28.406,test2,2022.2.4,60.173421002771974,
0,0,0,0,71,0,71,0,1321.5017074920002,1321.5017074920002,1321.5017074920002,1321.5017074920002,1321.5017074920002,1321.5017074920002,1321.5017074920002,1,-1,rojo,0,['N_B'],1322.8701677590002,1322.8701677590002,1322.8701677590002,1322.8701677590002,1324.8895897040002,1324.8895897040002,1324.8895897040002,1324.8895897040002,1324.8895897040002,1324.8895897040002,1324.8895897040002,1324.8895897040002,1326.907489483,1326.907489483,1326.907489483,1326.907489483,,,,,,,,,,,,,,,,,,,,,,,,,,,,,,,,,,,,,,,08,012,2022-09-27_14h38.28.406,test2,2022.2.4,60.173421002771974,
0,0,0,0,72,0,72,0,1326.907489483,1326.907489483,1326.907489483,1326.907489483,1326.907489483,1326.907489483,1326.907489483,1,1,azul,1,['N_B'],1328.4262277379999,1328.4262277379999,1328.4262277379999,1328.4262277379999,1330.445248895,1330.445248895,1330.445248895,1330.445248895,1330.445248895,1330.445248895,1330.445248895,1330.445248895,1332.46383727,1332.46383727,1332.46383727,1332.46383727,,,,,,,,,,,,,,,,,,,,,,,,,,,,,,,,,,,,,,,08,012,2022-09-27_14h38.28.406,test2,2022.2.4,60.173421002771974,
0,0,0,0,73,0,73,0,1332.46383727,1332.46383727,1332.46383727,1332.46383727,1332.46383727,1332.46383727,1332.46383727,1,1,azul,1,['N_B'],1334.283268491,1334.283268491,1334.283268491,1334.283268491,1336.3017238840002,1336.3017238840002,1336.3017238840002,1336.3017238840002,1336.3017238840002,1336.3017238840002,1336.3017238840002,1336.3017238840002,1338.319595945,1338.319595945,1338.319595945,1338.319595945,,,,,,,,,,,,,,,,,,,,,,,,,,,,,,,,,,,,,,,08,012,2022-09-27_14h38.28.406,test2,2022.2.4,60.173421002771974,
0,0,0,0,74,0,74,0,1338.319595945,1338.319595945,1338.319595945,1338.319595945,1338.319595945,1338.319595945,1338.319595945,-1,1,rojo,1,['N_B'],1340.0882870750002,1340.0882870750002,1340.0882870750002,1340.0882870750002,1342.1086352759999,1342.1086352759999,1342.1086352759999,1342.1086352759999,1342.1086352759999,1342.1086352759999,1342.1086352759999,1342.1086352759999,1344.126797799,1344.126797799,1344.126797799,1344.126797799,,,,,,,,,,,,,,,,,,,,,,,,,,,,,,,,,,,,,,,08,012,2022-09-27_14h38.28.406,test2,2022.2.4,60.173421002771974,
0,0,0,0,75,0,75,0,1344.126797799,1344.126797799,1344.126797799,1344.126797799,1344.126797799,1344.126797799,1344.126797799,1,1,azul,1,['N_B'],1345.7110302810001,1345.7110302810001,1345.7110302810001,1345.7110302810001,1347.7309747220002,1347.7309747220002,1347.7309747220002,1347.7309747220002,1347.7309747220002,1347.7309747220002,1347.7309747220002,1347.7309747220002,1349.749176549,1349.749176549,1349.749176549,1349.749176549,,,,,,,,,,,,,,,,,,,,,,,,,,,,,,,,,,,,,,,08,012,2022-09-27_14h38.28.406,test2,2022.2.4,60.173421002771974,
0,0,0,0,76,0,76,0,1349.749176549,1349.749176549,1349.749176549,1349.749176549,1349.749176549,1349.749176549,1349.749176549,1,-1,azul,0,['N_A'],1351.4512281319999,1351.4512281319999,1351.4512281319999,1351.4512281319999,1353.470616442,1353.470616442,1353.470616442,1353.470616442,1353.470616442,1353.470616442,1353.470616442,1353.470616442,1355.4888985779999,1355.4888985779999,1355.4888985779999,1355.4888985779999,,,,,,,,,,,,,,,,,,,,,,,,,,,,,,,,,,,,,,,08,012,2022-09-27_14h38.28.406,test2,2022.2.4,60.173421002771974,
0,0,0,0,77,0,77,0,1355.4888985779999,1355.4888985779999,1355.4888985779999,1355.4888985779999,1355.4888985779999,1355.4888985779999,1355.4888985779999,-1,1,azul,1,['N_A'],1357.824759694,1357.824759694,1357.824759694,1357.824759694,1359.8445986800002,1359.8445986800002,1359.8445986800002,1359.8445986800002,1359.8445986800002,1359.8445986800002,1359.8445986800002,1359.8445986800002,1361.862401284,1361.862401284,1361.862401284,1361.862401284,,,,,,,,,,,,,,,,,,,,,,,,,,,,,,,,,,,,,,,08,012,2022-09-27_14h38.28.406,test2,2022.2.4,60.173421002771974,
0,0,0,0,78,0,78,0,1361.862401284,1361.862401284,1361.862401284,1361.862401284,1361.862401284,1361.862401284,1361.862401284,1,-1,rojo,0,['N_B'],1363.3978246000001,1363.3978246000001,1363.3978246000001,1363.3978246000001,1365.4339543810001,1365.4339543810001,1365.4339543810001,1365.4339543810001,1365.4339543810001,1365.4339543810001,1365.4339543810001,1365.4339543810001,1367.4524686600002,1367.4524686600002,1367.4524686600002,1367.4524686600002,,,,,,,,,,,,,,,,,,,,,,,,,,,,,,,,,,,,,,,08,012,2022-09-27_14h38.28.406,test2,2022.2.4,60.173421002771974,
0,0,0,0,79,0,79,0,1367.4524686600002,1367.4524686600002,1367.4524686600002,1367.4524686600002,1367.4524686600002,1367.4524686600002,1367.4524686600002,1,-1,azul,1,['N_B'],1369.3054658280003,1369.3054658280003,1369.3054658280003,1369.3054658280003,1371.3409857319998,1371.3409857319998,1371.3409857319998,1371.3409857319998,1371.3409857319998,1371.3409857319998,1371.3409857319998,1371.3409857319998,1373.3590179809999,1373.3590179809999,1373.3590179809999,1373.3590179809999,,,,,,,,,,,,,,,,,,,,,,,,,,,,,,,,,,,,,,,08,012,2022-09-27_14h38.28.406,test2,2022.2.4,60.173421002771974,
0,0,0,0,80,0,80,0,1373.3590179809999,1373.3590179809999,1373.3590179809999,1373.3590179809999,1373.3590179809999,1373.3590179809999,1373.3590179809999,-1,-1,rojo,0,['N_A'],1374.726534851,1374.726534851,1374.726534851,1374.726534851,1376.7633787290001,1376.7633787290001,1376.7633787290001,1376.7633787290001,1376.7633787290001,1376.7633787290001,1376.7633787290001,1376.7633787290001,1378.7808607830002,1378.7808607830002,1378.7808607830002,1378.7808607830002,,,,,,,,,,,,,,,,,,,,,,,,,,,,,,,,,,,,,,,08,012,2022-09-27_14h38.28.406,test2,2022.2.4,60.173421002771974,
0,0,0,0,81,0,81,0,1378.7808607830002,1378.7808607830002,1378.7808607830002,1378.7808607830002,1378.7808607830002,1378.7808607830002,1378.7808607830002,1,-1,rojo,1,['N_A'],1380.6835248349998,1380.6835248349998,1380.6835248349998,1380.6835248349998,1382.7027604109999,1382.7027604109999,1382.7027604109999,1382.7027604109999,1382.7027604109999,1382.7027604109999,1382.7027604109999,1382.7027604109999,1384.7208826209999,1384.7208826209999,1384.7208826209999,1384.7208826209999,,,,,,,,,,,,,,,,,,,,,,,,,,,,,,,,,,,,,,,08,012,2022-09-27_14h38.28.406,test2,2022.2.4,60.173421002771974,
0,0,0,0,82,0,82,0,1384.7208826209999,1384.7208826209999,1384.7208826209999,1384.7208826209999,1384.7208826209999,1384.7208826209999,1384.7208826209999,1,1,rojo,1,['N_A'],1386.606830615,1386.606830615,1386.606830615,1386.606830615,1388.6258600279998,1388.6258600279998,1388.6258600279998,1388.6258600279998,1388.6258600279998,1388.6258600279998,1388.6258600279998,1388.6258600279998,1390.6445127830002,1390.6445127830002,1390.6445127830002,1390.6445127830002,,,,,,,,,,,,,,,,,,,,,,,,,,,,,,,,,,,,,,,08,012,2022-09-27_14h38.28.406,test2,2022.2.4,60.173421002771974,
0,0,0,0,83,0,83,0,1390.6445127830002,1390.6445127830002,1390.6445127830002,1390.6445127830002,1390.6445127830002,1390.6445127830002,1390.6445127830002,1,-1,rojo,0,['N_B'],1392.112335148,1392.112335148,1392.112335148,1392.112335148,1394.148689613,1394.148689613,1394.148689613,1394.148689613,1394.148689613,1394.148689613,1394.148689613,1394.148689613,1396.1669992830002,1396.1669992830002,1396.1669992830002,1396.1669992830002,,,,,,,,,,,,,,,,,,,,,,,,,,,,,,,,,,,,,,,08,012,2022-09-27_14h38.28.406,test2,2022.2.4,60.173421002771974,
0,0,0,0,84,0,84,0,1396.1669992830002,1396.1669992830002,1396.1669992830002,1396.1669992830002,1396.1669992830002,1396.1669992830002,1396.1669992830002,-1,-1,rojo,1,['N_B'],1397.61879981,1397.61879981,1397.61879981,1397.61879981,1399.638384249,1399.638384249,1399.638384249,1399.638384249,1399.638384249,1399.638384249,1399.638384249,1399.638384249,1401.6565963460002,1401.6565963460002,1401.6565963460002,1401.6565963460002,,,,,,,,,,,,,,,,,,,,,,,,,,,,,,,,,,,,,,,08,012,2022-09-27_14h38.28.406,test2,2022.2.4,60.173421002771974,
0,0,0,0,85,0,85,0,1401.6565963460002,1401.6565963460002,1401.6565963460002,1401.6565963460002,1401.6565963460002,1401.6565963460002,1401.6565963460002,1,1,azul,1,['N_B'],1411.2673754430002,1411.2673754430002,1411.2673754430002,1411.2673754430002,1413.2864821910002,1413.2864821910002,1413.2864821910002,1413.2864821910002,1413.2864821910002,1413.2864821910002,1413.2864821910002,1413.2864821910002,1415.322528146,1415.322528146,1415.322528146,1415.322528146,,,,,,,,,,,,,,,,,,,,,,,,,,,,,,,,,,,,,,,08,012,2022-09-27_14h38.28.406,test2,2022.2.4,60.173421002771974,
0,0,0,0,86,0,86,0,1415.322528146,1415.322528146,1415.322528146,1415.322528146,1415.322528146,1415.322528146,1415.322528146,-1,-1,rojo,0,['N_A'],1416.32298387,1416.32298387,1416.32298387,1416.32298387,1418.3421643319998,1418.3421643319998,1418.3421643319998,1418.3421643319998,1418.3421643319998,1418.3421643319998,1418.3421643319998,1418.3421643319998,1420.377813876,1420.377813876,1420.377813876,1420.377813876,,,,,,,,,,,,,,,,,,,,,,,,,,,,,,,,,,,,,,,08,012,2022-09-27_14h38.28.406,test2,2022.2.4,60.173421002771974,
0,0,0,0,87,0,87,0,1420.377813876,1420.377813876,1420.377813876,1420.377813876,1420.377813876,1420.377813876,1420.377813876,1,1,rojo,1,['N_A'],1421.3779926890002,1421.3779926890002,1421.3779926890002,1421.3779926890002,1423.3972301580002,1423.3972301580002,1423.3972301580002,1423.3972301580002,1423.3972301580002,1423.3972301580002,1423.3972301580002,1423.3972301580002,1425.416700329,1425.416700329,1425.416700329,1425.416700329,,,,,,,,,,,,,,,,,,,,,,,,,,,,,,,,,,,,,,,08,012,2022-09-27_14h38.28.406,test2,2022.2.4,60.173421002771974,
0,0,0,0,88,0,88,0,1425.416700329,1425.416700329,1425.416700329,1425.416700329,1425.416700329,1425.416700329,1425.416700329,-1,-1,azul,0,['N_B'],1426.8014237779998,1426.8014237779998,1426.8014237779998,1426.8014237779998,1428.819686372,1428.819686372,1428.819686372,1428.819686372,1428.819686372,1428.819686372,1428.819686372,1428.819686372,1430.839340849,1430.839340849,1430.839340849,1430.839340849,,,,,,,,,,,,,,,,,,,,,,,,,,,,,,,,,,,,,,,08,012,2022-09-27_14h38.28.406,test2,2022.2.4,60.173421002771974,
0,0,0,0,89,0,89,0,1430.839340849,1430.839340849,1430.839340849,1430.839340849,1430.839340849,1430.839340849,1430.839340849,1,1,azul,0,['N_A'],1432.3402098790002,1432.3402098790002,1432.3402098790002,1432.3402098790002,1434.3599494139999,1434.3599494139999,1434.3599494139999,1434.3599494139999,1434.3599494139999,1434.3599494139999,1434.3599494139999,1434.3599494139999,1436.378351888,1436.378351888,1436.378351888,1436.378351888,,,,,,,,,,,,,,,,,,,,,,,,,,,,,,,,,,,,,,,08,012,2022-09-27_14h38.28.406,test2,2022.2.4,60.173421002771974,
0,0,0,0,90,0,90,0,1436.378351888,1436.378351888,1436.378351888,1436.378351888,1436.378351888,1436.378351888,1436.378351888,1,1,rojo,0,['N_B'],1437.745814252,1437.745814252,1437.745814252,1437.745814252,1439.766671985,1439.766671985,1439.766671985,1439.766671985,1439.766671985,1439.766671985,1439.766671985,1439.766671985,1441.7854151850001,1441.7854151850001,1441.7854151850001,1441.7854151850001,,,,,,,,,,,,,,,,,,,,,,,,,,,,,,,,,,,,,,,08,012,2022-09-27_14h38.28.406,test2,2022.2.4,60.173421002771974,
0,0,0,0,91,0,91,0,1441.7854151850001,1441.7854151850001,1441.7854151850001,1441.7854151850001,1441.7854151850001,1441.7854151850001,1441.7854151850001,1,1,azul,0,['N_A'],1443.2362415420002,1443.2362415420002,1443.2362415420002,1443.2362415420002,1445.254834633,1445.254834633,1445.254834633,1445.254834633,1445.254834633,1445.254834633,1445.254834633,1445.254834633,1447.27355159,1447.27355159,1447.27355159,1447.27355159,,,,,,,,,,,,,,,,,,,,,,,,,,,,,,,,,,,,,,,08,012,2022-09-27_14h38.28.406,test2,2022.2.4,60.173421002771974,
0,0,0,0,92,0,92,0,1447.27355159,1447.27355159,1447.27355159,1447.27355159,1447.27355159,1447.27355159,1447.27355159,1,-1,rojo,0,['N_B'],1449.008422624,1449.008422624,1449.008422624,1449.008422624,1451.02786423,1451.02786423,1451.02786423,1451.02786423,1451.02786423,1451.02786423,1451.02786423,1451.02786423,1453.047057107,1453.047057107,1453.047057107,1453.047057107,,,,,,,,,,,,,,,,,,,,,,,,,,,,,,,,,,,,,,,08,012,2022-09-27_14h38.28.406,test2,2022.2.4,60.173421002771974,
0,0,0,0,93,0,93,0,1453.047057107,1453.047057107,1453.047057107,1453.047057107,1453.047057107,1453.047057107,1453.047057107,1,1,azul,0,['N_A'],1454.5647879480002,1454.5647879480002,1454.5647879480002,1454.5647879480002,1456.583934281,1456.583934281,1456.583934281,1456.583934281,1456.583934281,1456.583934281,1456.583934281,1456.583934281,1458.6024641489998,1458.6024641489998,1458.6024641489998,1458.6024641489998,,,,,,,,,,,,,,,,,,,,,,,,,,,,,,,,,,,,,,,08,012,2022-09-27_14h38.28.406,test2,2022.2.4,60.173421002771974,
0,0,0,0,94,0,94,0,1458.6024641489998,1458.6024641489998,1458.6024641489998,1458.6024641489998,1458.6024641489998,1458.6024641489998,1458.6024641489998,-1,-1,azul,0,['N_B'],1460.2882845610002,1460.2882845610002,1460.2882845610002,1460.2882845610002,1462.306255566,1462.306255566,1462.306255566,1462.306255566,1462.306255566,1462.306255566,1462.306255566,1462.306255566,1464.325956905,1464.325956905,1464.325956905,1464.325956905,,,,,,,,,,,,,,,,,,,,,,,,,,,,,,,,,,,,,,,08,012,2022-09-27_14h38.28.406,test2,2022.2.4,60.173421002771974,
0,0,0,0,95,0,95,0,1464.325956905,1464.325956905,1464.325956905,1464.325956905,1464.325956905,1464.325956905,1464.325956905,-1,1,rojo,1,['N_B'],1466.995833127,1466.995833127,1466.995833127,1466.995833127,1469.0142497729998,1469.0142497729998,1469.0142497729998,1469.0142497729998,1469.0142497729998,1469.0142497729998,1469.0142497729998,1469.0142497729998,1471.033221612,1471.033221612,1471.033221612,1471.033221612,,,,,,,,,,,,,,,,,,,,,,,,,,,,,,,,,,,,,,,08,012,2022-09-27_14h38.28.406,test2,2022.2.4,60.173421002771974,
0,0,0,0,96,0,96,0,1471.033221612,1471.033221612,1471.033221612,1471.033221612,1471.033221612,1471.033221612,1471.033221612,1,-1,azul,0,['N_A'],1472.450848648,1472.450848648,1472.450848648,1472.450848648,1474.487514799,1474.487514799,1474.487514799,1474.487514799,1474.487514799,1474.487514799,1474.487514799,1474.487514799,1476.5055114259999,1476.5055114259999,1476.5055114259999,1476.5055114259999,,,,,,,,,,,,,,,,,,,,,,,,,,,,,,,,,,,,,,,08,012,2022-09-27_14h38.28.406,test2,2022.2.4,60.173421002771974,
0,0,0,0,97,0,97,0,1476.5055114259999,1476.5055114259999,1476.5055114259999,1476.5055114259999,1476.5055114259999,1476.5055114259999,1476.5055114259999,-1,-1,azul,0,['N_B'],1478.19148378,1478.19148378,1478.19148378,1478.19148378,1480.227521419,1480.227521419,1480.227521419,1480.227521419,1480.227521419,1480.227521419,1480.227521419,1480.227521419,1482.244898846,1482.244898846,1482.244898846,1482.244898846,,,,,,,,,,,,,,,,,,,,,,,,,,,,,,,,,,,,,,,08,012,2022-09-27_14h38.28.406,test2,2022.2.4,60.173421002771974,
0,0,0,0,98,0,98,0,1482.244898846,1482.244898846,1482.244898846,1482.244898846,1482.244898846,1482.244898846,1482.244898846,1,-1,azul,0,['N_A'],1483.663505852,1483.663505852,1483.663505852,1483.663505852,1485.699988027,1485.699988027,1485.699988027,1485.699988027,1485.699988027,1485.699988027,1485.699988027,1485.699988027,1487.7181512830002,1487.7181512830002,1487.7181512830002,1487.7181512830002,,,,,,,,,,,,,,,,,,,,,,,,,,,,,,,,,,,,,,,08,012,2022-09-27_14h38.28.406,test2,2022.2.4,60.173421002771974,
0,0,0,0,99,0,99,0,1487.7181512830002,1487.7181512830002,1487.7181512830002,1487.7181512830002,1487.7181512830002,1487.7181512830002,1487.7181512830002,1,-1,rojo,0,['N_B'],1489.1036102369999,1489.1036102369999,1489.1036102369999,1489.1036102369999,1491.1394361020002,1491.1394361020002,1491.1394361020002,1491.1394361020002,1491.1394361020002,1491.1394361020002,1491.1394361020002,1491.1394361020002,1493.158141804,1493.158141804,1493.158141804,1493.158141804,,,,,,,,,,,,,,,,,,,,,,,,,,,,,,,,,,,,,,,08,012,2022-09-27_14h38.28.406,test2,2022.2.4,60.173421002771974,
0,0,0,0,100,0,100,0,1493.158141804,1493.158141804,1493.158141804,1493.158141804,1493.158141804,1493.158141804,1493.158141804,1,-1,azul,0,['N_A'],1496.2616129490002,1496.2616129490002,1496.2616129490002,1496.2616129490002,1498.2972573490001,1498.2972573490001,1498.2972573490001,1498.2972573490001,1498.2972573490001,1498.2972573490001,1498.2972573490001,1498.2972573490001,1500.3153720999999,1500.3153720999999,1500.3153720999999,1500.3153720999999,,,,,,,,,,,,,,,,,,,,,,,,,,,,,,,,,,,,,,,08,012,2022-09-27_14h38.28.406,test2,2022.2.4,60.173421002771974,
0,0,0,0,101,0,101,0,1500.3153720999999,1500.3153720999999,1500.3153720999999,1500.3153720999999,1500.3153720999999,1500.3153720999999,1500.3153720999999,1,-1,rojo,1,['N_A'],1501.71756924,1501.71756924,1501.71756924,1501.71756924,1503.7533074500002,1503.7533074500002,1503.7533074500002,1503.7533074500002,1503.7533074500002,1503.7533074500002,1503.7533074500002,1503.7533074500002,1505.7719202990002,1505.7719202990002,1505.7719202990002,1505.7719202990002,,,,,,,,,,,,,,,,,,,,,,,,,,,,,,,,,,,,,,,08,012,2022-09-27_14h38.28.406,test2,2022.2.4,60.173421002771974,
0,0,0,0,102,0,102,0,1505.7719202990002,1505.7719202990002,1505.7719202990002,1505.7719202990002,1505.7719202990002,1505.7719202990002,1505.7719202990002,-1,-1,azul,1,['N_A'],1507.323470894,1507.323470894,1507.323470894,1507.323470894,1509.3597664879999,1509.3597664879999,1509.3597664879999,1509.3597664879999,1509.3597664879999,1509.3597664879999,1509.3597664879999,1509.3597664879999,1511.3775719760001,1511.3775719760001,1511.3775719760001,1511.3775719760001,,,,,,,,,,,,,,,,,,,,,,,,,,,,,,,,,,,,,,,08,012,2022-09-27_14h38.28.406,test2,2022.2.4,60.173421002771974,
0,0,0,0,103,0,103,0,1511.3775719760001,1511.3775719760001,1511.3775719760001,1511.3775719760001,1511.3775719760001,1511.3775719760001,1511.3775719760001,1,-1,rojo,0,['N_B'],1512.6951669,1512.6951669,1512.6951669,1512.6951669,1514.7142950510001,1514.7142950510001,1514.7142950510001,1514.7142950510001,1514.7142950510001,1514.7142950510001,1514.7142950510001,1514.7142950510001,1516.733666565,1516.733666565,1516.733666565,1516.733666565,,,,,,,,,,,,,,,,,,,,,,,,,,,,,,,,,,,,,,,08,012,2022-09-27_14h38.28.406,test2,2022.2.4,60.173421002771974,
0,0,0,0,104,0,104,0,1516.733666565,1516.733666565,1516.733666565,1516.733666565,1516.733666565,1516.733666565,1516.733666565,1,1,azul,1,['N_B'],1518.30177666,1518.30177666,1518.30177666,1518.30177666,1520.3211799639998,1520.3211799639998,1520.3211799639998,1520.3211799639998,1520.3211799639998,1520.3211799639998,1520.3211799639998,1520.3211799639998,1522.33968481,1522.33968481,1522.33968481,1522.33968481,,,,,,,,,,,,,,,,,,,,,,,,,,,,,,,,,,,,,,,08,012,2022-09-27_14h38.28.406,test2,2022.2.4,60.173421002771974,
0,0,0,0,105,0,105,0,1522.33968481,1522.33968481,1522.33968481,1522.33968481,1522.33968481,1522.33968481,1522.33968481,1,1,azul,1,['N_B'],1523.891665059,1523.891665059,1523.891665059,1523.891665059,1525.911251207,1525.911251207,1525.911251207,1525.911251207,1525.911251207,1525.911251207,1525.911251207,1525.911251207,1527.929368819,1527.929368819,1527.929368819,1527.929368819,,,,,,,,,,,,,,,,,,,,,,,,,,,,,,,,,,,,,,,08,012,2022-09-27_14h38.28.406,test2,2022.2.4,60.173421002771974,
0,0,0,0,106,0,106,0,1527.929368819,1527.929368819,1527.929368819,1527.929368819,1527.929368819,1527.929368819,1527.929368819,1,1,azul,1,['N_B'],1530.065437201,1530.065437201,1530.065437201,1530.065437201,1532.08375403,1532.08375403,1532.08375403,1532.08375403,1532.08375403,1532.08375403,1532.08375403,1532.08375403,1534.1030472940001,1534.1030472940001,1534.1030472940001,1534.1030472940001,,,,,,,,,,,,,,,,,,,,,,,,,,,,,,,,,,,,,,,08,012,2022-09-27_14h38.28.406,test2,2022.2.4,60.173421002771974,
0,0,0,0,107,0,107,0,1534.1030472940001,1534.1030472940001,1534.1030472940001,1534.1030472940001,1534.1030472940001,1534.1030472940001,1534.1030472940001,-1,-1,rojo,1,['N_B'],1535.4378097550002,1535.4378097550002,1535.4378097550002,1535.4378097550002,1537.457484613,1537.457484613,1537.457484613,1537.457484613,1537.457484613,1537.457484613,1537.457484613,1537.457484613,1539.47535514,1539.47535514,1539.47535514,1539.47535514,,,,,,,,,,,,,,,,,,,,,,,,,,,,,,,,,,,,,,,08,012,2022-09-27_14h38.28.406,test2,2022.2.4,60.173421002771974,
0,0,0,0,108,0,108,0,1539.47535514,1539.47535514,1539.47535514,1539.47535514,1539.47535514,1539.47535514,1539.47535514,1,1,azul,1,['N_B'],1540.8441089819999,1540.8441089819999,1540.8441089819999,1540.8441089819999,1542.863362484,1542.863362484,1542.863362484,1542.863362484,1542.863362484,1542.863362484,1542.863362484,1542.863362484,1544.8818562790002,1544.8818562790002,1544.8818562790002,1544.8818562790002,,,,,,,,,,,,,,,,,,,,,,,,,,,,,,,,,,,,,,,08,012,2022-09-27_14h38.28.406,test2,2022.2.4,60.173421002771974,
0,0,0,0,109,0,109,0,1544.8818562790002,1544.8818562790002,1544.8818562790002,1544.8818562790002,1544.8818562790002,1544.8818562790002,1544.8818562790002,1,1,azul,1,['N_B'],1546.266160993,1546.266160993,1546.266160993,1546.266160993,1548.285054213,1548.285054213,1548.285054213,1548.285054213,1548.285054213,1548.285054213,1548.285054213,1548.285054213,1550.3044714940002,1550.3044714940002,1550.3044714940002,1550.3044714940002,,,,,,,,,,,,,,,,,,,,,,,,,,,,,,,,,,,,,,,08,012,2022-09-27_14h38.28.406,test2,2022.2.4,60.173421002771974,
0,0,0,0,110,0,110,0,1550.3044714940002,1550.3044714940002,1550.3044714940002,1550.3044714940002,1550.3044714940002,1550.3044714940002,1550.3044714940002,1,-1,azul,1,['N_B'],1551.7234993840002,1551.7234993840002,1551.7234993840002,1551.7234993840002,1553.7405768530002,1553.7405768530002,1553.7405768530002,1553.7405768530002,1553.7405768530002,1553.7405768530002,1553.7405768530002,1553.7405768530002,1555.7600108749998,1555.7600108749998,1555.7600108749998,1555.7600108749998,,,,,,,,,,,,,,,,,,,,,,,,,,,,,,,,,,,,,,,08,012,2022-09-27_14h38.28.406,test2,2022.2.4,60.173421002771974,
0,0,0,0,111,0,111,0,1555.7600108749998,1555.7600108749998,1555.7600108749998,1555.7600108749998,1555.7600108749998,1555.7600108749998,1555.7600108749998,1,1,azul,1,['N_B'],1557.4285585060002,1557.4285585060002,1557.4285585060002,1557.4285585060002,1559.448082213,1559.448082213,1559.448082213,1559.448082213,1559.448082213,1559.448082213,1559.448082213,1559.448082213,1561.465816684,1561.465816684,1561.465816684,1561.465816684,,,,,,,,,,,,,,,,,,,,,,,,,,,,,,,,,,,,,,,08,012,2022-09-27_14h38.28.406,test2,2022.2.4,60.173421002771974,
0,0,0,0,112,0,112,0,1561.465816684,1561.465816684,1561.465816684,1561.465816684,1561.465816684,1561.465816684,1561.465816684,1,1,azul,1,['N_B'],1563.9523341939998,1563.9523341939998,1563.9523341939998,1563.9523341939998,1565.971865549,1565.971865549,1565.971865549,1565.971865549,1565.971865549,1565.971865549,1565.971865549,1565.971865549,1567.989942795,1567.989942795,1567.989942795,1567.989942795,,,,,,,,,,,,,,,,,,,,,,,,,,,,,,,,,,,,,,,08,012,2022-09-27_14h38.28.406,test2,2022.2.4,60.173421002771974,
0,0,0,0,113,0,113,0,1567.989942795,1567.989942795,1567.989942795,1567.989942795,1567.989942795,1567.989942795,1567.989942795,-1,-1,rojo,1,['N_B'],1569.4424098210002,1569.4424098210002,1569.4424098210002,1569.4424098210002,1571.4782957819998,1571.4782957819998,1571.4782957819998,1571.4782957819998,1571.4782957819998,1571.4782957819998,1571.4782957819998,1571.4782957819998,1573.495646846,1573.495646846,1573.495646846,1573.495646846,,,,,,,,,,,,,,,,,,,,,,,,,,,,,,,,,,,,,,,08,012,2022-09-27_14h38.28.406,test2,2022.2.4,60.173421002771974,
0,0,0,0,114,0,114,0,1573.495646846,1573.495646846,1573.495646846,1573.495646846,1573.495646846,1573.495646846,1573.495646846,-1,-1,rojo,1,['N_B'],1575.481684715,1575.481684715,1575.481684715,1575.481684715,1577.5183095850002,1577.5183095850002,1577.5183095850002,1577.5183095850002,1577.5183095850002,1577.5183095850002,1577.5183095850002,1577.5183095850002,1579.5361699169998,1579.5361699169998,1579.5361699169998,1579.5361699169998,,,,,,,,,,,,,,,,,,,,,,,,,,,,,,,,,,,,,,,08,012,2022-09-27_14h38.28.406,test2,2022.2.4,60.173421002771974,
0,0,0,0,115,0,115,0,1579.5361699169998,1579.5361699169998,1579.5361699169998,1579.5361699169998,1579.5361699169998,1579.5361699169998,1579.5361699169998,-1,-1,rojo,0,['N_A'],1581.3547149360002,1581.3547149360002,1581.3547149360002,1581.3547149360002,1583.3911384419998,1583.3911384419998,1583.3911384419998,1583.3911384419998,1583.3911384419998,1583.3911384419998,1583.3911384419998,1583.3911384419998,1585.4092281080002,1585.4092281080002,1585.4092281080002,1585.4092281080002,,,,,,,,,,,,,,,,,,,,,,,,,,,,,,,,,,,,,,,08,012,2022-09-27_14h38.28.406,test2,2022.2.4,60.173421002771974,
0,0,0,0,116,0,116,0,1585.4092281080002,1585.4092281080002,1585.4092281080002,1585.4092281080002,1585.4092281080002,1585.4092281080002,1585.4092281080002,1,-1,rojo,1,['N_A'],1586.794139863,1586.794139863,1586.794139863,1586.794139863,1588.831070398,1588.831070398,1588.831070398,1588.831070398,1588.831070398,1588.831070398,1588.831070398,1588.831070398,1590.848600071,1590.848600071,1590.848600071,1590.848600071,,,,,,,,,,,,,,,,,,,,,,,,,,,,,,,,,,,,,,,08,012,2022-09-27_14h38.28.406,test2,2022.2.4,60.173421002771974,
0,0,0,0,117,0,117,0,1590.848600071,1590.848600071,1590.848600071,1590.848600071,1590.848600071,1590.848600071,1590.848600071,1,-1,rojo,0,['N_B'],1592.751428294,1592.751428294,1592.751428294,1592.751428294,1594.7873183780002,1594.7873183780002,1594.7873183780002,1594.7873183780002,1594.7873183780002,1594.7873183780002,1594.7873183780002,1594.7873183780002,1596.805430726,1596.805430726,1596.805430726,1596.805430726,,,,,,,,,,,,,,,,,,,,,,,,,,,,,,,,,,,,,,,08,012,2022-09-27_14h38.28.406,test2,2022.2.4,60.173421002771974,
0,0,0,0,118,0,118,0,1596.805430726,1596.805430726,1596.805430726,1596.805430726,1596.805430726,1596.805430726,1596.805430726,1,-1,azul,1,['N_B'],1600.6766283030001,1600.6766283030001,1600.6766283030001,1600.6766283030001,1602.7127154089999,1602.7127154089999,1602.7127154089999,1602.7127154089999,1602.7127154089999,1602.7127154089999,1602.7127154089999,1602.7127154089999,1604.7311372509998,1604.7311372509998,1604.7311372509998,1604.7311372509998,,,,,,,,,,,,,,,,,,,,,,,,,,,,,,,,,,,,,,,08,012,2022-09-27_14h38.28.406,test2,2022.2.4,60.173421002771974,
0,0,0,0,119,0,119,0,1604.7311372509998,1604.7311372509998,1604.7311372509998,1604.7311372509998,1604.7311372509998,1604.7311372509998,1604.7311372509998,1,-1,azul,0,['N_A'],1606.95000372,1606.95000372,1606.95000372,1606.95000372,1608.968399462,1608.968399462,1608.968399462,1608.968399462,1608.968399462,1608.968399462,1608.968399462,1608.968399462,1610.9883371730002,1610.9883371730002,1610.9883371730002,1610.9883371730002,,,,,,,,,,,,,,,,,,,,,,,,,,,,,,,,,,,,,,,08,012,2022-09-27_14h38.28.406,test2,2022.2.4,60.173421002771974,
0,0,0,0,120,0,120,0,1610.9883371730002,1610.9883371730002,1610.9883371730002,1610.9883371730002,1610.9883371730002,1610.9883371730002,1610.9883371730002,-1,1,azul,1,['N_A'],1612.407265236,1612.407265236,1612.407265236,1612.407265236,1614.425169056,1614.425169056,1614.425169056,1614.425169056,1614.425169056,1614.425169056,1614.425169056,1614.425169056,1616.4431816790002,1616.4431816790002,1616.4431816790002,1616.4431816790002,,,,,,,,,,,,,,,,,,,,,,,,,,,,,,,,,,,,,,,08,012,2022-09-27_14h38.28.406,test2,2022.2.4,60.173421002771974,
0,0,0,0,121,0,121,0,1616.4431816790002,1616.4431816790002,1616.4431816790002,1616.4431816790002,1616.4431816790002,1616.4431816790002,1616.4431816790002,1,-1,rojo,1,['N_A'],1623.201290645,1623.201290645,1623.201290645,1623.201290645,1625.237843289,1625.237843289,1625.237843289,1625.237843289,1625.237843289,1625.237843289,1625.237843289,1625.237843289,1627.2548442390002,1627.2548442390002,1627.2548442390002,1627.2548442390002,,,,,,,,,,,,,,,,,,,,,,,,,,,,,,,,,,,,,,,08,012,2022-09-27_14h38.28.406,test2,2022.2.4,60.173421002771974,
0,0,0,0,122,0,122,0,1627.2548442390002,1627.2548442390002,1627.2548442390002,1627.2548442390002,1627.2548442390002,1627.2548442390002,1627.2548442390002,1,-1,rojo,0,['N_B'],1629.3078795760002,1629.3078795760002,1629.3078795760002,1629.3078795760002,1631.3445169830002,1631.3445169830002,1631.3445169830002,1631.3445169830002,1631.3445169830002,1631.3445169830002,1631.3445169830002,1631.3445169830002,1633.36267873,1633.36267873,1633.36267873,1633.36267873,,,,,,,,,,,,,,,,,,,,,,,,,,,,,,,,,,,,,,,08,012,2022-09-27_14h38.28.406,test2,2022.2.4,60.173421002771974,
0,0,0,0,123,0,123,0,1633.36267873,1633.36267873,1633.36267873,1633.36267873,1633.36267873,1633.36267873,1633.36267873,-1,-1,rojo,1,['N_B'],1634.763717117,1634.763717117,1634.763717117,1634.763717117,1636.7830058150003,1636.7830058150003,1636.7830058150003,1636.7830058150003,1636.7830058150003,1636.7830058150003,1636.7830058150003,1636.7830058150003,1638.8012136480002,1638.8012136480002,1638.8012136480002,1638.8012136480002,,,,,,,,,,,,,,,,,,,,,,,,,,,,,,,,,,,,,,,08,012,2022-09-27_14h38.28.406,test2,2022.2.4,60.173421002771974,
0,0,0,0,124,0,124,0,1638.8012136480002,1638.8012136480002,1638.8012136480002,1638.8012136480002,1638.8012136480002,1638.8012136480002,1638.8012136480002,1,1,azul,1,['N_B'],1640.2536499880002,1640.2536499880002,1640.2536499880002,1640.2536499880002,1642.2726752950002,1642.2726752950002,1642.2726752950002,1642.2726752950002,1642.2726752950002,1642.2726752950002,1642.2726752950002,1642.2726752950002,1644.2906746990002,1644.2906746990002,1644.2906746990002,1644.2906746990002,,,,,,,,,,,,,,,,,,,,,,,,,,,,,,,,,,,,,,,08,012,2022-09-27_14h38.28.406,test2,2022.2.4,60.173421002771974,
0,0,0,0,125,0,125,0,1644.2906746990002,1644.2906746990002,1644.2906746990002,1644.2906746990002,1644.2906746990002,1644.2906746990002,1644.2906746990002,1,1,azul,1,['N_B'],1648.6627861050001,1648.6627861050001,1648.6627861050001,1648.6627861050001,1650.682026258,1650.682026258,1650.682026258,1650.682026258,1650.682026258,1650.682026258,1650.682026258,1650.682026258,1652.7002480219999,1652.7002480219999,1652.7002480219999,1652.7002480219999,,,,,,,,,,,,,,,,,,,,,,,,,,,,,,,,,,,,,,,08,012,2022-09-27_14h38.28.406,test2,2022.2.4,60.173421002771974,
0,0,0,0,126,0,126,0,1652.7002480219999,1652.7002480219999,1652.7002480219999,1652.7002480219999,1652.7002480219999,1652.7002480219999,1652.7002480219999,1,1,azul,1,['N_B'],1654.703444891,1654.703444891,1654.703444891,1654.703444891,1656.7221646900002,1656.7221646900002,1656.7221646900002,1656.7221646900002,1656.7221646900002,1656.7221646900002,1656.7221646900002,1656.7221646900002,1658.740384112,1658.740384112,1658.740384112,1658.740384112,,,,,,,,,,,,,,,,,,,,,,,,,,,,,,,,,,,,,,,08,012,2022-09-27_14h38.28.406,test2,2022.2.4,60.173421002771974,
0,0,0,0,127,0,127,0,1658.740384112,1658.740384112,1658.740384112,1658.740384112,1658.740384112,1658.740384112,1658.740384112,1,1,azul,1,['N_B'],1661.2429531530001,1661.2429531530001,1661.2429531530001,1661.2429531530001,1663.262352931,1663.262352931,1663.262352931,1663.262352931,1663.262352931,1663.262352931,1663.262352931,1663.262352931,1665.280595757,1665.280595757,1665.280595757,1665.280595757,,,,,,,,,,,,,,,,,,,,,,,,,,,,,,,,,,,,,,,08,012,2022-09-27_14h38.28.406,test2,2022.2.4,60.173421002771974,
0,0,0,0,128,0,128,0,1665.280595757,1665.280595757,1665.280595757,1665.280595757,1665.280595757,1665.280595757,1665.280595757,1,1,azul,1,['N_B'],1666.983190517,1666.983190517,1666.983190517,1666.983190517,1669.0012580789999,1669.0012580789999,1669.0012580789999,1669.0012580789999,1669.0012580789999,1669.0012580789999,1669.0012580789999,1669.0012580789999,1671.0203044,1671.0203044,1671.0203044,1671.0203044,,,,,,,,,,,,,,,,,,,,,,,,,,,,,,,,,,,,,,,08,012,2022-09-27_14h38.28.406,test2,2022.2.4,60.173421002771974,
0,0,0,0,129,0,129,0,1671.0203044,1671.0203044,1671.0203044,1671.0203044,1671.0203044,1671.0203044,1671.0203044,1,-1,azul,1,['N_B'],1672.3886178469998,1672.3886178469998,1672.3886178469998,1672.3886178469998,1674.407784809,1674.407784809,1674.407784809,1674.407784809,1674.407784809,1674.407784809,1674.407784809,1674.407784809,1676.4263772969998,1676.4263772969998,1676.4263772969998,1676.4263772969998,,,,,,,,,,,,,,,,,,,,,,,,,,,,,,,,,,,,,,,08,012,2022-09-27_14h38.28.406,test2,2022.2.4,60.173421002771974,
0,0,0,0,130,0,130,0,1676.4263772969998,1676.4263772969998,1676.4263772969998,1676.4263772969998,1676.4263772969998,1676.4263772969998,1676.4263772969998,1,1,azul,1,['N_B'],1677.9613160139997,1677.9613160139997,1677.9613160139997,1677.9613160139997,1679.9801565779999,1679.9801565779999,1679.9801565779999,1679.9801565779999,1679.9801565779999,1679.9801565779999,1679.9801565779999,1679.9801565779999,1681.999168246,1681.999168246,1681.999168246,1681.999168246,,,,,,,,,,,,,,,,,,,,,,,,,,,,,,,,,,,,,,,08,012,2022-09-27_14h38.28.406,test2,2022.2.4,60.173421002771974,
0,0,0,0,131,0,131,0,1681.999168246,1681.999168246,1681.999168246,1681.999168246,1681.999168246,1681.999168246,1681.999168246,-1,-1,rojo,1,['N_B'],1684.736651538,1684.736651538,1684.736651538,1684.736651538,1686.75489294,1686.75489294,1686.75489294,1686.75489294,1686.75489294,1686.75489294,1686.75489294,1686.75489294,1688.773875377,1688.773875377,1688.773875377,1688.773875377,,,,,,,,,,,,,,,,,,,,,,,,,,,,,,,,,,,,,,,08,012,2022-09-27_14h38.28.406,test2,2022.2.4,60.173421002771974,
0,0,0,0,132,0,132,0,1688.773875377,1688.773875377,1688.773875377,1688.773875377,1688.773875377,1688.773875377,1688.773875377,1,1,azul,1,['N_B'],1690.108373647,1690.108373647,1690.108373647,1690.108373647,1692.1277335139998,1692.1277335139998,1692.1277335139998,1692.1277335139998,1692.1277335139998,1692.1277335139998,1692.1277335139998,1692.1277335139998,1694.1455834479998,1694.1455834479998,1694.1455834479998,1694.1455834479998,,,,,,,,,,,,,,,,,,,,,,,,,,,,,,,,,,,,,,,08,012,2022-09-27_14h38.28.406,test2,2022.2.4,60.173421002771974,
0,0,0,0,133,0,133,0,1694.1455834479998,1694.1455834479998,1694.1455834479998,1694.1455834479998,1694.1455834479998,1694.1455834479998,1694.1455834479998,-1,-1,rojo,0,['N_A'],1695.914385519,1695.914385519,1695.914385519,1695.914385519,1697.9514731219997,1697.9514731219997,1697.9514731219997,1697.9514731219997,1697.9514731219997,1697.9514731219997,1697.9514731219997,1697.9514731219997,1699.969039274,1699.969039274,1699.969039274,1699.969039274,,,,,,,,,,,,,,,,,,,,,,,,,,,,,,,,,,,,,,,08,012,2022-09-27_14h38.28.406,test2,2022.2.4,60.173421002771974,
0,0,0,0,134,0,134,0,1699.969039274,1699.969039274,1699.969039274,1699.969039274,1699.969039274,1699.969039274,1699.969039274,1,-1,rojo,0,['N_B'],1701.520844992,1701.520844992,1701.520844992,1701.520844992,1703.540129308,1703.540129308,1703.540129308,1703.540129308,1703.540129308,1703.540129308,1703.540129308,1703.540129308,1705.5592747269998,1705.5592747269998,1705.5592747269998,1705.5592747269998,,,,,,,,,,,,,,,,,,,,,,,,,,,,,,,,,,,,,,,08,012,2022-09-27_14h38.28.406,test2,2022.2.4,60.173421002771974,
0,0,0,0,135,0,135,0,1705.5592747269998,1705.5592747269998,1705.5592747269998,1705.5592747269998,1705.5592747269998,1705.5592747269998,1705.5592747269998,1,1,azul,1,['N_B'],1709.7625611409999,1709.7625611409999,1709.7625611409999,1709.7625611409999,1711.7822079059997,1711.7822079059997,1711.7822079059997,1711.7822079059997,1711.7822079059997,1711.7822079059997,1711.7822079059997,1711.7822079059997,1713.800855469,1713.800855469,1713.800855469,1713.800855469,,,,,,,,,,,,,,,,,,,,,,,,,,,,,,,,,,,,,,,08,012,2022-09-27_14h38.28.406,test2,2022.2.4,60.173421002771974,
0,0,0,0,136,0,136,0,1713.800855469,1713.800855469,1713.800855469,1713.800855469,1713.800855469,1713.800855469,1713.800855469,1,-1,azul,0,['N_A'],1718.974111161,1718.974111161,1718.974111161,1718.974111161,1720.9926645679998,1720.9926645679998,1720.9926645679998,1720.9926645679998,1720.9926645679998,1720.9926645679998,1720.9926645679998,1720.9926645679998,1723.011400428,1723.011400428,1723.011400428,1723.011400428,,,,,,,,,,,,,,,,,,,,,,,,,,,,,,,,,,,,,,,08,012,2022-09-27_14h38.28.406,test2,2022.2.4,60.173421002771974,
0,0,0,0,137,0,137,0,1723.011400428,1723.011400428,1723.011400428,1723.011400428,1723.011400428,1723.011400428,1723.011400428,1,1,rojo,0,['N_B'],1725.6472170779998,1725.6472170779998,1725.6472170779998,1725.6472170779998,1727.6661763060001,1727.6661763060001,1727.6661763060001,1727.6661763060001,1727.6661763060001,1727.6661763060001,1727.6661763060001,1727.6661763060001,1729.685775811,1729.685775811,1729.685775811,1729.685775811,,,,,,,,,,,,,,,,,,,,,,,,,,,,,,,,,,,,,,,08,012,2022-09-27_14h38.28.406,test2,2022.2.4,60.173421002771974,
0,0,0,0,138,0,138,0,1729.685775811,1729.685775811,1729.685775811,1729.685775811,1729.685775811,1729.685775811,1729.685775811,-1,-1,rojo,1,['N_B'],1732.6383699369999,1732.6383699369999,1732.6383699369999,1732.6383699369999,1734.657826924,1734.657826924,1734.657826924,1734.657826924,1734.657826924,1734.657826924,1734.657826924,1734.657826924,1736.6757473100001,1736.6757473100001,1736.6757473100001,1736.6757473100001,,,,,,,,,,,,,,,,,,,,,,,,,,,,,,,,,,,,,,,08,012,2022-09-27_14h38.28.406,test2,2022.2.4,60.173421002771974,
0,0,0,0,139,0,139,0,1736.6757473100001,1736.6757473100001,1736.6757473100001,1736.6757473100001,1736.6757473100001,1736.6757473100001,1736.6757473100001,1,1,azul,1,['N_B'],1738.094996195,1738.094996195,1738.094996195,1738.094996195,1740.112953023,1740.112953023,1740.112953023,1740.112953023,1740.112953023,1740.112953023,1740.112953023,1740.112953023,1742.1322984889998,1742.1322984889998,1742.1322984889998,1742.1322984889998,,,,,,,,,,,,,,,,,,,,,,,,,,,,,,,,,,,,,,,08,012,2022-09-27_14h38.28.406,test2,2022.2.4,60.173421002771974,
0,0,0,0,140,0,140,0,1742.1322984889998,1742.1322984889998,1742.1322984889998,1742.1322984889998,1742.1322984889998,1742.1322984889998,1742.1322984889998,1,-1,azul,0,['N_A'],1743.617095143,1743.617095143,1743.617095143,1743.617095143,1745.653850789,1745.653850789,1745.653850789,1745.653850789,1745.653850789,1745.653850789,1745.653850789,1745.653850789,1747.671345881,1747.671345881,1747.671345881,1747.671345881,,,,,,,,,,,,,,,,,,,,,,,,,,,,,,,,,,,,,,,08,012,2022-09-27_14h38.28.406,test2,2022.2.4,60.173421002771974,
0,0,0,0,141,0,141,0,1747.671345881,1747.671345881,1747.671345881,1747.671345881,1747.671345881,1747.671345881,1747.671345881,1,-1,rojo,1,['N_A'],1749.4566685519999,1749.4566685519999,1749.4566685519999,1749.4566685519999,1751.4928230249998,1751.4928230249998,1751.4928230249998,1751.4928230249998,1751.4928230249998,1751.4928230249998,1751.4928230249998,1751.4928230249998,1753.510994884,1753.510994884,1753.510994884,1753.510994884,,,,,,,,,,,,,,,,,,,,,,,,,,,,,,,,,,,,,,,08,012,2022-09-27_14h38.28.406,test2,2022.2.4,60.173421002771974,
0,0,0,0,142,0,142,0,1753.510994884,1753.510994884,1753.510994884,1753.510994884,1753.510994884,1753.510994884,1753.510994884,-1,-1,azul,0,['N_B'],1754.829389089,1754.829389089,1754.829389089,1754.829389089,1756.866356566,1756.866356566,1756.866356566,1756.866356566,1756.866356566,1756.866356566,1756.866356566,1756.866356566,1758.8837783939998,1758.8837783939998,1758.8837783939998,1758.8837783939998,,,,,,,,,,,,,,,,,,,,,,,,,,,,,,,,,,,,,,,08,012,2022-09-27_14h38.28.406,test2,2022.2.4,60.173421002771974,
0,0,0,0,143,0,143,0,1758.8837783939998,1758.8837783939998,1758.8837783939998,1758.8837783939998,1758.8837783939998,1758.8837783939998,1758.8837783939998,-1,-1,rojo,1,['N_B'],1760.2020648499997,1760.2020648499997,1760.2020648499997,1760.2020648499997,1762.238664256,1762.238664256,1762.238664256,1762.238664256,1762.238664256,1762.238664256,1762.238664256,1762.238664256,1764.256894439,1764.256894439,1764.256894439,1764.256894439,,,,,,,,,,,,,,,,,,,,,,,,,,,,,,,,,,,,,,,08,012,2022-09-27_14h38.28.406,test2,2022.2.4,60.173421002771974,
0,0,0,0,144,0,144,0,1764.256894439,1764.256894439,1764.256894439,1764.256894439,1764.256894439,1764.256894439,1764.256894439,-1,-1,rojo,0,['N_A'],1766.7257591950001,1766.7257591950001,1766.7257591950001,1766.7257591950001,1768.762461368,1768.762461368,1768.762461368,1768.762461368,1768.762461368,1768.762461368,1768.762461368,1768.762461368,1770.7805376860001,1770.7805376860001,1770.7805376860001,1770.7805376860001,,,,,,,,,,,,,,,,,,,,,,,,,,,,,,,,,,,,,,,08,012,2022-09-27_14h38.28.406,test2,2022.2.4,60.173421002771974,
0,0,0,0,145,0,145,0,1770.7805376860001,1770.7805376860001,1770.7805376860001,1770.7805376860001,1770.7805376860001,1770.7805376860001,1770.7805376860001,1,-1,rojo,0,['N_B'],1772.465874293,1772.465874293,1772.465874293,1772.465874293,1774.501582375,1774.501582375,1774.501582375,1774.501582375,1774.501582375,1774.501582375,1774.501582375,1774.501582375,1776.5199402899998,1776.5199402899998,1776.5199402899998,1776.5199402899998,,,,,,,,,,,,,,,,,,,,,,,,,,,,,,,,,,,,,,,08,012,2022-09-27_14h38.28.406,test2,2022.2.4,60.173421002771974,
0,0,0,0,146,0,146,0,1776.5199402899998,1776.5199402899998,1776.5199402899998,1776.5199402899998,1776.5199402899998,1776.5199402899998,1776.5199402899998,1,-1,azul,1,['N_B'],1780.475704513,1780.475704513,1780.475704513,1780.475704513,1782.510630103,1782.510630103,1782.510630103,1782.510630103,1782.510630103,1782.510630103,1782.510630103,1782.510630103,1784.5290262939998,1784.5290262939998,1784.5290262939998,1784.5290262939998,,,,,,,,,,,,,,,,,,,,,,,,,,,,,,,,,,,,,,,08,012,2022-09-27_14h38.28.406,test2,2022.2.4,60.173421002771974,
0,0,0,0,147,0,147,0,1784.5290262939998,1784.5290262939998,1784.5290262939998,1784.5290262939998,1784.5290262939998,1784.5290262939998,1784.5290262939998,1,-1,azul,1,['N_B'],1785.914401338,1785.914401338,1785.914401338,1785.914401338,1787.933265705,1787.933265705,1787.933265705,1787.933265705,1787.933265705,1787.933265705,1787.933265705,1787.933265705,1789.9520735339997,1789.9520735339997,1789.9520735339997,1789.9520735339997,,,,,,,,,,,,,,,,,,,,,,,,,,,,,,,,,,,,,,,08,012,2022-09-27_14h38.28.406,test2,2022.2.4,60.173421002771974,
0,0,0,0,148,0,148,0,1789.9520735339997,1789.9520735339997,1789.9520735339997,1789.9520735339997,1789.9520735339997,1789.9520735339997,1789.9520735339997,1,1,azul,1,['N_B'],1791.7873265929998,1791.7873265929998,1791.7873265929998,1791.7873265929998,1793.8066363949997,1793.8066363949997,1793.8066363949997,1793.8066363949997,1793.8066363949997,1793.8066363949997,1793.8066363949997,1793.8066363949997,1795.8254878550001,1795.8254878550001,1795.8254878550001,1795.8254878550001,,,,,,,,,,,,,,,,,,,,,,,,,,,,,,,,,,,,,,,08,012,2022-09-27_14h38.28.406,test2,2022.2.4,60.173421002771974,
0,0,0,0,149,0,149,0,1795.8254878550001,1795.8254878550001,1795.8254878550001,1795.8254878550001,1795.8254878550001,1795.8254878550001,1795.8254878550001,1,1,azul,1,['N_B'],1799.3791729249997,1799.3791729249997,1799.3791729249997,1799.3791729249997,1801.397481074,1801.397481074,1801.397481074,1801.397481074,1801.397481074,1801.397481074,1801.397481074,1801.397481074,1803.416895367,1803.416895367,1803.416895367,1803.416895367,,,,,,,,,,,,,,,,,,,,,,,,,,,,,,,,,,,,,,,08,012,2022-09-27_14h38.28.406,test2,2022.2.4,60.173421002771974,
0,0,0,0,150,0,150,0,1803.416895367,1803.416895367,1803.416895367,1803.416895367,1803.416895367,1803.416895367,1803.416895367,-1,-1,rojo,1,['N_B'],1805.986303135,1805.986303135,1805.986303135,1805.986303135,1808.005152526,1808.005152526,1808.005152526,1808.005152526,1808.005152526,1808.005152526,1808.005152526,1808.005152526,1810.024254948,1810.024254948,1810.024254948,1810.024254948,,,,,,,,,,,,,,,,,,,,,,,,,,,,,,,,,,,,,,,08,012,2022-09-27_14h38.28.406,test2,2022.2.4,60.173421002771974,
0,0,0,0,151,0,151,0,1810.024254948,1810.024254948,1810.024254948,1810.024254948,1810.024254948,1810.024254948,1810.024254948,1,1,azul,1,['N_B'],1813.160521057,1813.160521057,1813.160521057,1813.160521057,1815.179514512,1815.179514512,1815.179514512,1815.179514512,1815.179514512,1815.179514512,1815.179514512,1815.179514512,1817.198482882,1817.198482882,1817.198482882,1817.198482882,,,,,,,,,,,,,,,,,,,,,,,,,,,,,,,,,,,,,,,08,012,2022-09-27_14h38.28.406,test2,2022.2.4,60.173421002771974,
0,0,0,0,152,0,152,0,1817.198482882,1817.198482882,1817.198482882,1817.198482882,1817.198482882,1817.198482882,1817.198482882,1,-1,azul,1,['N_B'],1818.800243574,1818.800243574,1818.800243574,1818.800243574,1820.836723888,1820.836723888,1820.836723888,1820.836723888,1820.836723888,1820.836723888,1820.836723888,1820.836723888,1822.854991236,1822.854991236,1822.854991236,1822.854991236,,,,,,,,,,,,,,,,,,,,,,,,,,,,,,,,,,,,,,,08,012,2022-09-27_14h38.28.406,test2,2022.2.4,60.173421002771974,
0,0,0,0,153,0,153,0,1822.854991236,1822.854991236,1822.854991236,1822.854991236,1822.854991236,1822.854991236,1822.854991236,1,-1,azul,0,['N_A'],1824.2891506209999,1824.2891506209999,1824.2891506209999,1824.2891506209999,1826.325979577,1826.325979577,1826.325979577,1826.325979577,1826.325979577,1826.325979577,1826.325979577,1826.325979577,1828.344169684,1828.344169684,1828.344169684,1828.344169684,,,,,,,,,,,,,,,,,,,,,,,,,,,,,,,,,,,,,,,08,012,2022-09-27_14h38.28.406,test2,2022.2.4,60.173421002771974,
0,0,0,0,154,0,154,0,1828.344169684,1828.344169684,1828.344169684,1828.344169684,1828.344169684,1828.344169684,1828.344169684,1,-1,rojo,0,['N_B'],1831.6813937910001,1831.6813937910001,1831.6813937910001,1831.6813937910001,1833.7175062359997,1833.7175062359997,1833.7175062359997,1833.7175062359997,1833.7175062359997,1833.7175062359997,1833.7175062359997,1833.7175062359997,1835.735549981,1835.735549981,1835.735549981,1835.735549981,,,,,,,,,,,,,,,,,,,,,,,,,,,,,,,,,,,,,,,08,012,2022-09-27_14h38.28.406,test2,2022.2.4,60.173421002771974,
0,0,0,0,155,0,155,0,1835.735549981,1835.735549981,1835.735549981,1835.735549981,1835.735549981,1835.735549981,1835.735549981,1,-1,azul,0,['N_A'],1837.1698331100001,1837.1698331100001,1837.1698331100001,1837.1698331100001,1839.190359618,1839.190359618,1839.190359618,1839.190359618,1839.190359618,1839.190359618,1839.190359618,1839.190359618,1841.2082294399997,1841.2082294399997,1841.2082294399997,1841.2082294399997,,,,,,,,,,,,,,,,,,,,,,,,,,,,,,,,,,,,,,,08,012,2022-09-27_14h38.28.406,test2,2022.2.4,60.173421002771974,
0,0,0,0,156,0,156,0,1841.2082294399997,1841.2082294399997,1841.2082294399997,1841.2082294399997,1841.2082294399997,1841.2082294399997,1841.2082294399997,-1,1,azul,1,['N_A'],1843.427614953,1843.427614953,1843.427614953,1843.427614953,1845.4466133639999,1845.4466133639999,1845.4466133639999,1845.4466133639999,1845.4466133639999,1845.4466133639999,1845.4466133639999,1845.4466133639999,1847.464685427,1847.464685427,1847.464685427,1847.464685427,,,,,,,,,,,,,,,,,,,,,,,,,,,,,,,,,,,,,,,08,012,2022-09-27_14h38.28.406,test2,2022.2.4,60.173421002771974,
0,0,0,0,157,0,157,0,1847.464685427,1847.464685427,1847.464685427,1847.464685427,1847.464685427,1847.464685427,1847.464685427,1,-1,rojo,0,['N_B'],1848.849804505,1848.849804505,1848.849804505,1848.849804505,1850.886556863,1850.886556863,1850.886556863,1850.886556863,1850.886556863,1850.886556863,1850.886556863,1850.886556863,1852.9039998969997,1852.9039998969997,1852.9039998969997,1852.9039998969997,,,,,,,,,,,,,,,,,,,,,,,,,,,,,,,,,,,,,,,08,012,2022-09-27_14h38.28.406,test2,2022.2.4,60.173421002771974,
0,0,0,0,158,0,158,0,1852.9039998969997,1852.9039998969997,1852.9039998969997,1852.9039998969997,1852.9039998969997,1852.9039998969997,1852.9039998969997,1,-1,azul,0,['N_A'],1859.9951378259998,1859.9951378259998,1859.9951378259998,1859.9951378259998,1862.03171338,1862.03171338,1862.03171338,1862.03171338,1862.03171338,1862.03171338,1862.03171338,1862.03171338,1864.049572971,1864.049572971,1864.049572971,1864.049572971,,,,,,,,,,,,,,,,,,,,,,,,,,,,,,,,,,,,,,,08,012,2022-09-27_14h38.28.406,test2,2022.2.4,60.173421002771974,
0,0,0,0,159,0,159,0,1864.049572971,1864.049572971,1864.049572971,1864.049572971,1864.049572971,1864.049572971,1864.049572971,1,-1,rojo,0,['N_B'],1865.435280101,1865.435280101,1865.435280101,1865.435280101,1867.4713865009999,1867.4713865009999,1867.4713865009999,1867.4713865009999,1867.4713865009999,1867.4713865009999,1867.4713865009999,1867.4713865009999,1869.4892537329997,1869.4892537329997,1869.4892537329997,1869.4892537329997,,,,,,,,,,,,,,,,,,,,,,,,,,,,,,,,,,,,,,,08,012,2022-09-27_14h38.28.406,test2,2022.2.4,60.173421002771974,
0,0,0,0,160,0,160,0,1869.4892537329997,1869.4892537329997,1869.4892537329997,1869.4892537329997,1869.4892537329997,1869.4892537329997,1869.4892537329997,-1,-1,rojo,1,['N_B'],1870.807400835,1870.807400835,1870.807400835,1870.807400835,1872.826903439,1872.826903439,1872.826903439,1872.826903439,1872.826903439,1872.826903439,1872.826903439,1872.826903439,1874.8459626159997,1874.8459626159997,1874.8459626159997,1874.8459626159997,,,,,,,,,,,,,,,,,,,,,,,,,,,,,,,,,,,,,,,08,012,2022-09-27_14h38.28.406,test2,2022.2.4,60.173421002771974,
0,0,0,0,161,0,161,0,1874.8459626159997,1874.8459626159997,1874.8459626159997,1874.8459626159997,1874.8459626159997,1874.8459626159997,1874.8459626159997,1,1,azul,1,['N_B'],1876.1973683379997,1876.1973683379997,1876.1973683379997,1876.1973683379997,1878.216790166,1878.216790166,1878.216790166,1878.216790166,1878.216790166,1878.216790166,1878.216790166,1878.216790166,1880.234024196,1880.234024196,1880.234024196,1880.234024196,,,,,,,,,,,,,,,,,,,,,,,,,,,,,,,,,,,,,,,08,012,2022-09-27_14h38.28.406,test2,2022.2.4,60.173421002771974,
0,0,0,0,162,0,162,0,1880.234024196,1880.234024196,1880.234024196,1880.234024196,1880.234024196,1880.234024196,1880.234024196,-1,-1,rojo,1,['N_B'],1881.769475343,1881.769475343,1881.769475343,1881.769475343,1883.8066581899998,1883.8066581899998,1883.8066581899998,1883.8066581899998,1883.8066581899998,1883.8066581899998,1883.8066581899998,1883.8066581899998,1885.825295401,1885.825295401,1885.825295401,1885.825295401,,,,,,,,,,,,,,,,,,,,,,,,,,,,,,,,,,,,,,,08,012,2022-09-27_14h38.28.406,test2,2022.2.4,60.173421002771974,
0,0,0,0,163,0,163,0,1885.825295401,1885.825295401,1885.825295401,1885.825295401,1885.825295401,1885.825295401,1885.825295401,1,-1,azul,0,['N_A'],1889.060691832,1889.060691832,1889.060691832,1889.060691832,1891.079629716,1891.079629716,1891.079629716,1891.079629716,1891.079629716,1891.079629716,1891.079629716,1891.079629716,1893.09872347,1893.09872347,1893.09872347,1893.09872347,,,,,,,,,,,,,,,,,,,,,,,,,,,,,,,,,,,,,,,08,012,2022-09-27_14h38.28.406,test2,2022.2.4,60.173421002771974,
0,0,0,0,164,0,164,0,1893.09872347,1893.09872347,1893.09872347,1893.09872347,1893.09872347,1893.09872347,1893.09872347,1,1,rojo,1,['N_A'],1895.1508119750001,1895.1508119750001,1895.1508119750001,1895.1508119750001,1897.169464525,1897.169464525,1897.169464525,1897.169464525,1897.169464525,1897.169464525,1897.169464525,1897.169464525,1899.188353558,1899.188353558,1899.188353558,1899.188353558,,,,,,,,,,,,,,,,,,,,,,,,,,,,,,,,,,,,,,,08,012,2022-09-27_14h38.28.406,test2,2022.2.4,60.173421002771974,
0,0,0,0,165,0,165,0,1899.188353558,1899.188353558,1899.188353558,1899.188353558,1899.188353558,1899.188353558,1899.188353558,1,-1,rojo,1,['N_A'],1900.5235786099997,1900.5235786099997,1900.5235786099997,1900.5235786099997,1902.5600550099998,1902.5600550099998,1902.5600550099998,1902.5600550099998,1902.5600550099998,1902.5600550099998,1902.5600550099998,1902.5600550099998,1904.577569127,1904.577569127,1904.577569127,1904.577569127,,,,,,,,,,,,,,,,,,,,,,,,,,,,,,,,,,,,,,,08,012,2022-09-27_14h38.28.406,test2,2022.2.4,60.173421002771974,
0,0,0,0,166,0,166,0,1904.577569127,1904.577569127,1904.577569127,1904.577569127,1904.577569127,1904.577569127,1904.577569127,1,-1,rojo,0,['N_B'],1906.7815182680001,1906.7815182680001,1906.7815182680001,1906.7815182680001,1908.798944436,1908.798944436,1908.798944436,1908.798944436,1908.798944436,1908.798944436,1908.798944436,1908.798944436,1910.818146953,1910.818146953,1910.818146953,1910.818146953,,,,,,,,,,,,,,,,,,,,,,,,,,,,,,,,,,,,,,,08,012,2022-09-27_14h38.28.406,test2,2022.2.4,60.173421002771974,
0,0,0,0,167,0,167,0,1910.818146953,1910.818146953,1910.818146953,1910.818146953,1910.818146953,1910.818146953,1910.818146953,1,1,azul,1,['N_B'],1912.937354734,1912.937354734,1912.937354734,1912.937354734,1914.956319066,1914.956319066,1914.956319066,1914.956319066,1914.956319066,1914.956319066,1914.956319066,1914.956319066,1916.975148462,1916.975148462,1916.975148462,1916.975148462,,,,,,,,,,,,,,,,,,,,,,,,,,,,,,,,,,,,,,,08,012,2022-09-27_14h38.28.406,test2,2022.2.4,60.173421002771974,
0,0,0,0,168,0,168,0,1916.975148462,1916.975148462,1916.975148462,1916.975148462,1916.975148462,1916.975148462,1916.975148462,-1,-1,rojo,0,['N_A'],1918.4099612300001,1918.4099612300001,1918.4099612300001,1918.4099612300001,1920.446578214,1920.446578214,1920.446578214,1920.446578214,1920.446578214,1920.446578214,1920.446578214,1920.446578214,1922.464748682,1922.464748682,1922.464748682,1922.464748682,,,,,,,,,,,,,,,,,,,,,,,,,,,,,,,,,,,,,,,08,012,2022-09-27_14h38.28.406,test2,2022.2.4,60.173421002771974,
0,0,0,0,169,0,169,0,1922.464748682,1922.464748682,1922.464748682,1922.464748682,1922.464748682,1922.464748682,1922.464748682,1,-1,rojo,0,['N_B'],1924.300555021,1924.300555021,1924.300555021,1924.300555021,1926.3362677979999,1926.3362677979999,1926.3362677979999,1926.3362677979999,1926.3362677979999,1926.3362677979999,1926.3362677979999,1926.3362677979999,1928.354073983,1928.354073983,1928.354073983,1928.354073983,,,,,,,,,,,,,,,,,,,,,,,,,,,,,,,,,,,,,,,08,012,2022-09-27_14h38.28.406,test2,2022.2.4,60.173421002771974,
0,0,0,0,170,0,170,0,1928.354073983,1928.354073983,1928.354073983,1928.354073983,1928.354073983,1928.354073983,1928.354073983,-1,-1,rojo,0,['N_A'],1929.8889833529997,1929.8889833529997,1929.8889833529997,1929.8889833529997,1931.9087232419997,1931.9087232419997,1931.9087232419997,1931.9087232419997,1931.9087232419997,1931.9087232419997,1931.9087232419997,1931.9087232419997,1933.927441415,1933.927441415,1933.927441415,1933.927441415,,,,,,,,,,,,,,,,,,,,,,,,,,,,,,,,,,,,,,,08,012,2022-09-27_14h38.28.406,test2,2022.2.4,60.173421002771974,
0,0,0,0,171,0,171,0,1933.927441415,1933.927441415,1933.927441415,1933.927441415,1933.927441415,1933.927441415,1933.927441415,-1,1,azul,1,['N_A'],1935.946862883,1935.946862883,1935.946862883,1935.946862883,1937.965213075,1937.965213075,1937.965213075,1937.965213075,1937.965213075,1937.965213075,1937.965213075,1937.965213075,1939.9834640549998,1939.9834640549998,1939.9834640549998,1939.9834640549998,,,,,,,,,,,,,,,,,,,,,,,,,,,,,,,,,,,,,,,08,012,2022-09-27_14h38.28.406,test2,2022.2.4,60.173421002771974,
0,0,0,0,172,0,172,0,1939.9834640549998,1939.9834640549998,1939.9834640549998,1939.9834640549998,1939.9834640549998,1939.9834640549998,1939.9834640549998,1,-1,rojo,0,['N_B'],1942.4035224,1942.4035224,1942.4035224,1942.4035224,1944.439477247,1944.439477247,1944.439477247,1944.439477247,1944.439477247,1944.439477247,1944.439477247,1944.439477247,1946.4576482929997,1946.4576482929997,1946.4576482929997,1946.4576482929997,,,,,,,,,,,,,,,,,,,,,,,,,,,,,,,,,,,,,,,08,012,2022-09-27_14h38.28.406,test2,2022.2.4,60.173421002771974,
0,0,0,0,173,0,173,0,1946.4576482929997,1946.4576482929997,1946.4576482929997,1946.4576482929997,1946.4576482929997,1946.4576482929997,1946.4576482929997,-1,-1,rojo,1,['N_B'],1947.992300167,1947.992300167,1947.992300167,1947.992300167,1950.0288982319998,1950.0288982319998,1950.0288982319998,1950.0288982319998,1950.0288982319998,1950.0288982319998,1950.0288982319998,1950.0288982319998,1952.046966419,1952.046966419,1952.046966419,1952.046966419,,,,,,,,,,,,,,,,,,,,,,,,,,,,,,,,,,,,,,,08,012,2022-09-27_14h38.28.406,test2,2022.2.4,60.173421002771974,
0,0,0,0,174,0,174,0,1952.046966419,1952.046966419,1952.046966419,1952.046966419,1952.046966419,1952.046966419,1952.046966419,1,-1,azul,0,['N_A'],1954.165977617,1954.165977617,1954.165977617,1954.165977617,1956.2029388279998,1956.2029388279998,1956.2029388279998,1956.2029388279998,1956.2029388279998,1956.2029388279998,1956.2029388279998,1956.2029388279998,1958.2206895169998,1958.2206895169998,1958.2206895169998,1958.2206895169998,,,,,,,,,,,,,,,,,,,,,,,,,,,,,,,,,,,,,,,08,012,2022-09-27_14h38.28.406,test2,2022.2.4,60.173421002771974,
0,0,0,0,175,0,175,0,1958.2206895169998,1958.2206895169998,1958.2206895169998,1958.2206895169998,1958.2206895169998,1958.2206895169998,1958.2206895169998,-1,-1,azul,0,['N_B'],1960.5902854359997,1960.5902854359997,1960.5902854359997,1960.5902854359997,1962.6261039349997,1962.6261039349997,1962.6261039349997,1962.6261039349997,1962.6261039349997,1962.6261039349997,1962.6261039349997,1962.6261039349997,1964.64381246,1964.64381246,1964.64381246,1964.64381246,,,,,,,,,,,,,,,,,,,,,,,,,,,,,,,,,,,,,,,08,012,2022-09-27_14h38.28.406,test2,2022.2.4,60.173421002771974,
0,0,0,0,176,0,176,0,1964.64381246,1964.64381246,1964.64381246,1964.64381246,1964.64381246,1964.64381246,1964.64381246,-1,-1,rojo,0,['N_A'],1966.7296383550001,1966.7296383550001,1966.7296383550001,1966.7296383550001,1968.766133054,1968.766133054,1968.766133054,1968.766133054,1968.766133054,1968.766133054,1968.766133054,1968.766133054,1970.784023008,1970.784023008,1970.784023008,1970.784023008,,,,,,,,,,,,,,,,,,,,,,,,,,,,,,,,,,,,,,,08,012,2022-09-27_14h38.28.406,test2,2022.2.4,60.173421002771974,
0,0,0,0,177,0,177,0,1970.784023008,1970.784023008,1970.784023008,1970.784023008,1970.784023008,1970.784023008,1970.784023008,1,-1,rojo,1,['N_A'],1972.5032428609998,1972.5032428609998,1972.5032428609998,1972.5032428609998,1974.539910949,1974.539910949,1974.539910949,1974.539910949,1974.539910949,1974.539910949,1974.539910949,1974.539910949,1976.557252874,1976.557252874,1976.557252874,1976.557252874,,,,,,,,,,,,,,,,,,,,,,,,,,,,,,,,,,,,,,,08,012,2022-09-27_14h38.28.406,test2,2022.2.4,60.173421002771974,
0,0,0,0,178,0,178,0,1976.557252874,1976.557252874,1976.557252874,1976.557252874,1976.557252874,1976.557252874,1976.557252874,-1,-1,azul,1,['N_A'],1978.60932219,1978.60932219,1978.60932219,1978.60932219,1980.645867744,1980.645867744,1980.645867744,1980.645867744,1980.645867744,1980.645867744,1980.645867744,1980.645867744,1982.664221436,1982.664221436,1982.664221436,1982.664221436,,,,,,,,,,,,,,,,,,,,,,,,,,,,,,,,,,,,,,,08,012,2022-09-27_14h38.28.406,test2,2022.2.4,60.173421002771974,
0,0,0,0,179,0,179,0,1982.664221436,1982.664221436,1982.664221436,1982.664221436,1982.664221436,1982.664221436,1982.664221436,1,-1,rojo,0,['N_B'],1984.1822002109998,1984.1822002109998,1984.1822002109998,1984.1822002109998,1986.2189331089999,1986.2189331089999,1986.2189331089999,1986.2189331089999,1986.2189331089999,1986.2189331089999,1986.2189331089999,1986.2189331089999,1988.237905728,1988.237905728,1988.237905728,1988.237905728,,,,,,,,,,,,,,,,,,,,,,,,,,,,,,,,,,,,,,,08,012,2022-09-27_14h38.28.406,test2,2022.2.4,60.173421002771974,
0,0,0,0,180,0,180,0,1988.237905728,1988.237905728,1988.237905728,1988.237905728,1988.237905728,1988.237905728,1988.237905728,1,-1,azul,1,['N_B'],1989.772573158,1989.772573158,1989.772573158,1989.772573158,1991.8090668609998,1991.8090668609998,1991.8090668609998,1991.8090668609998,1991.8090668609998,1991.8090668609998,1991.8090668609998,1991.8090668609998,1993.826472876,1993.826472876,1993.826472876,1993.826472876,,,,,,,,,,,,,,,,,,,,,,,,,,,,,,,,,,,,,,,08,012,2022-09-27_14h38.28.406,test2,2022.2.4,60.173421002771974,
0,0,0,0,181,0,181,0,1993.826472876,1993.826472876,1993.826472876,1993.826472876,1993.826472876,1993.826472876,1993.826472876,1,-1,azul,1,['N_B'],1995.4618728599999,1995.4618728599999,1995.4618728599999,1995.4618728599999,1997.4800265969998,1997.4800265969998,1997.4800265969998,1997.4800265969998,1997.4800265969998,1997.4800265969998,1997.4800265969998,1997.4800265969998,1999.4993226789998,1999.4993226789998,1999.4993226789998,1999.4993226789998,,,,,,,,,,,,,,,,,,,,,,,,,,,,,,,,,,,,,,,08,012,2022-09-27_14h38.28.406,test2,2022.2.4,60.173421002771974,
0,0,0,0,182,0,182,0,1999.4993226789998,1999.4993226789998,1999.4993226789998,1999.4993226789998,1999.4993226789998,1999.4993226789998,1999.4993226789998,-1,1,rojo,1,['N_B'],2001.01820276,2001.01820276,2001.01820276,2001.01820276,2003.0369002520001,2003.0369002520001,2003.0369002520001,2003.0369002520001,2003.0369002520001,2003.0369002520001,2003.0369002520001,2003.0369002520001,2005.055307267,2005.055307267,2005.055307267,2005.055307267,,,,,,,,,,,,,,,,,,,,,,,,,,,,,,,,,,,,,,,08,012,2022-09-27_14h38.28.406,test2,2022.2.4,60.173421002771974,
0,0,0,0,183,0,183,0,2005.055307267,2005.055307267,2005.055307267,2005.055307267,2005.055307267,2005.055307267,2005.055307267,1,-1,azul,0,['N_A'],2010.7782287669997,2010.7782287669997,2010.7782287669997,2010.7782287669997,2012.8149546119998,2012.8149546119998,2012.8149546119998,2012.8149546119998,2012.8149546119998,2012.8149546119998,2012.8149546119998,2012.8149546119998,2014.8336492589997,2014.8336492589997,2014.8336492589997,2014.8336492589997,,,,,,,,,,,,,,,,,,,,,,,,,,,,,,,,,,,,,,,08,012,2022-09-27_14h38.28.406,test2,2022.2.4,60.173421002771974,
0,0,0,0,184,0,184,0,2014.8336492589997,2014.8336492589997,2014.8336492589997,2014.8336492589997,2014.8336492589997,2014.8336492589997,2014.8336492589997,1,-1,rojo,1,['N_A'],2016.534827377,2016.534827377,2016.534827377,2016.534827377,2018.570959452,2018.570959452,2018.570959452,2018.570959452,2018.570959452,2018.570959452,2018.570959452,2018.570959452,2020.589762775,2020.589762775,2020.589762775,2020.589762775,,,,,,,,,,,,,,,,,,,,,,,,,,,,,,,,,,,,,,,08,012,2022-09-27_14h38.28.406,test2,2022.2.4,60.173421002771974,
0,0,0,0,185,0,185,0,2020.589762775,2020.589762775,2020.589762775,2020.589762775,2020.589762775,2020.589762775,2020.589762775,1,-1,rojo,0,['N_B'],2022.12423404,2022.12423404,2022.12423404,2022.12423404,2024.161386322,2024.161386322,2024.161386322,2024.161386322,2024.161386322,2024.161386322,2024.161386322,2024.161386322,2026.1794619319999,2026.1794619319999,2026.1794619319999,2026.1794619319999,,,,,,,,,,,,,,,,,,,,,,,,,,,,,,,,,,,,,,,08,012,2022-09-27_14h38.28.406,test2,2022.2.4,60.173421002771974,
