trials_2.thisRepN,trials_2.thisTrialN,trials_2.thisN,trials_2.thisIndex,trials.thisRepN,trials.thisTrialN,trials.thisN,trials.thisIndex,Instrucción2.started,N_A_4.started,N_B_4.started,Exitos_3.started,Dias_3.started,Stimuli_1.started,Stimuli_2.started,Transitions,Rewards,Mode,Stay,Neighbour,Stimuli_3.started,Modo.started,Dias2.started,Exitos2.started,Stimuli_3.stopped,Modo.stopped,Dias2.stopped,Exitos2.stopped,Reward.started,Stimuli_reward.started,Exitos3.started,Dias3.started,Reward.stopped,Stimuli_reward.stopped,Exitos3.stopped,Dias3.stopped,Cue_text.started,Stimuli_4.started,Exitos4.started,Dias4.started,Stimuli_3_3.started,Stimuli_2_3.started,Instrucción.started,N_A.started,N_B.started,N_C.started,Exitos_2.started,Dias_2.started,Stimuli_1_3.started,Stimuli_3_2.started,Stimuli_2_2.started,Pregunta.started,N_A_2.started,N_B_2.started,N_C_2.started,Exitos5.started,Dias5.started,Stimuli_1_2.started,Resp_final_1,Modo2.started,Modo1.started,Pregunta_4.started,Modo3.started,Exitos7.started,Dias6.started,Resp_final_2,Modo1_2.started,Pregunta_3.started,Modo2_2.started,Exitos8.started,Dias7.started,Resp_final_3,Mensaje_Final2.started,Exitos6.started,participant,session,date,expName,psychopyVersion,frameRate,
0,0,0,0,0,0,0,0,1405.447975712,1405.447975712,1405.447975712,1405.447975712,1405.447975712,1405.447975712,1405.447975712,0,0,0,0,['N_A'],1415.907645817,1415.907645817,1415.907645817,1415.907645817,1417.927159006,1417.927159006,1417.927159006,1417.927159006,1417.927159006,1417.927159006,1417.927159006,1417.927159006,1419.963012916,1419.963012916,1419.963012916,1419.963012916,,,,,,,,,,,,,,,,,,,,,,,,,,,,,,,,,,,,,,,10,005,2022-09-23_10h28.53.742,test2,2022.2.4,60.02247409486134,
0,0,0,0,1,0,1,0,1419.963012916,1419.963012916,1419.963012916,1419.963012916,1419.963012916,1419.963012916,1419.963012916,-1,1,azul,1,['N_A'],1425.835214511,1425.835214511,1425.835214511,1425.835214511,1427.855750662,1427.855750662,1427.855750662,1427.855750662,1427.855750662,1427.855750662,1427.855750662,1427.855750662,1429.8907488490001,1429.8907488490001,1429.8907488490001,1429.8907488490001,,,,,,,,,,,,,,,,,,,,,,,,,,,,,,,,,,,,,,,10,005,2022-09-23_10h28.53.742,test2,2022.2.4,60.02247409486134,
0,0,0,0,2,0,2,0,1429.8907488490001,1429.8907488490001,1429.8907488490001,1429.8907488490001,1429.8907488490001,1429.8907488490001,1429.8907488490001,1,1,rojo,1,['N_A'],1435.84674176,1435.84674176,1435.84674176,1435.84674176,1437.917316598,1437.917316598,1437.917316598,1437.917316598,1437.917316598,1437.917316598,1437.917316598,1437.917316598,1439.9344969,1439.9344969,1439.9344969,1439.9344969,,,,,,,,,,,,,,,,,,,,,,,,,,,,,,,,,,,,,,,10,005,2022-09-23_10h28.53.742,test2,2022.2.4,60.02247409486134,
0,0,0,0,3,0,3,0,1439.9344969,1439.9344969,1439.9344969,1439.9344969,1439.9344969,1439.9344969,1439.9344969,1,-1,rojo,0,['N_B'],1444.289138693,1444.289138693,1444.289138693,1444.289138693,1446.326001928,1446.326001928,1446.326001928,1446.326001928,1446.326001928,1446.326001928,1446.326001928,1446.326001928,1448.36125001,1448.36125001,1448.36125001,1448.36125001,,,,,,,,,,,,,,,,,,,,,,,,,,,,,,,,,,,,,,,10,005,2022-09-23_10h28.53.742,test2,2022.2.4,60.02247409486134,
0,0,0,0,4,0,4,0,1448.36125001,1448.36125001,1448.36125001,1448.36125001,1448.36125001,1448.36125001,1448.36125001,-1,-1,rojo,0,['N_A'],1454.417699499,1454.417699499,1454.417699499,1454.417699499,1456.453046304,1456.453046304,1456.453046304,1456.453046304,1456.453046304,1456.453046304,1456.453046304,1456.453046304,1458.4892013620001,1458.4892013620001,1458.4892013620001,1458.4892013620001,,,,,,,,,,,,,,,,,,,,,,,,,,,,,,,,,,,,,,,10,005,2022-09-23_10h28.53.742,test2,2022.2.4,60.02247409486134,
0,0,0,0,5,0,5,0,1458.4892013620001,1458.4892013620001,1458.4892013620001,1458.4892013620001,1458.4892013620001,1458.4892013620001,1458.4892013620001,1,-1,rojo,0,['N_B'],1463.5945040020001,1463.5945040020001,1463.5945040020001,1463.5945040020001,1465.612600639,1465.612600639,1465.612600639,1465.612600639,1465.612600639,1465.612600639,1465.612600639,1465.612600639,1467.648887071,1467.648887071,1467.648887071,1467.648887071,,,,,,,,,,,,,,,,,,,,,,,,,,,,,,,,,,,,,,,10,005,2022-09-23_10h28.53.742,test2,2022.2.4,60.02247409486134,
0,0,0,0,6,0,6,0,1467.648887071,1467.648887071,1467.648887071,1467.648887071,1467.648887071,1467.648887071,1467.648887071,1,1,azul,1,['N_B'],1470.2347257440001,1470.2347257440001,1470.2347257440001,1470.2347257440001,1472.253949887,1472.253949887,1472.253949887,1472.253949887,1472.253949887,1472.253949887,1472.253949887,1472.253949887,1474.289724231,1474.289724231,1474.289724231,1474.289724231,,,,,,,,,,,,,,,,,,,,,,,,,,,,,,,,,,,,,,,10,005,2022-09-23_10h28.53.742,test2,2022.2.4,60.02247409486134,
0,0,0,0,7,0,7,0,1474.289724231,1474.289724231,1474.289724231,1474.289724231,1474.289724231,1474.289724231,1474.289724231,1,-1,azul,1,['N_B'],1478.6772847250002,1478.6772847250002,1478.6772847250002,1478.6772847250002,1480.713721514,1480.713721514,1480.713721514,1480.713721514,1480.713721514,1480.713721514,1480.713721514,1480.713721514,1482.748847028,1482.748847028,1482.748847028,1482.748847028,,,,,,,,,,,,,,,,,,,,,,,,,,,,,,,,,,,,,,,10,005,2022-09-23_10h28.53.742,test2,2022.2.4,60.02247409486134,
0,0,0,0,8,0,8,0,1482.748847028,1482.748847028,1482.748847028,1482.748847028,1482.748847028,1482.748847028,1482.748847028,1,-1,azul,0,['N_A'],1484.9835444,1484.9835444,1484.9835444,1484.9835444,1487.002558417,1487.002558417,1487.002558417,1487.002558417,1487.002558417,1487.002558417,1487.002558417,1487.002558417,1489.022232435,1489.022232435,1489.022232435,1489.022232435,,,,,,,,,,,,,,,,,,,,,,,,,,,,,,,,,,,,,,,10,005,2022-09-23_10h28.53.742,test2,2022.2.4,60.02247409486134,
0,0,0,0,9,0,9,0,1489.022232435,1489.022232435,1489.022232435,1489.022232435,1489.022232435,1489.022232435,1489.022232435,1,1,rojo,1,['N_A'],1491.191309881,1491.191309881,1491.191309881,1491.191309881,1493.20949744,1493.20949744,1493.20949744,1493.20949744,1493.20949744,1493.20949744,1493.20949744,1493.20949744,1495.228493163,1495.228493163,1495.228493163,1495.228493163,,,,,,,,,,,,,,,,,,,,,,,,,,,,,,,,,,,,,,,10,005,2022-09-23_10h28.53.742,test2,2022.2.4,60.02247409486134,
0,0,0,0,10,0,10,0,1495.228493163,1495.228493163,1495.228493163,1495.228493163,1495.228493163,1495.228493163,1495.228493163,1,-1,rojo,1,['N_A'],1497.665233214,1497.665233214,1497.665233214,1497.665233214,1499.683221875,1499.683221875,1499.683221875,1499.683221875,1499.683221875,1499.683221875,1499.683221875,1499.683221875,1501.7023685550002,1501.7023685550002,1501.7023685550002,1501.7023685550002,,,,,,,,,,,,,,,,,,,,,,,,,,,,,,,,,,,,,,,10,005,2022-09-23_10h28.53.742,test2,2022.2.4,60.02247409486134,
0,0,0,0,11,0,11,0,1501.7023685550002,1501.7023685550002,1501.7023685550002,1501.7023685550002,1501.7023685550002,1501.7023685550002,1501.7023685550002,1,1,rojo,1,['N_A'],1503.838487777,1503.838487777,1503.838487777,1503.838487777,1505.8579746310002,1505.8579746310002,1505.8579746310002,1505.8579746310002,1505.8579746310002,1505.8579746310002,1505.8579746310002,1505.8579746310002,1507.8765039660002,1507.8765039660002,1507.8765039660002,1507.8765039660002,,,,,,,,,,,,,,,,,,,,,,,,,,,,,,,,,,,,,,,10,005,2022-09-23_10h28.53.742,test2,2022.2.4,60.02247409486134,
0,0,0,0,12,0,12,0,1507.8765039660002,1507.8765039660002,1507.8765039660002,1507.8765039660002,1507.8765039660002,1507.8765039660002,1507.8765039660002,1,1,rojo,1,['N_A'],1510.529670643,1510.529670643,1510.529670643,1510.529670643,1512.5478885080001,1512.5478885080001,1512.5478885080001,1512.5478885080001,1512.5478885080001,1512.5478885080001,1512.5478885080001,1512.5478885080001,1514.567069025,1514.567069025,1514.567069025,1514.567069025,,,,,,,,,,,,,,,,,,,,,,,,,,,,,,,,,,,,,,,10,005,2022-09-23_10h28.53.742,test2,2022.2.4,60.02247409486134,
0,0,0,0,13,0,13,0,1514.567069025,1514.567069025,1514.567069025,1514.567069025,1514.567069025,1514.567069025,1514.567069025,-1,-1,azul,1,['N_A'],1517.753777633,1517.753777633,1517.753777633,1517.753777633,1519.7903668590002,1519.7903668590002,1519.7903668590002,1519.7903668590002,1519.7903668590002,1519.7903668590002,1519.7903668590002,1519.7903668590002,1521.80756622,1521.80756622,1521.80756622,1521.80756622,,,,,,,,,,,,,,,,,,,,,,,,,,,,,,,,,,,,,,,10,005,2022-09-23_10h28.53.742,test2,2022.2.4,60.02247409486134,
0,0,0,0,14,0,14,0,1521.80756622,1521.80756622,1521.80756622,1521.80756622,1521.80756622,1521.80756622,1521.80756622,1,-1,rojo,1,['N_A'],1523.893534291,1523.893534291,1523.893534291,1523.893534291,1525.912556845,1525.912556845,1525.912556845,1525.912556845,1525.912556845,1525.912556845,1525.912556845,1525.912556845,1527.9321773289998,1527.9321773289998,1527.9321773289998,1527.9321773289998,,,,,,,,,,,,,,,,,,,,,,,,,,,,,,,,,,,,,,,10,005,2022-09-23_10h28.53.742,test2,2022.2.4,60.02247409486134,
0,0,0,0,15,0,15,0,1527.9321773289998,1527.9321773289998,1527.9321773289998,1527.9321773289998,1527.9321773289998,1527.9321773289998,1527.9321773289998,1,1,rojo,1,['N_A'],1530.23402867,1530.23402867,1530.23402867,1530.23402867,1532.2538060770003,1532.2538060770003,1532.2538060770003,1532.2538060770003,1532.2538060770003,1532.2538060770003,1532.2538060770003,1532.2538060770003,1534.271825378,1534.271825378,1534.271825378,1534.271825378,,,,,,,,,,,,,,,,,,,,,,,,,,,,,,,,,,,,,,,10,005,2022-09-23_10h28.53.742,test2,2022.2.4,60.02247409486134,
0,0,0,0,16,0,16,0,1534.271825378,1534.271825378,1534.271825378,1534.271825378,1534.271825378,1534.271825378,1534.271825378,1,1,rojo,1,['N_A'],1536.441450321,1536.441450321,1536.441450321,1536.441450321,1538.4600620300002,1538.4600620300002,1538.4600620300002,1538.4600620300002,1538.4600620300002,1538.4600620300002,1538.4600620300002,1538.4600620300002,1540.4786949929999,1540.4786949929999,1540.4786949929999,1540.4786949929999,,,,,,,,,,,,,,,,,,,,,,,,,,,,,,,,,,,,,,,10,005,2022-09-23_10h28.53.742,test2,2022.2.4,60.02247409486134,
0,0,0,0,17,0,17,0,1540.4786949929999,1540.4786949929999,1540.4786949929999,1540.4786949929999,1540.4786949929999,1540.4786949929999,1540.4786949929999,1,-1,rojo,1,['N_A'],1543.898578708,1543.898578708,1543.898578708,1543.898578708,1545.9184671860003,1545.9184671860003,1545.9184671860003,1545.9184671860003,1545.9184671860003,1545.9184671860003,1545.9184671860003,1545.9184671860003,1547.937461697,1547.937461697,1547.937461697,1547.937461697,,,,,,,,,,,,,,,,,,,,,,,,,,,,,,,,,,,,,,,10,005,2022-09-23_10h28.53.742,test2,2022.2.4,60.02247409486134,
0,0,0,0,18,0,18,0,1547.937461697,1547.937461697,1547.937461697,1547.937461697,1547.937461697,1547.937461697,1547.937461697,-1,1,azul,1,['N_A'],1549.9725294549999,1549.9725294549999,1549.9725294549999,1549.9725294549999,1551.991877212,1551.991877212,1551.991877212,1551.991877212,1551.991877212,1551.991877212,1551.991877212,1551.991877212,1554.0105707880002,1554.0105707880002,1554.0105707880002,1554.0105707880002,,,,,,,,,,,,,,,,,,,,,,,,,,,,,,,,,,,,,,,10,005,2022-09-23_10h28.53.742,test2,2022.2.4,60.02247409486134,
0,0,0,0,19,0,19,0,1554.0105707880002,1554.0105707880002,1554.0105707880002,1554.0105707880002,1554.0105707880002,1554.0105707880002,1554.0105707880002,1,1,rojo,1,['N_A'],1557.2972530840002,1557.2972530840002,1557.2972530840002,1557.2972530840002,1559.3172853330002,1559.3172853330002,1559.3172853330002,1559.3172853330002,1559.3172853330002,1559.3172853330002,1559.3172853330002,1559.3172853330002,1561.3353607520003,1561.3353607520003,1561.3353607520003,1561.3353607520003,,,,,,,,,,,,,,,,,,,,,,,,,,,,,,,,,,,,,,,10,005,2022-09-23_10h28.53.742,test2,2022.2.4,60.02247409486134,
0,0,0,0,20,0,20,0,1561.3353607520003,1561.3353607520003,1561.3353607520003,1561.3353607520003,1561.3353607520003,1561.3353607520003,1561.3353607520003,1,1,rojo,1,['N_A'],1563.988248182,1563.988248182,1563.988248182,1563.988248182,1566.0075150369998,1566.0075150369998,1566.0075150369998,1566.0075150369998,1566.0075150369998,1566.0075150369998,1566.0075150369998,1566.0075150369998,1568.025580217,1568.025580217,1568.025580217,1568.025580217,,,,,,,,,,,,,,,,,,,,,,,,,,,,,,,,,,,,,,,10,005,2022-09-23_10h28.53.742,test2,2022.2.4,60.02247409486134,
0,0,0,0,21,0,21,0,1568.025580217,1568.025580217,1568.025580217,1568.025580217,1568.025580217,1568.025580217,1568.025580217,-1,1,azul,1,['N_A'],1569.9616523620002,1569.9616523620002,1569.9616523620002,1569.9616523620002,1571.9814063950002,1571.9814063950002,1571.9814063950002,1571.9814063950002,1571.9814063950002,1571.9814063950002,1571.9814063950002,1571.9814063950002,1573.9993791729999,1573.9993791729999,1573.9993791729999,1573.9993791729999,,,,,,,,,,,,,,,,,,,,,,,,,,,,,,,,,,,,,,,10,005,2022-09-23_10h28.53.742,test2,2022.2.4,60.02247409486134,
0,0,0,0,22,0,22,0,1573.9993791729999,1573.9993791729999,1573.9993791729999,1573.9993791729999,1573.9993791729999,1573.9993791729999,1573.9993791729999,1,1,rojo,1,['N_A'],1576.335448805,1576.335448805,1576.335448805,1576.335448805,1578.3543670620002,1578.3543670620002,1578.3543670620002,1578.3543670620002,1578.3543670620002,1578.3543670620002,1578.3543670620002,1578.3543670620002,1580.37390069,1580.37390069,1580.37390069,1580.37390069,,,,,,,,,,,,,,,,,,,,,,,,,,,,,,,,,,,,,,,10,005,2022-09-23_10h28.53.742,test2,2022.2.4,60.02247409486134,
0,0,0,0,23,0,23,0,1580.37390069,1580.37390069,1580.37390069,1580.37390069,1580.37390069,1580.37390069,1580.37390069,1,1,rojo,1,['N_A'],1582.4246337250001,1582.4246337250001,1582.4246337250001,1582.4246337250001,1584.444484268,1584.444484268,1584.444484268,1584.444484268,1584.444484268,1584.444484268,1584.444484268,1584.444484268,1586.4623414420003,1586.4623414420003,1586.4623414420003,1586.4623414420003,,,,,,,,,,,,,,,,,,,,,,,,,,,,,,,,,,,,,,,10,005,2022-09-23_10h28.53.742,test2,2022.2.4,60.02247409486134,
0,0,0,0,24,0,24,0,1586.4623414420003,1586.4623414420003,1586.4623414420003,1586.4623414420003,1586.4623414420003,1586.4623414420003,1586.4623414420003,-1,1,azul,1,['N_A'],1589.132244341,1589.132244341,1589.132244341,1589.132244341,1591.1521809639999,1591.1521809639999,1591.1521809639999,1591.1521809639999,1591.1521809639999,1591.1521809639999,1591.1521809639999,1591.1521809639999,1593.1701926599999,1593.1701926599999,1593.1701926599999,1593.1701926599999,,,,,,,,,,,,,,,,,,,,,,,,,,,,,,,,,,,,,,,10,005,2022-09-23_10h28.53.742,test2,2022.2.4,60.02247409486134,
0,0,0,0,25,0,25,0,1593.1701926599999,1593.1701926599999,1593.1701926599999,1593.1701926599999,1593.1701926599999,1593.1701926599999,1593.1701926599999,1,1,rojo,1,['N_A'],1595.339366568,1595.339366568,1595.339366568,1595.339366568,1597.358523548,1597.358523548,1597.358523548,1597.358523548,1597.358523548,1597.358523548,1597.358523548,1597.358523548,1599.376542867,1599.376542867,1599.376542867,1599.376542867,,,,,,,,,,,,,,,,,,,,,,,,,,,,,,,,,,,,,,,10,005,2022-09-23_10h28.53.742,test2,2022.2.4,60.02247409486134,
0,0,0,0,26,0,26,0,1599.376542867,1599.376542867,1599.376542867,1599.376542867,1599.376542867,1599.376542867,1599.376542867,1,1,rojo,1,['N_A'],1601.3791514220002,1601.3791514220002,1601.3791514220002,1601.3791514220002,1603.398389606,1603.398389606,1603.398389606,1603.398389606,1603.398389606,1603.398389606,1603.398389606,1603.398389606,1605.416481999,1605.416481999,1605.416481999,1605.416481999,,,,,,,,,,,,,,,,,,,,,,,,,,,,,,,,,,,,,,,10,005,2022-09-23_10h28.53.742,test2,2022.2.4,60.02247409486134,
0,0,0,0,27,0,27,0,1605.416481999,1605.416481999,1605.416481999,1605.416481999,1605.416481999,1605.416481999,1605.416481999,1,-1,rojo,1,['N_A'],1607.4527275189998,1607.4527275189998,1607.4527275189998,1607.4527275189998,1609.488575891,1609.488575891,1609.488575891,1609.488575891,1609.488575891,1609.488575891,1609.488575891,1609.488575891,1611.506984745,1611.506984745,1611.506984745,1611.506984745,,,,,,,,,,,,,,,,,,,,,,,,,,,,,,,,,,,,,,,10,005,2022-09-23_10h28.53.742,test2,2022.2.4,60.02247409486134,
0,0,0,0,28,0,28,0,1611.506984745,1611.506984745,1611.506984745,1611.506984745,1611.506984745,1611.506984745,1611.506984745,1,-1,rojo,1,['N_A'],1615.344264327,1615.344264327,1615.344264327,1615.344264327,1617.3810675640002,1617.3810675640002,1617.3810675640002,1617.3810675640002,1617.3810675640002,1617.3810675640002,1617.3810675640002,1617.3810675640002,1619.3990186700003,1619.3990186700003,1619.3990186700003,1619.3990186700003,,,,,,,,,,,,,,,,,,,,,,,,,,,,,,,,,,,,,,,10,005,2022-09-23_10h28.53.742,test2,2022.2.4,60.02247409486134,
0,0,0,0,29,0,29,0,1619.3990186700003,1619.3990186700003,1619.3990186700003,1619.3990186700003,1619.3990186700003,1619.3990186700003,1619.3990186700003,1,-1,rojo,0,['N_B'],1622.7703111380001,1622.7703111380001,1622.7703111380001,1622.7703111380001,1624.805708674,1624.805708674,1624.805708674,1624.805708674,1624.805708674,1624.805708674,1624.805708674,1624.805708674,1626.8235816300003,1626.8235816300003,1626.8235816300003,1626.8235816300003,,,,,,,,,,,,,,,,,,,,,,,,,,,,,,,,,,,,,,,10,005,2022-09-23_10h28.53.742,test2,2022.2.4,60.02247409486134,
0,0,0,0,30,0,30,0,1626.8235816300003,1626.8235816300003,1626.8235816300003,1626.8235816300003,1626.8235816300003,1626.8235816300003,1626.8235816300003,1,-1,azul,0,['N_A'],1628.4255558710001,1628.4255558710001,1628.4255558710001,1628.4255558710001,1630.4620253379999,1630.4620253379999,1630.4620253379999,1630.4620253379999,1630.4620253379999,1630.4620253379999,1630.4620253379999,1630.4620253379999,1632.4798736080002,1632.4798736080002,1632.4798736080002,1632.4798736080002,,,,,,,,,,,,,,,,,,,,,,,,,,,,,,,,,,,,,,,10,005,2022-09-23_10h28.53.742,test2,2022.2.4,60.02247409486134,
0,0,0,0,31,0,31,0,1632.4798736080002,1632.4798736080002,1632.4798736080002,1632.4798736080002,1632.4798736080002,1632.4798736080002,1632.4798736080002,-1,-1,azul,1,['N_A'],1640.989983643,1640.989983643,1640.989983643,1640.989983643,1643.026217875,1643.026217875,1643.026217875,1643.026217875,1643.026217875,1643.026217875,1643.026217875,1643.026217875,1645.043977337,1645.043977337,1645.043977337,1645.043977337,,,,,,,,,,,,,,,,,,,,,,,,,,,,,,,,,,,,,,,10,005,2022-09-23_10h28.53.742,test2,2022.2.4,60.02247409486134,
0,0,0,0,32,0,32,0,1645.043977337,1645.043977337,1645.043977337,1645.043977337,1645.043977337,1645.043977337,1645.043977337,1,-1,rojo,1,['N_A'],1647.947426153,1647.947426153,1647.947426153,1647.947426153,1649.98393931,1649.98393931,1649.98393931,1649.98393931,1649.98393931,1649.98393931,1649.98393931,1649.98393931,1652.0022136460002,1652.0022136460002,1652.0022136460002,1652.0022136460002,,,,,,,,,,,,,,,,,,,,,,,,,,,,,,,,,,,,,,,10,005,2022-09-23_10h28.53.742,test2,2022.2.4,60.02247409486134,
0,0,0,0,33,0,33,0,1652.0022136460002,1652.0022136460002,1652.0022136460002,1652.0022136460002,1652.0022136460002,1652.0022136460002,1652.0022136460002,1,-1,rojo,0,['N_B'],1654.5051217210003,1654.5051217210003,1654.5051217210003,1654.5051217210003,1656.522884171,1656.522884171,1656.522884171,1656.522884171,1656.522884171,1656.522884171,1656.522884171,1656.522884171,1658.542085954,1658.542085954,1658.542085954,1658.542085954,,,,,,,,,,,,,,,,,,,,,,,,,,,,,,,,,,,,,,,10,005,2022-09-23_10h28.53.742,test2,2022.2.4,60.02247409486134,
0,0,0,0,34,0,34,0,1658.542085954,1658.542085954,1658.542085954,1658.542085954,1658.542085954,1658.542085954,1658.542085954,1,1,azul,1,['N_B'],1660.577907375,1660.577907375,1660.577907375,1660.577907375,1662.596671789,1662.596671789,1662.596671789,1662.596671789,1662.596671789,1662.596671789,1662.596671789,1662.596671789,1664.6159065850002,1664.6159065850002,1664.6159065850002,1664.6159065850002,,,,,,,,,,,,,,,,,,,,,,,,,,,,,,,,,,,,,,,10,005,2022-09-23_10h28.53.742,test2,2022.2.4,60.02247409486134,
0,0,0,0,35,0,35,0,1664.6159065850002,1664.6159065850002,1664.6159065850002,1664.6159065850002,1664.6159065850002,1664.6159065850002,1664.6159065850002,1,-1,azul,1,['N_B'],1666.6015668190003,1666.6015668190003,1666.6015668190003,1666.6015668190003,1668.6378945290003,1668.6378945290003,1668.6378945290003,1668.6378945290003,1668.6378945290003,1668.6378945290003,1668.6378945290003,1668.6378945290003,1670.655534692,1670.655534692,1670.655534692,1670.655534692,,,,,,,,,,,,,,,,,,,,,,,,,,,,,,,,,,,,,,,10,005,2022-09-23_10h28.53.742,test2,2022.2.4,60.02247409486134,
0,0,0,0,36,0,36,0,1670.655534692,1670.655534692,1670.655534692,1670.655534692,1670.655534692,1670.655534692,1670.655534692,-1,-1,rojo,0,['N_A'],1672.4250277780002,1672.4250277780002,1672.4250277780002,1672.4250277780002,1674.46066192,1674.46066192,1674.46066192,1674.46066192,1674.46066192,1674.46066192,1674.46066192,1674.46066192,1676.478588039,1676.478588039,1676.478588039,1676.478588039,,,,,,,,,,,,,,,,,,,,,,,,,,,,,,,,,,,,,,,10,005,2022-09-23_10h28.53.742,test2,2022.2.4,60.02247409486134,
0,0,0,0,37,0,37,0,1676.478588039,1676.478588039,1676.478588039,1676.478588039,1676.478588039,1676.478588039,1676.478588039,-1,-1,azul,1,['N_A'],1678.348525809,1678.348525809,1678.348525809,1678.348525809,1680.367515546,1680.367515546,1680.367515546,1680.367515546,1680.367515546,1680.367515546,1680.367515546,1680.367515546,1682.3863549789999,1682.3863549789999,1682.3863549789999,1682.3863549789999,,,,,,,,,,,,,,,,,,,,,,,,,,,,,,,,,,,,,,,10,005,2022-09-23_10h28.53.742,test2,2022.2.4,60.02247409486134,
0,0,0,0,38,0,38,0,1682.3863549789999,1682.3863549789999,1682.3863549789999,1682.3863549789999,1682.3863549789999,1682.3863549789999,1682.3863549789999,1,1,rojo,1,['N_A'],1684.354003251,1684.354003251,1684.354003251,1684.354003251,1686.373752993,1686.373752993,1686.373752993,1686.373752993,1686.373752993,1686.373752993,1686.373752993,1686.373752993,1688.3913543889998,1688.3913543889998,1688.3913543889998,1688.3913543889998,,,,,,,,,,,,,,,,,,,,,,,,,,,,,,,,,,,,,,,10,005,2022-09-23_10h28.53.742,test2,2022.2.4,60.02247409486134,
0,0,0,0,39,0,39,0,1688.3913543889998,1688.3913543889998,1688.3913543889998,1688.3913543889998,1688.3913543889998,1688.3913543889998,1688.3913543889998,-1,1,azul,1,['N_A'],1690.29431212,1690.29431212,1690.29431212,1690.29431212,1692.313424679,1692.313424679,1692.313424679,1692.313424679,1692.313424679,1692.313424679,1692.313424679,1692.313424679,1694.3315386479999,1694.3315386479999,1694.3315386479999,1694.3315386479999,,,,,,,,,,,,,,,,,,,,,,,,,,,,,,,,,,,,,,,10,005,2022-09-23_10h28.53.742,test2,2022.2.4,60.02247409486134,
0,0,0,0,40,0,40,0,1694.3315386479999,1694.3315386479999,1694.3315386479999,1694.3315386479999,1694.3315386479999,1694.3315386479999,1694.3315386479999,1,1,rojo,1,['N_A'],1696.350833259,1696.350833259,1696.350833259,1696.350833259,1698.3702825710002,1698.3702825710002,1698.3702825710002,1698.3702825710002,1698.3702825710002,1698.3702825710002,1698.3702825710002,1698.3702825710002,1700.388184509,1700.388184509,1700.388184509,1700.388184509,,,,,,,,,,,,,,,,,,,,,,,,,,,,,,,,,,,,,,,10,005,2022-09-23_10h28.53.742,test2,2022.2.4,60.02247409486134,
0,0,0,0,41,0,41,0,1700.388184509,1700.388184509,1700.388184509,1700.388184509,1700.388184509,1700.388184509,1700.388184509,-1,1,azul,1,['N_A'],1702.207350305,1702.207350305,1702.207350305,1702.207350305,1704.2262114330001,1704.2262114330001,1704.2262114330001,1704.2262114330001,1704.2262114330001,1704.2262114330001,1704.2262114330001,1704.2262114330001,1706.2444237099999,1706.2444237099999,1706.2444237099999,1706.2444237099999,,,,,,,,,,,,,,,,,,,,,,,,,,,,,,,,,,,,,,,10,005,2022-09-23_10h28.53.742,test2,2022.2.4,60.02247409486134,
0,0,0,0,42,0,42,0,1706.2444237099999,1706.2444237099999,1706.2444237099999,1706.2444237099999,1706.2444237099999,1706.2444237099999,1706.2444237099999,1,1,rojo,1,['N_A'],1707.9965196020003,1707.9965196020003,1707.9965196020003,1707.9965196020003,1710.0158884080001,1710.0158884080001,1710.0158884080001,1710.0158884080001,1710.0158884080001,1710.0158884080001,1710.0158884080001,1710.0158884080001,1712.034085491,1712.034085491,1712.034085491,1712.034085491,,,,,,,,,,,,,,,,,,,,,,,,,,,,,,,,,,,,,,,10,005,2022-09-23_10h28.53.742,test2,2022.2.4,60.02247409486134,
0,0,0,0,43,0,43,0,1712.034085491,1712.034085491,1712.034085491,1712.034085491,1712.034085491,1712.034085491,1712.034085491,-1,1,azul,1,['N_A'],1714.854353445,1714.854353445,1714.854353445,1714.854353445,1716.873900093,1716.873900093,1716.873900093,1716.873900093,1716.873900093,1716.873900093,1716.873900093,1716.873900093,1718.892952705,1718.892952705,1718.892952705,1718.892952705,,,,,,,,,,,,,,,,,,,,,,,,,,,,,,,,,,,,,,,10,005,2022-09-23_10h28.53.742,test2,2022.2.4,60.02247409486134,
0,0,0,0,44,0,44,0,1718.892952705,1718.892952705,1718.892952705,1718.892952705,1718.892952705,1718.892952705,1718.892952705,-1,1,azul,1,['N_A'],1721.0118715859999,1721.0118715859999,1721.0118715859999,1721.0118715859999,1723.030120197,1723.030120197,1723.030120197,1723.030120197,1723.030120197,1723.030120197,1723.030120197,1723.030120197,1725.048554817,1725.048554817,1725.048554817,1725.048554817,,,,,,,,,,,,,,,,,,,,,,,,,,,,,,,,,,,,,,,10,005,2022-09-23_10h28.53.742,test2,2022.2.4,60.02247409486134,
0,0,0,0,45,0,45,0,1725.048554817,1725.048554817,1725.048554817,1725.048554817,1725.048554817,1725.048554817,1725.048554817,1,-1,rojo,1,['N_A'],1727.318077516,1727.318077516,1727.318077516,1727.318077516,1729.3540993320003,1729.3540993320003,1729.3540993320003,1729.3540993320003,1729.3540993320003,1729.3540993320003,1729.3540993320003,1729.3540993320003,1731.3734559580002,1731.3734559580002,1731.3734559580002,1731.3734559580002,,,,,,,,,,,,,,,,,,,,,,,,,,,,,,,,,,,,,,,10,005,2022-09-23_10h28.53.742,test2,2022.2.4,60.02247409486134,
0,0,0,0,46,0,46,0,1731.3734559580002,1731.3734559580002,1731.3734559580002,1731.3734559580002,1731.3734559580002,1731.3734559580002,1731.3734559580002,-1,-1,azul,1,['N_A'],1733.324527698,1733.324527698,1733.324527698,1733.324527698,1735.343204155,1735.343204155,1735.343204155,1735.343204155,1735.343204155,1735.343204155,1735.343204155,1735.343204155,1737.3638524849998,1737.3638524849998,1737.3638524849998,1737.3638524849998,,,,,,,,,,,,,,,,,,,,,,,,,,,,,,,,,,,,,,,10,005,2022-09-23_10h28.53.742,test2,2022.2.4,60.02247409486134,
0,0,0,0,47,0,47,0,1737.3638524849998,1737.3638524849998,1737.3638524849998,1737.3638524849998,1737.3638524849998,1737.3638524849998,1737.3638524849998,-1,1,azul,1,['N_A'],1739.232639193,1739.232639193,1739.232639193,1739.232639193,1741.250841897,1741.250841897,1741.250841897,1741.250841897,1741.250841897,1741.250841897,1741.250841897,1741.250841897,1743.2703422130003,1743.2703422130003,1743.2703422130003,1743.2703422130003,,,,,,,,,,,,,,,,,,,,,,,,,,,,,,,,,,,,,,,10,005,2022-09-23_10h28.53.742,test2,2022.2.4,60.02247409486134,
0,0,0,0,48,0,48,0,1743.2703422130003,1743.2703422130003,1743.2703422130003,1743.2703422130003,1743.2703422130003,1743.2703422130003,1743.2703422130003,1,1,rojo,1,['N_A'],1745.4051217760002,1745.4051217760002,1745.4051217760002,1745.4051217760002,1747.4237421819998,1747.4237421819998,1747.4237421819998,1747.4237421819998,1747.4237421819998,1747.4237421819998,1747.4237421819998,1747.4237421819998,1749.442078819,1749.442078819,1749.442078819,1749.442078819,,,,,,,,,,,,,,,,,,,,,,,,,,,,,,,,,,,,,,,10,005,2022-09-23_10h28.53.742,test2,2022.2.4,60.02247409486134,
0,0,0,0,49,0,49,0,1749.442078819,1749.442078819,1749.442078819,1749.442078819,1749.442078819,1749.442078819,1749.442078819,1,-1,rojo,1,['N_A'],1751.3610324249998,1751.3610324249998,1751.3610324249998,1751.3610324249998,1753.380480543,1753.380480543,1753.380480543,1753.380480543,1753.380480543,1753.380480543,1753.380480543,1753.380480543,1755.399377322,1755.399377322,1755.399377322,1755.399377322,,,,,,,,,,,,,,,,,,,,,,,,,,,,,,,,,,,,,,,10,005,2022-09-23_10h28.53.742,test2,2022.2.4,60.02247409486134,
0,0,0,0,50,0,50,0,1755.399377322,1755.399377322,1755.399377322,1755.399377322,1755.399377322,1755.399377322,1755.399377322,1,1,rojo,1,['N_A'],1757.2508211069999,1757.2508211069999,1757.2508211069999,1757.2508211069999,1759.2701935750001,1759.2701935750001,1759.2701935750001,1759.2701935750001,1759.2701935750001,1759.2701935750001,1759.2701935750001,1759.2701935750001,1761.290187691,1761.290187691,1761.290187691,1761.290187691,,,,,,,,,,,,,,,,,,,,,,,,,,,,,,,,,,,,,,,10,005,2022-09-23_10h28.53.742,test2,2022.2.4,60.02247409486134,
0,0,0,0,51,0,51,0,1761.290187691,1761.290187691,1761.290187691,1761.290187691,1761.290187691,1761.290187691,1761.290187691,-1,-1,azul,1,['N_A'],1764.559150427,1764.559150427,1764.559150427,1764.559150427,1766.578938791,1766.578938791,1766.578938791,1766.578938791,1766.578938791,1766.578938791,1766.578938791,1766.578938791,1768.5966209910002,1768.5966209910002,1768.5966209910002,1768.5966209910002,,,,,,,,,,,,,,,,,,,,,,,,,,,,,,,,,,,,,,,10,005,2022-09-23_10h28.53.742,test2,2022.2.4,60.02247409486134,
0,0,0,0,52,0,52,0,1768.5966209910002,1768.5966209910002,1768.5966209910002,1768.5966209910002,1768.5966209910002,1768.5966209910002,1768.5966209910002,-1,1,azul,1,['N_A'],1770.382901464,1770.382901464,1770.382901464,1770.382901464,1772.401382387,1772.401382387,1772.401382387,1772.401382387,1772.401382387,1772.401382387,1772.401382387,1772.401382387,1774.4214806630002,1774.4214806630002,1774.4214806630002,1774.4214806630002,,,,,,,,,,,,,,,,,,,,,,,,,,,,,,,,,,,,,,,10,005,2022-09-23_10h28.53.742,test2,2022.2.4,60.02247409486134,
0,0,0,0,53,0,53,0,1774.4214806630002,1774.4214806630002,1774.4214806630002,1774.4214806630002,1774.4214806630002,1774.4214806630002,1774.4214806630002,1,-1,rojo,1,['N_A'],1776.722987787,1776.722987787,1776.722987787,1776.722987787,1778.7589394249999,1778.7589394249999,1778.7589394249999,1778.7589394249999,1778.7589394249999,1778.7589394249999,1778.7589394249999,1778.7589394249999,1780.7766748160002,1780.7766748160002,1780.7766748160002,1780.7766748160002,,,,,,,,,,,,,,,,,,,,,,,,,,,,,,,,,,,,,,,10,005,2022-09-23_10h28.53.742,test2,2022.2.4,60.02247409486134,
0,0,0,0,54,0,54,0,1780.7766748160002,1780.7766748160002,1780.7766748160002,1780.7766748160002,1780.7766748160002,1780.7766748160002,1780.7766748160002,1,-1,rojo,1,['N_A'],1782.7461973,1782.7461973,1782.7461973,1782.7461973,1784.782709224,1784.782709224,1784.782709224,1784.782709224,1784.782709224,1784.782709224,1784.782709224,1784.782709224,1786.8003950860002,1786.8003950860002,1786.8003950860002,1786.8003950860002,,,,,,,,,,,,,,,,,,,,,,,,,,,,,,,,,,,,,,,10,005,2022-09-23_10h28.53.742,test2,2022.2.4,60.02247409486134,
0,0,0,0,55,0,55,0,1786.8003950860002,1786.8003950860002,1786.8003950860002,1786.8003950860002,1786.8003950860002,1786.8003950860002,1786.8003950860002,1,-1,rojo,1,['N_A'],1788.919336808,1788.919336808,1788.919336808,1788.919336808,1790.955422869,1790.955422869,1790.955422869,1790.955422869,1790.955422869,1790.955422869,1790.955422869,1790.955422869,1792.9738969559999,1792.9738969559999,1792.9738969559999,1792.9738969559999,,,,,,,,,,,,,,,,,,,,,,,,,,,,,,,,,,,,,,,10,005,2022-09-23_10h28.53.742,test2,2022.2.4,60.02247409486134,
0,0,0,0,56,0,56,0,1792.9738969559999,1792.9738969559999,1792.9738969559999,1792.9738969559999,1792.9738969559999,1792.9738969559999,1792.9738969559999,1,-1,rojo,0,['N_B'],1794.943425472,1794.943425472,1794.943425472,1794.943425472,1796.962004639,1796.962004639,1796.962004639,1796.962004639,1796.962004639,1796.962004639,1796.962004639,1796.962004639,1798.980285313,1798.980285313,1798.980285313,1798.980285313,,,,,,,,,,,,,,,,,,,,,,,,,,,,,,,,,,,,,,,10,005,2022-09-23_10h28.53.742,test2,2022.2.4,60.02247409486134,
0,0,0,0,57,0,57,0,1798.980285313,1798.980285313,1798.980285313,1798.980285313,1798.980285313,1798.980285313,1798.980285313,1,1,azul,1,['N_B'],1800.515669288,1800.515669288,1800.515669288,1800.515669288,1802.5349451030002,1802.5349451030002,1802.5349451030002,1802.5349451030002,1802.5349451030002,1802.5349451030002,1802.5349451030002,1802.5349451030002,1804.553289393,1804.553289393,1804.553289393,1804.553289393,,,,,,,,,,,,,,,,,,,,,,,,,,,,,,,,,,,,,,,10,005,2022-09-23_10h28.53.742,test2,2022.2.4,60.02247409486134,
0,0,0,0,58,0,58,0,1804.553289393,1804.553289393,1804.553289393,1804.553289393,1804.553289393,1804.553289393,1804.553289393,1,1,azul,1,['N_B'],1806.321843367,1806.321843367,1806.321843367,1806.321843367,1808.3417511910002,1808.3417511910002,1808.3417511910002,1808.3417511910002,1808.3417511910002,1808.3417511910002,1808.3417511910002,1808.3417511910002,1810.360371889,1810.360371889,1810.360371889,1810.360371889,,,,,,,,,,,,,,,,,,,,,,,,,,,,,,,,,,,,,,,10,005,2022-09-23_10h28.53.742,test2,2022.2.4,60.02247409486134,
0,0,0,0,59,0,59,0,1810.360371889,1810.360371889,1810.360371889,1810.360371889,1810.360371889,1810.360371889,1810.360371889,-1,-1,rojo,1,['N_B'],1814.013971708,1814.013971708,1814.013971708,1814.013971708,1816.0499442750001,1816.0499442750001,1816.0499442750001,1816.0499442750001,1816.0499442750001,1816.0499442750001,1816.0499442750001,1816.0499442750001,1818.068456814,1818.068456814,1818.068456814,1818.068456814,,,,,,,,,,,,,,,,,,,,,,,,,,,,,,,,,,,,,,,10,005,2022-09-23_10h28.53.742,test2,2022.2.4,60.02247409486134,
0,0,0,0,60,0,60,0,1818.068456814,1818.068456814,1818.068456814,1818.068456814,1818.068456814,1818.068456814,1818.068456814,-1,-1,rojo,0,['N_A'],1819.7530786500001,1819.7530786500001,1819.7530786500001,1819.7530786500001,1821.772578344,1821.772578344,1821.772578344,1821.772578344,1821.772578344,1821.772578344,1821.772578344,1821.772578344,1823.7907928570003,1823.7907928570003,1823.7907928570003,1823.7907928570003,,,,,,,,,,,,,,,,,,,,,,,,,,,,,,,,,,,,,,,10,005,2022-09-23_10h28.53.742,test2,2022.2.4,60.02247409486134,
0,0,0,0,61,0,61,0,1823.7907928570003,1823.7907928570003,1823.7907928570003,1823.7907928570003,1823.7907928570003,1823.7907928570003,1823.7907928570003,1,1,rojo,1,['N_A'],1825.7609239590001,1825.7609239590001,1825.7609239590001,1825.7609239590001,1827.778624983,1827.778624983,1827.778624983,1827.778624983,1827.778624983,1827.778624983,1827.778624983,1827.778624983,1829.7975652280002,1829.7975652280002,1829.7975652280002,1829.7975652280002,,,,,,,,,,,,,,,,,,,,,,,,,,,,,,,,,,,,,,,10,005,2022-09-23_10h28.53.742,test2,2022.2.4,60.02247409486134,
0,0,0,0,62,0,62,0,1829.7975652280002,1829.7975652280002,1829.7975652280002,1829.7975652280002,1829.7975652280002,1829.7975652280002,1829.7975652280002,1,-1,rojo,1,['N_A'],1832.067397679,1832.067397679,1832.067397679,1832.067397679,1834.1029563440002,1834.1029563440002,1834.1029563440002,1834.1029563440002,1834.1029563440002,1834.1029563440002,1834.1029563440002,1834.1029563440002,1836.1213905160002,1836.1213905160002,1836.1213905160002,1836.1213905160002,,,,,,,,,,,,,,,,,,,,,,,,,,,,,,,,,,,,,,,10,005,2022-09-23_10h28.53.742,test2,2022.2.4,60.02247409486134,
0,0,0,0,63,0,63,0,1836.1213905160002,1836.1213905160002,1836.1213905160002,1836.1213905160002,1836.1213905160002,1836.1213905160002,1836.1213905160002,-1,-1,azul,1,['N_A'],1838.574199879,1838.574199879,1838.574199879,1838.574199879,1840.5936758000003,1840.5936758000003,1840.5936758000003,1840.5936758000003,1840.5936758000003,1840.5936758000003,1840.5936758000003,1840.5936758000003,1842.6132333710002,1842.6132333710002,1842.6132333710002,1842.6132333710002,,,,,,,,,,,,,,,,,,,,,,,,,,,,,,,,,,,,,,,10,005,2022-09-23_10h28.53.742,test2,2022.2.4,60.02247409486134,
0,0,0,0,64,0,64,0,1842.6132333710002,1842.6132333710002,1842.6132333710002,1842.6132333710002,1842.6132333710002,1842.6132333710002,1842.6132333710002,1,1,rojo,1,['N_A'],1845.014364217,1845.014364217,1845.014364217,1845.014364217,1847.0345671320001,1847.0345671320001,1847.0345671320001,1847.0345671320001,1847.0345671320001,1847.0345671320001,1847.0345671320001,1847.0345671320001,1849.0526634870002,1849.0526634870002,1849.0526634870002,1849.0526634870002,,,,,,,,,,,,,,,,,,,,,,,,,,,,,,,,,,,,,,,10,005,2022-09-23_10h28.53.742,test2,2022.2.4,60.02247409486134,
0,0,0,0,65,0,65,0,1849.0526634870002,1849.0526634870002,1849.0526634870002,1849.0526634870002,1849.0526634870002,1849.0526634870002,1849.0526634870002,1,1,rojo,1,['N_A'],1851.4050535420001,1851.4050535420001,1851.4050535420001,1851.4050535420001,1853.424576594,1853.424576594,1853.424576594,1853.424576594,1853.424576594,1853.424576594,1853.424576594,1853.424576594,1855.4423368420003,1855.4423368420003,1855.4423368420003,1855.4423368420003,,,,,,,,,,,,,,,,,,,,,,,,,,,,,,,,,,,,,,,10,005,2022-09-23_10h28.53.742,test2,2022.2.4,60.02247409486134,
0,0,0,0,66,0,66,0,1855.4423368420003,1855.4423368420003,1855.4423368420003,1855.4423368420003,1855.4423368420003,1855.4423368420003,1855.4423368420003,1,-1,rojo,1,['N_A'],1857.495248612,1857.495248612,1857.495248612,1857.495248612,1859.5309511260002,1859.5309511260002,1859.5309511260002,1859.5309511260002,1859.5309511260002,1859.5309511260002,1859.5309511260002,1859.5309511260002,1861.550546561,1861.550546561,1861.550546561,1861.550546561,,,,,,,,,,,,,,,,,,,,,,,,,,,,,,,,,,,,,,,10,005,2022-09-23_10h28.53.742,test2,2022.2.4,60.02247409486134,
0,0,0,0,67,0,67,0,1861.550546561,1861.550546561,1861.550546561,1861.550546561,1861.550546561,1861.550546561,1861.550546561,1,-1,rojo,1,['N_A'],1863.451869307,1863.451869307,1863.451869307,1863.451869307,1865.470652605,1865.470652605,1865.470652605,1865.470652605,1865.470652605,1865.470652605,1865.470652605,1865.470652605,1867.4900435270001,1867.4900435270001,1867.4900435270001,1867.4900435270001,,,,,,,,,,,,,,,,,,,,,,,,,,,,,,,,,,,,,,,10,005,2022-09-23_10h28.53.742,test2,2022.2.4,60.02247409486134,
0,0,0,0,68,0,68,0,1867.4900435270001,1867.4900435270001,1867.4900435270001,1867.4900435270001,1867.4900435270001,1867.4900435270001,1867.4900435270001,1,1,rojo,1,['N_A'],1869.558730196,1869.558730196,1869.558730196,1869.558730196,1871.578290166,1871.578290166,1871.578290166,1871.578290166,1871.578290166,1871.578290166,1871.578290166,1871.578290166,1873.596109985,1873.596109985,1873.596109985,1873.596109985,,,,,,,,,,,,,,,,,,,,,,,,,,,,,,,,,,,,,,,10,005,2022-09-23_10h28.53.742,test2,2022.2.4,60.02247409486134,
0,0,0,0,69,0,69,0,1873.596109985,1873.596109985,1873.596109985,1873.596109985,1873.596109985,1873.596109985,1873.596109985,-1,1,azul,1,['N_A'],1875.5145300980003,1875.5145300980003,1875.5145300980003,1875.5145300980003,1877.533710566,1877.533710566,1877.533710566,1877.533710566,1877.533710566,1877.533710566,1877.533710566,1877.533710566,1879.5528416490001,1879.5528416490001,1879.5528416490001,1879.5528416490001,,,,,,,,,,,,,,,,,,,,,,,,,,,,,,,,,,,,,,,10,005,2022-09-23_10h28.53.742,test2,2022.2.4,60.02247409486134,
0,0,0,0,70,0,70,0,1879.5528416490001,1879.5528416490001,1879.5528416490001,1879.5528416490001,1879.5528416490001,1879.5528416490001,1879.5528416490001,1,-1,rojo,1,['N_A'],1881.354850619,1881.354850619,1881.354850619,1881.354850619,1883.373753809,1883.373753809,1883.373753809,1883.373753809,1883.373753809,1883.373753809,1883.373753809,1883.373753809,1885.3927556050003,1885.3927556050003,1885.3927556050003,1885.3927556050003,,,,,,,,,,,,,,,,,,,,,,,,,,,,,,,,,,,,,,,10,005,2022-09-23_10h28.53.742,test2,2022.2.4,60.02247409486134,
0,0,0,0,71,0,71,0,1885.3927556050003,1885.3927556050003,1885.3927556050003,1885.3927556050003,1885.3927556050003,1885.3927556050003,1885.3927556050003,-1,1,azul,1,['N_A'],1887.8452854800003,1887.8452854800003,1887.8452854800003,1887.8452854800003,1889.8642394580002,1889.8642394580002,1889.8642394580002,1889.8642394580002,1889.8642394580002,1889.8642394580002,1889.8642394580002,1889.8642394580002,1891.8825420010003,1891.8825420010003,1891.8825420010003,1891.8825420010003,,,,,,,,,,,,,,,,,,,,,,,,,,,,,,,,,,,,,,,10,005,2022-09-23_10h28.53.742,test2,2022.2.4,60.02247409486134,
0,0,0,0,72,0,72,0,1891.8825420010003,1891.8825420010003,1891.8825420010003,1891.8825420010003,1891.8825420010003,1891.8825420010003,1891.8825420010003,-1,-1,azul,1,['N_A'],1893.6519665720002,1893.6519665720002,1893.6519665720002,1893.6519665720002,1895.6880532549999,1895.6880532549999,1895.6880532549999,1895.6880532549999,1895.6880532549999,1895.6880532549999,1895.6880532549999,1895.6880532549999,1897.7072390960002,1897.7072390960002,1897.7072390960002,1897.7072390960002,,,,,,,,,,,,,,,,,,,,,,,,,,,,,,,,,,,,,,,10,005,2022-09-23_10h28.53.742,test2,2022.2.4,60.02247409486134,
0,0,0,0,73,0,73,0,1897.7072390960002,1897.7072390960002,1897.7072390960002,1897.7072390960002,1897.7072390960002,1897.7072390960002,1897.7072390960002,-1,-1,azul,1,['N_A'],1899.975232365,1899.975232365,1899.975232365,1899.975232365,1901.9949767100002,1901.9949767100002,1901.9949767100002,1901.9949767100002,1901.9949767100002,1901.9949767100002,1901.9949767100002,1901.9949767100002,1904.0134212000003,1904.0134212000003,1904.0134212000003,1904.0134212000003,,,,,,,,,,,,,,,,,,,,,,,,,,,,,,,,,,,,,,,10,005,2022-09-23_10h28.53.742,test2,2022.2.4,60.02247409486134,
0,0,0,0,74,0,74,0,1904.0134212000003,1904.0134212000003,1904.0134212000003,1904.0134212000003,1904.0134212000003,1904.0134212000003,1904.0134212000003,1,1,rojo,1,['N_A'],1906.1318700330003,1906.1318700330003,1906.1318700330003,1906.1318700330003,1908.15114585,1908.15114585,1908.15114585,1908.15114585,1908.15114585,1908.15114585,1908.15114585,1908.15114585,1910.170255648,1910.170255648,1910.170255648,1910.170255648,,,,,,,,,,,,,,,,,,,,,,,,,,,,,,,,,,,,,,,10,005,2022-09-23_10h28.53.742,test2,2022.2.4,60.02247409486134,
0,0,0,0,75,0,75,0,1910.170255648,1910.170255648,1910.170255648,1910.170255648,1910.170255648,1910.170255648,1910.170255648,1,-1,rojo,1,['N_A'],1912.089004905,1912.089004905,1912.089004905,1912.089004905,1914.1255009370002,1914.1255009370002,1914.1255009370002,1914.1255009370002,1914.1255009370002,1914.1255009370002,1914.1255009370002,1914.1255009370002,1916.143625736,1916.143625736,1916.143625736,1916.143625736,,,,,,,,,,,,,,,,,,,,,,,,,,,,,,,,,,,,,,,10,005,2022-09-23_10h28.53.742,test2,2022.2.4,60.02247409486134,
0,0,0,0,76,0,76,0,1916.143625736,1916.143625736,1916.143625736,1916.143625736,1916.143625736,1916.143625736,1916.143625736,-1,-1,azul,1,['N_A'],1917.8285718350003,1917.8285718350003,1917.8285718350003,1917.8285718350003,1919.846715906,1919.846715906,1919.846715906,1919.846715906,1919.846715906,1919.846715906,1919.846715906,1919.846715906,1921.865751723,1921.865751723,1921.865751723,1921.865751723,,,,,,,,,,,,,,,,,,,,,,,,,,,,,,,,,,,,,,,10,005,2022-09-23_10h28.53.742,test2,2022.2.4,60.02247409486134,
0,0,0,0,77,0,77,0,1921.865751723,1921.865751723,1921.865751723,1921.865751723,1921.865751723,1921.865751723,1921.865751723,-1,1,azul,1,['N_A'],1923.6689122050002,1923.6689122050002,1923.6689122050002,1923.6689122050002,1925.687613528,1925.687613528,1925.687613528,1925.687613528,1925.687613528,1925.687613528,1925.687613528,1925.687613528,1927.7054913739998,1927.7054913739998,1927.7054913739998,1927.7054913739998,,,,,,,,,,,,,,,,,,,,,,,,,,,,,,,,,,,,,,,10,005,2022-09-23_10h28.53.742,test2,2022.2.4,60.02247409486134,
0,0,0,0,78,0,78,0,1927.7054913739998,1927.7054913739998,1927.7054913739998,1927.7054913739998,1927.7054913739998,1927.7054913739998,1927.7054913739998,1,1,rojo,1,['N_A'],1931.6271881970001,1931.6271881970001,1931.6271881970001,1931.6271881970001,1933.6459511500002,1933.6459511500002,1933.6459511500002,1933.6459511500002,1933.6459511500002,1933.6459511500002,1933.6459511500002,1933.6459511500002,1935.6647336,1935.6647336,1935.6647336,1935.6647336,,,,,,,,,,,,,,,,,,,,,,,,,,,,,,,,,,,,,,,10,005,2022-09-23_10h28.53.742,test2,2022.2.4,60.02247409486134,
0,0,0,0,79,0,79,0,1935.6647336,1935.6647336,1935.6647336,1935.6647336,1935.6647336,1935.6647336,1935.6647336,1,-1,rojo,1,['N_A'],1938.9695408850002,1938.9695408850002,1938.9695408850002,1938.9695408850002,1940.9875908510003,1940.9875908510003,1940.9875908510003,1940.9875908510003,1940.9875908510003,1940.9875908510003,1940.9875908510003,1940.9875908510003,1943.006857813,1943.006857813,1943.006857813,1943.006857813,,,,,,,,,,,,,,,,,,,,,,,,,,,,,,,,,,,,,,,10,005,2022-09-23_10h28.53.742,test2,2022.2.4,60.02247409486134,
0,0,0,0,80,0,80,0,1943.006857813,1943.006857813,1943.006857813,1943.006857813,1943.006857813,1943.006857813,1943.006857813,1,1,rojo,1,['N_A'],1944.9078010419998,1944.9078010419998,1944.9078010419998,1944.9078010419998,1946.927578276,1946.927578276,1946.927578276,1946.927578276,1946.927578276,1946.927578276,1946.927578276,1946.927578276,1948.945673671,1948.945673671,1948.945673671,1948.945673671,,,,,,,,,,,,,,,,,,,,,,,,,,,,,,,,,,,,,,,10,005,2022-09-23_10h28.53.742,test2,2022.2.4,60.02247409486134,
0,0,0,0,81,0,81,0,1948.945673671,1948.945673671,1948.945673671,1948.945673671,1948.945673671,1948.945673671,1948.945673671,1,1,rojo,1,['N_A'],1950.8315230070002,1950.8315230070002,1950.8315230070002,1950.8315230070002,1952.850959843,1952.850959843,1952.850959843,1952.850959843,1952.850959843,1952.850959843,1952.850959843,1952.850959843,1954.870547038,1954.870547038,1954.870547038,1954.870547038,,,,,,,,,,,,,,,,,,,,,,,,,,,,,,,,,,,,,,,10,005,2022-09-23_10h28.53.742,test2,2022.2.4,60.02247409486134,
0,0,0,0,82,0,82,0,1954.870547038,1954.870547038,1954.870547038,1954.870547038,1954.870547038,1954.870547038,1954.870547038,1,1,rojo,1,['N_A'],1956.8384416110002,1956.8384416110002,1956.8384416110002,1956.8384416110002,1958.857514034,1958.857514034,1958.857514034,1958.857514034,1958.857514034,1958.857514034,1958.857514034,1958.857514034,1960.8754863600002,1960.8754863600002,1960.8754863600002,1960.8754863600002,,,,,,,,,,,,,,,,,,,,,,,,,,,,,,,,,,,,,,,10,005,2022-09-23_10h28.53.742,test2,2022.2.4,60.02247409486134,
0,0,0,0,83,0,83,0,1960.8754863600002,1960.8754863600002,1960.8754863600002,1960.8754863600002,1960.8754863600002,1960.8754863600002,1960.8754863600002,-1,1,azul,1,['N_A'],1963.194966985,1963.194966985,1963.194966985,1963.194966985,1965.2145351899999,1965.2145351899999,1965.2145351899999,1965.2145351899999,1965.2145351899999,1965.2145351899999,1965.2145351899999,1965.2145351899999,1967.2325370970002,1967.2325370970002,1967.2325370970002,1967.2325370970002,,,,,,,,,,,,,,,,,,,,,,,,,,,,,,,,,,,,,,,10,005,2022-09-23_10h28.53.742,test2,2022.2.4,60.02247409486134,
0,0,0,0,84,0,84,0,1967.2325370970002,1967.2325370970002,1967.2325370970002,1967.2325370970002,1967.2325370970002,1967.2325370970002,1967.2325370970002,-1,1,azul,1,['N_A'],1971.087060792,1971.087060792,1971.087060792,1971.087060792,1973.107097098,1973.107097098,1973.107097098,1973.107097098,1973.107097098,1973.107097098,1973.107097098,1973.107097098,1975.1256919789998,1975.1256919789998,1975.1256919789998,1975.1256919789998,,,,,,,,,,,,,,,,,,,,,,,,,,,,,,,,,,,,,,,10,005,2022-09-23_10h28.53.742,test2,2022.2.4,60.02247409486134,
0,0,0,0,85,0,85,0,1975.1256919789998,1975.1256919789998,1975.1256919789998,1975.1256919789998,1975.1256919789998,1975.1256919789998,1975.1256919789998,1,1,rojo,1,['N_A'],1976.9274172220003,1976.9274172220003,1976.9274172220003,1976.9274172220003,1978.9455147990002,1978.9455147990002,1978.9455147990002,1978.9455147990002,1978.9455147990002,1978.9455147990002,1978.9455147990002,1978.9455147990002,1980.9654652560002,1980.9654652560002,1980.9654652560002,1980.9654652560002,,,,,,,,,,,,,,,,,,,,,,,,,,,,,,,,,,,,,,,10,005,2022-09-23_10h28.53.742,test2,2022.2.4,60.02247409486134,
0,0,0,0,86,0,86,0,1980.9654652560002,1980.9654652560002,1980.9654652560002,1980.9654652560002,1980.9654652560002,1980.9654652560002,1980.9654652560002,1,-1,rojo,1,['N_A'],1982.9998230340002,1982.9998230340002,1982.9998230340002,1982.9998230340002,1985.018609482,1985.018609482,1985.018609482,1985.018609482,1985.018609482,1985.018609482,1985.018609482,1985.018609482,1987.0375391809998,1987.0375391809998,1987.0375391809998,1987.0375391809998,,,,,,,,,,,,,,,,,,,,,,,,,,,,,,,,,,,,,,,10,005,2022-09-23_10h28.53.742,test2,2022.2.4,60.02247409486134,
0,0,0,0,87,0,87,0,1987.0375391809998,1987.0375391809998,1987.0375391809998,1987.0375391809998,1987.0375391809998,1987.0375391809998,1987.0375391809998,-1,1,azul,1,['N_A'],1988.9073197870002,1988.9073197870002,1988.9073197870002,1988.9073197870002,1990.9262741500002,1990.9262741500002,1990.9262741500002,1990.9262741500002,1990.9262741500002,1990.9262741500002,1990.9262741500002,1990.9262741500002,1992.9440666700002,1992.9440666700002,1992.9440666700002,1992.9440666700002,,,,,,,,,,,,,,,,,,,,,,,,,,,,,,,,,,,,,,,10,005,2022-09-23_10h28.53.742,test2,2022.2.4,60.02247409486134,
0,0,0,0,88,0,88,0,1992.9440666700002,1992.9440666700002,1992.9440666700002,1992.9440666700002,1992.9440666700002,1992.9440666700002,1992.9440666700002,1,1,rojo,1,['N_A'],1994.6127591990003,1994.6127591990003,1994.6127591990003,1994.6127591990003,1996.6325889630002,1996.6325889630002,1996.6325889630002,1996.6325889630002,1996.6325889630002,1996.6325889630002,1996.6325889630002,1996.6325889630002,1998.6503122550002,1998.6503122550002,1998.6503122550002,1998.6503122550002,,,,,,,,,,,,,,,,,,,,,,,,,,,,,,,,,,,,,,,10,005,2022-09-23_10h28.53.742,test2,2022.2.4,60.02247409486134,
0,0,0,0,89,0,89,0,1998.6503122550002,1998.6503122550002,1998.6503122550002,1998.6503122550002,1998.6503122550002,1998.6503122550002,1998.6503122550002,1,1,rojo,1,['N_A'],2000.7697008330001,2000.7697008330001,2000.7697008330001,2000.7697008330001,2002.789127827,2002.789127827,2002.789127827,2002.789127827,2002.789127827,2002.789127827,2002.789127827,2002.789127827,2004.8071432770003,2004.8071432770003,2004.8071432770003,2004.8071432770003,,,,,,,,,,,,,,,,,,,,,,,,,,,,,,,,,,,,,,,10,005,2022-09-23_10h28.53.742,test2,2022.2.4,60.02247409486134,
0,0,0,0,90,0,90,0,2004.8071432770003,2004.8071432770003,2004.8071432770003,2004.8071432770003,2004.8071432770003,2004.8071432770003,2004.8071432770003,1,-1,rojo,1,['N_A'],2006.8945536659999,2006.8945536659999,2006.8945536659999,2006.8945536659999,2008.9292337860002,2008.9292337860002,2008.9292337860002,2008.9292337860002,2008.9292337860002,2008.9292337860002,2008.9292337860002,2008.9292337860002,2010.947560429,2010.947560429,2010.947560429,2010.947560429,,,,,,,,,,,,,,,,,,,,,,,,,,,,,,,,,,,,,,,10,005,2022-09-23_10h28.53.742,test2,2022.2.4,60.02247409486134,
0,0,0,0,91,0,91,0,2010.947560429,2010.947560429,2010.947560429,2010.947560429,2010.947560429,2010.947560429,2010.947560429,-1,-1,azul,1,['N_A'],2012.833847031,2012.833847031,2012.833847031,2012.833847031,2014.8530502510002,2014.8530502510002,2014.8530502510002,2014.8530502510002,2014.8530502510002,2014.8530502510002,2014.8530502510002,2014.8530502510002,2016.8706138450002,2016.8706138450002,2016.8706138450002,2016.8706138450002,,,,,,,,,,,,,,,,,,,,,,,,,,,,,,,,,,,,,,,10,005,2022-09-23_10h28.53.742,test2,2022.2.4,60.02247409486134,
0,0,0,0,92,0,92,0,2016.8706138450002,2016.8706138450002,2016.8706138450002,2016.8706138450002,2016.8706138450002,2016.8706138450002,2016.8706138450002,1,1,rojo,1,['N_A'],2018.673873067,2018.673873067,2018.673873067,2018.673873067,2020.6920593270002,2020.6920593270002,2020.6920593270002,2020.6920593270002,2020.6920593270002,2020.6920593270002,2020.6920593270002,2020.6920593270002,2022.7111789740002,2022.7111789740002,2022.7111789740002,2022.7111789740002,,,,,,,,,,,,,,,,,,,,,,,,,,,,,,,,,,,,,,,10,005,2022-09-23_10h28.53.742,test2,2022.2.4,60.02247409486134,
0,0,0,0,93,0,93,0,2022.7111789740002,2022.7111789740002,2022.7111789740002,2022.7111789740002,2022.7111789740002,2022.7111789740002,2022.7111789740002,1,-1,rojo,1,['N_A'],2025.346769111,2025.346769111,2025.346769111,2025.346769111,2027.383808861,2027.383808861,2027.383808861,2027.383808861,2027.383808861,2027.383808861,2027.383808861,2027.383808861,2029.401019373,2029.401019373,2029.401019373,2029.401019373,,,,,,,,,,,,,,,,,,,,,,,,,,,,,,,,,,,,,,,10,005,2022-09-23_10h28.53.742,test2,2022.2.4,60.02247409486134,
0,0,0,0,94,0,94,0,2029.401019373,2029.401019373,2029.401019373,2029.401019373,2029.401019373,2029.401019373,2029.401019373,-1,-1,azul,1,['N_A'],2031.8047352920003,2031.8047352920003,2031.8047352920003,2031.8047352920003,2033.8407492740002,2033.8407492740002,2033.8407492740002,2033.8407492740002,2033.8407492740002,2033.8407492740002,2033.8407492740002,2033.8407492740002,2035.8581073220003,2035.8581073220003,2035.8581073220003,2035.8581073220003,,,,,,,,,,,,,,,,,,,,,,,,,,,,,,,,,,,,,,,10,005,2022-09-23_10h28.53.742,test2,2022.2.4,60.02247409486134,
0,0,0,0,95,0,95,0,2035.8581073220003,2035.8581073220003,2035.8581073220003,2035.8581073220003,2035.8581073220003,2035.8581073220003,2035.8581073220003,-1,-1,azul,1,['N_A'],2038.8625312570002,2038.8625312570002,2038.8625312570002,2038.8625312570002,2040.8981527310002,2040.8981527310002,2040.8981527310002,2040.8981527310002,2040.8981527310002,2040.8981527310002,2040.8981527310002,2040.8981527310002,2042.916179196,2042.916179196,2042.916179196,2042.916179196,,,,,,,,,,,,,,,,,,,,,,,,,,,,,,,,,,,,,,,10,005,2022-09-23_10h28.53.742,test2,2022.2.4,60.02247409486134,
0,0,0,0,96,0,96,0,2042.916179196,2042.916179196,2042.916179196,2042.916179196,2042.916179196,2042.916179196,2042.916179196,1,-1,rojo,1,['N_A'],2045.602112727,2045.602112727,2045.602112727,2045.602112727,2047.621937342,2047.621937342,2047.621937342,2047.621937342,2047.621937342,2047.621937342,2047.621937342,2047.621937342,2049.641397305,2049.641397305,2049.641397305,2049.641397305,,,,,,,,,,,,,,,,,,,,,,,,,,,,,,,,,,,,,,,10,005,2022-09-23_10h28.53.742,test2,2022.2.4,60.02247409486134,
0,0,0,0,97,0,97,0,2049.641397305,2049.641397305,2049.641397305,2049.641397305,2049.641397305,2049.641397305,2049.641397305,1,1,rojo,1,['N_A'],2051.526048156,2051.526048156,2051.526048156,2051.526048156,2053.545466565,2053.545466565,2053.545466565,2053.545466565,2053.545466565,2053.545466565,2053.545466565,2053.545466565,2055.563555899,2055.563555899,2055.563555899,2055.563555899,,,,,,,,,,,,,,,,,,,,,,,,,,,,,,,,,,,,,,,10,005,2022-09-23_10h28.53.742,test2,2022.2.4,60.02247409486134,
0,0,0,0,98,0,98,0,2055.563555899,2055.563555899,2055.563555899,2055.563555899,2055.563555899,2055.563555899,2055.563555899,1,1,rojo,1,['N_A'],2057.132231663,2057.132231663,2057.132231663,2057.132231663,2059.151646697,2059.151646697,2059.151646697,2059.151646697,2059.151646697,2059.151646697,2059.151646697,2059.151646697,2061.169679852,2061.169679852,2061.169679852,2061.169679852,,,,,,,,,,,,,,,,,,,,,,,,,,,,,,,,,,,,,,,10,005,2022-09-23_10h28.53.742,test2,2022.2.4,60.02247409486134,
0,0,0,0,99,0,99,0,2061.169679852,2061.169679852,2061.169679852,2061.169679852,2061.169679852,2061.169679852,2061.169679852,-1,1,azul,1,['N_A'],2062.771036745,2062.771036745,2062.771036745,2062.771036745,2064.791065202,2064.791065202,2064.791065202,2064.791065202,2064.791065202,2064.791065202,2064.791065202,2064.791065202,2066.809586576,2066.809586576,2066.809586576,2066.809586576,,,,,,,,,,,,,,,,,,,,,,,,,,,,,,,,,,,,,,,10,005,2022-09-23_10h28.53.742,test2,2022.2.4,60.02247409486134,
0,0,0,0,100,0,100,0,2066.809586576,2066.809586576,2066.809586576,2066.809586576,2066.809586576,2066.809586576,2066.809586576,1,1,rojo,1,['N_A'],2068.6612191,2068.6612191,2068.6612191,2068.6612191,2070.68162602,2070.68162602,2070.68162602,2070.68162602,2070.68162602,2070.68162602,2070.68162602,2070.68162602,2072.700135207,2072.700135207,2072.700135207,2072.700135207,,,,,,,,,,,,,,,,,,,,,,,,,,,,,,,,,,,,,,,10,005,2022-09-23_10h28.53.742,test2,2022.2.4,60.02247409486134,
0,0,0,0,101,0,101,0,2072.700135207,2072.700135207,2072.700135207,2072.700135207,2072.700135207,2072.700135207,2072.700135207,1,1,rojo,1,['N_A'],2074.467750283,2074.467750283,2074.467750283,2074.467750283,2076.487812795,2076.487812795,2076.487812795,2076.487812795,2076.487812795,2076.487812795,2076.487812795,2076.487812795,2078.505294654,2078.505294654,2078.505294654,2078.505294654,,,,,,,,,,,,,,,,,,,,,,,,,,,,,,,,,,,,,,,10,005,2022-09-23_10h28.53.742,test2,2022.2.4,60.02247409486134,
0,0,0,0,102,0,102,0,2078.505294654,2078.505294654,2078.505294654,2078.505294654,2078.505294654,2078.505294654,2078.505294654,1,1,rojo,1,['N_A'],2080.207603726,2080.207603726,2080.207603726,2080.207603726,2082.227309712,2082.227309712,2082.227309712,2082.227309712,2082.227309712,2082.227309712,2082.227309712,2082.227309712,2084.24477085,2084.24477085,2084.24477085,2084.24477085,,,,,,,,,,,,,,,,,,,,,,,,,,,,,,,,,,,,,,,10,005,2022-09-23_10h28.53.742,test2,2022.2.4,60.02247409486134,
0,0,0,0,103,0,103,0,2084.24477085,2084.24477085,2084.24477085,2084.24477085,2084.24477085,2084.24477085,2084.24477085,1,1,rojo,1,['N_A'],2086.59745643,2086.59745643,2086.59745643,2086.59745643,2088.617320717,2088.617320717,2088.617320717,2088.617320717,2088.617320717,2088.617320717,2088.617320717,2088.617320717,2090.63518217,2090.63518217,2090.63518217,2090.63518217,,,,,,,,,,,,,,,,,,,,,,,,,,,,,,,,,,,,,,,10,005,2022-09-23_10h28.53.742,test2,2022.2.4,60.02247409486134,
0,0,0,0,104,0,104,0,2090.63518217,2090.63518217,2090.63518217,2090.63518217,2090.63518217,2090.63518217,2090.63518217,-1,1,azul,1,['N_A'],2092.65420021,2092.65420021,2092.65420021,2092.65420021,2094.674044599,2094.674044599,2094.674044599,2094.674044599,2094.674044599,2094.674044599,2094.674044599,2094.674044599,2096.692431262,2096.692431262,2096.692431262,2096.692431262,,,,,,,,,,,,,,,,,,,,,,,,,,,,,,,,,,,,,,,10,005,2022-09-23_10h28.53.742,test2,2022.2.4,60.02247409486134,
0,0,0,0,105,0,105,0,2096.692431262,2096.692431262,2096.692431262,2096.692431262,2096.692431262,2096.692431262,2096.692431262,1,-1,rojo,1,['N_A'],2098.527739019,2098.527739019,2098.527739019,2098.527739019,2100.564333548,2100.564333548,2100.564333548,2100.564333548,2100.564333548,2100.564333548,2100.564333548,2100.564333548,2102.581825887,2102.581825887,2102.581825887,2102.581825887,,,,,,,,,,,,,,,,,,,,,,,,,,,,,,,,,,,,,,,10,005,2022-09-23_10h28.53.742,test2,2022.2.4,60.02247409486134,
0,0,0,0,106,0,106,0,2102.581825887,2102.581825887,2102.581825887,2102.581825887,2102.581825887,2102.581825887,2102.581825887,1,-1,rojo,1,['N_A'],2104.333766364,2104.333766364,2104.333766364,2104.333766364,2106.3708366260003,2106.3708366260003,2106.3708366260003,2106.3708366260003,2106.3708366260003,2106.3708366260003,2106.3708366260003,2106.3708366260003,2108.388000422,2108.388000422,2108.388000422,2108.388000422,,,,,,,,,,,,,,,,,,,,,,,,,,,,,,,,,,,,,,,10,005,2022-09-23_10h28.53.742,test2,2022.2.4,60.02247409486134,
0,0,0,0,107,0,107,0,2108.388000422,2108.388000422,2108.388000422,2108.388000422,2108.388000422,2108.388000422,2108.388000422,1,-1,rojo,1,['N_A'],2110.491025016,2110.491025016,2110.491025016,2110.491025016,2112.527992588,2112.527992588,2112.527992588,2112.527992588,2112.527992588,2112.527992588,2112.527992588,2112.527992588,2114.546199432,2114.546199432,2114.546199432,2114.546199432,,,,,,,,,,,,,,,,,,,,,,,,,,,,,,,,,,,,,,,10,005,2022-09-23_10h28.53.742,test2,2022.2.4,60.02247409486134,
0,0,0,0,108,0,108,0,2114.546199432,2114.546199432,2114.546199432,2114.546199432,2114.546199432,2114.546199432,2114.546199432,-1,-1,azul,1,['N_A'],2116.948445028,2116.948445028,2116.948445028,2116.948445028,2118.96746858,2118.96746858,2118.96746858,2118.96746858,2118.96746858,2118.96746858,2118.96746858,2118.96746858,2120.986076107,2120.986076107,2120.986076107,2120.986076107,,,,,,,,,,,,,,,,,,,,,,,,,,,,,,,,,,,,,,,10,005,2022-09-23_10h28.53.742,test2,2022.2.4,60.02247409486134,
0,0,0,0,109,0,109,0,2120.986076107,2120.986076107,2120.986076107,2120.986076107,2120.986076107,2120.986076107,2120.986076107,1,1,rojo,1,['N_A'],2123.138458706,2123.138458706,2123.138458706,2123.138458706,2125.156933064,2125.156933064,2125.156933064,2125.156933064,2125.156933064,2125.156933064,2125.156933064,2125.156933064,2127.175518098,2127.175518098,2127.175518098,2127.175518098,,,,,,,,,,,,,,,,,,,,,,,,,,,,,,,,,,,,,,,10,005,2022-09-23_10h28.53.742,test2,2022.2.4,60.02247409486134,
0,0,0,0,110,0,110,0,2127.175518098,2127.175518098,2127.175518098,2127.175518098,2127.175518098,2127.175518098,2127.175518098,-1,-1,azul,1,['N_A'],2129.044252217,2129.044252217,2129.044252217,2129.044252217,2131.0807837810003,2131.0807837810003,2131.0807837810003,2131.0807837810003,2131.0807837810003,2131.0807837810003,2131.0807837810003,2131.0807837810003,2133.100172617,2133.100172617,2133.100172617,2133.100172617,,,,,,,,,,,,,,,,,,,,,,,,,,,,,,,,,,,,,,,10,005,2022-09-23_10h28.53.742,test2,2022.2.4,60.02247409486134,
0,0,0,0,111,0,111,0,2133.100172617,2133.100172617,2133.100172617,2133.100172617,2133.100172617,2133.100172617,2133.100172617,1,-1,rojo,1,['N_A'],2134.967371499,2134.967371499,2134.967371499,2134.967371499,2136.987136616,2136.987136616,2136.987136616,2136.987136616,2136.987136616,2136.987136616,2136.987136616,2136.987136616,2139.005504019,2139.005504019,2139.005504019,2139.005504019,,,,,,,,,,,,,,,,,,,,,,,,,,,,,,,,,,,,,,,10,005,2022-09-23_10h28.53.742,test2,2022.2.4,60.02247409486134,
0,0,0,0,112,0,112,0,2139.005504019,2139.005504019,2139.005504019,2139.005504019,2139.005504019,2139.005504019,2139.005504019,1,1,rojo,1,['N_A'],2141.207591225,2141.207591225,2141.207591225,2141.207591225,2143.227768778,2143.227768778,2143.227768778,2143.227768778,2143.227768778,2143.227768778,2143.227768778,2143.227768778,2145.245474803,2145.245474803,2145.245474803,2145.245474803,,,,,,,,,,,,,,,,,,,,,,,,,,,,,,,,,,,,,,,10,005,2022-09-23_10h28.53.742,test2,2022.2.4,60.02247409486134,
0,0,0,0,113,0,113,0,2145.245474803,2145.245474803,2145.245474803,2145.245474803,2145.245474803,2145.245474803,2145.245474803,1,-1,rojo,1,['N_A'],2147.348198919,2147.348198919,2147.348198919,2147.348198919,2149.385131995,2149.385131995,2149.385131995,2149.385131995,2149.385131995,2149.385131995,2149.385131995,2149.385131995,2151.4023134090003,2151.4023134090003,2151.4023134090003,2151.4023134090003,,,,,,,,,,,,,,,,,,,,,,,,,,,,,,,,,,,,,,,10,005,2022-09-23_10h28.53.742,test2,2022.2.4,60.02247409486134,
0,0,0,0,114,0,114,0,2151.4023134090003,2151.4023134090003,2151.4023134090003,2151.4023134090003,2151.4023134090003,2151.4023134090003,2151.4023134090003,1,-1,rojo,1,['N_A'],2153.12095306,2153.12095306,2153.12095306,2153.12095306,2155.140148718,2155.140148718,2155.140148718,2155.140148718,2155.140148718,2155.140148718,2155.140148718,2155.140148718,2157.1584865590003,2157.1584865590003,2157.1584865590003,2157.1584865590003,,,,,,,,,,,,,,,,,,,,,,,,,,,,,,,,,,,,,,,10,005,2022-09-23_10h28.53.742,test2,2022.2.4,60.02247409486134,
0,0,0,0,115,0,115,0,2157.1584865590003,2157.1584865590003,2157.1584865590003,2157.1584865590003,2157.1584865590003,2157.1584865590003,2157.1584865590003,1,1,rojo,1,['N_A'],2159.645200774,2159.645200774,2159.645200774,2159.645200774,2161.664026302,2161.664026302,2161.664026302,2161.664026302,2161.664026302,2161.664026302,2161.664026302,2161.664026302,2163.683232385,2163.683232385,2163.683232385,2163.683232385,,,,,,,,,,,,,,,,,,,,,,,,,,,,,,,,,,,,,,,10,005,2022-09-23_10h28.53.742,test2,2022.2.4,60.02247409486134,
0,0,0,0,116,0,116,0,2163.683232385,2163.683232385,2163.683232385,2163.683232385,2163.683232385,2163.683232385,2163.683232385,1,-1,rojo,1,['N_A'],2165.885469352,2165.885469352,2165.885469352,2165.885469352,2167.904097653,2167.904097653,2167.904097653,2167.904097653,2167.904097653,2167.904097653,2167.904097653,2167.904097653,2169.923202284,2169.923202284,2169.923202284,2169.923202284,,,,,,,,,,,,,,,,,,,,,,,,,,,,,,,,,,,,,,,10,005,2022-09-23_10h28.53.742,test2,2022.2.4,60.02247409486134,
0,0,0,0,117,0,117,0,2169.923202284,2169.923202284,2169.923202284,2169.923202284,2169.923202284,2169.923202284,2169.923202284,-1,1,azul,1,['N_A'],2171.975620642,2171.975620642,2171.975620642,2171.975620642,2173.994217709,2173.994217709,2173.994217709,2173.994217709,2173.994217709,2173.994217709,2173.994217709,2173.994217709,2176.0128799980002,2176.0128799980002,2176.0128799980002,2176.0128799980002,,,,,,,,,,,,,,,,,,,,,,,,,,,,,,,,,,,,,,,10,005,2022-09-23_10h28.53.742,test2,2022.2.4,60.02247409486134,
0,0,0,0,118,0,118,0,2176.0128799980002,2176.0128799980002,2176.0128799980002,2176.0128799980002,2176.0128799980002,2176.0128799980002,2176.0128799980002,-1,-1,azul,1,['N_A'],2177.94896862,2177.94896862,2177.94896862,2177.94896862,2179.967162081,2179.967162081,2179.967162081,2179.967162081,2179.967162081,2179.967162081,2179.967162081,2179.967162081,2181.9860074,2181.9860074,2181.9860074,2181.9860074,,,,,,,,,,,,,,,,,,,,,,,,,,,,,,,,,,,,,,,10,005,2022-09-23_10h28.53.742,test2,2022.2.4,60.02247409486134,
0,0,0,0,119,0,119,0,2181.9860074,2181.9860074,2181.9860074,2181.9860074,2181.9860074,2181.9860074,2181.9860074,1,1,rojo,1,['N_A'],2184.156015897,2184.156015897,2184.156015897,2184.156015897,2186.174572295,2186.174572295,2186.174572295,2186.174572295,2186.174572295,2186.174572295,2186.174572295,2186.174572295,2188.193797417,2188.193797417,2188.193797417,2188.193797417,,,,,,,,,,,,,,,,,,,,,,,,,,,,,,,,,,,,,,,10,005,2022-09-23_10h28.53.742,test2,2022.2.4,60.02247409486134,
0,0,0,0,120,0,120,0,2188.193797417,2188.193797417,2188.193797417,2188.193797417,2188.193797417,2188.193797417,2188.193797417,1,-1,rojo,1,['N_A'],2190.462984156,2190.462984156,2190.462984156,2190.462984156,2192.481468562,2192.481468562,2192.481468562,2192.481468562,2192.481468562,2192.481468562,2192.481468562,2192.481468562,2194.499873546,2194.499873546,2194.499873546,2194.499873546,,,,,,,,,,,,,,,,,,,,,,,,,,,,,,,,,,,,,,,10,005,2022-09-23_10h28.53.742,test2,2022.2.4,60.02247409486134,
0,0,0,0,121,0,121,0,2194.499873546,2194.499873546,2194.499873546,2194.499873546,2194.499873546,2194.499873546,2194.499873546,1,1,rojo,1,['N_A'],2197.085868278,2197.085868278,2197.085868278,2197.085868278,2199.105752994,2199.105752994,2199.105752994,2199.105752994,2199.105752994,2199.105752994,2199.105752994,2199.105752994,2201.123790622,2201.123790622,2201.123790622,2201.123790622,,,,,,,,,,,,,,,,,,,,,,,,,,,,,,,,,,,,,,,10,005,2022-09-23_10h28.53.742,test2,2022.2.4,60.02247409486134,
0,0,0,0,122,0,122,0,2201.123790622,2201.123790622,2201.123790622,2201.123790622,2201.123790622,2201.123790622,2201.123790622,1,-1,rojo,1,['N_A'],2203.259724224,2203.259724224,2203.259724224,2203.259724224,2205.279243863,2205.279243863,2205.279243863,2205.279243863,2205.279243863,2205.279243863,2205.279243863,2205.279243863,2207.297448685,2207.297448685,2207.297448685,2207.297448685,,,,,,,,,,,,,,,,,,,,,,,,,,,,,,,,,,,,,,,10,005,2022-09-23_10h28.53.742,test2,2022.2.4,60.02247409486134,
0,0,0,0,123,0,123,0,2207.297448685,2207.297448685,2207.297448685,2207.297448685,2207.297448685,2207.297448685,2207.297448685,1,1,rojo,1,['N_A'],2209.616917797,2209.616917797,2209.616917797,2209.616917797,2211.6361094540002,2211.6361094540002,2211.6361094540002,2211.6361094540002,2211.6361094540002,2211.6361094540002,2211.6361094540002,2211.6361094540002,2213.654858432,2213.654858432,2213.654858432,2213.654858432,,,,,,,,,,,,,,,,,,,,,,,,,,,,,,,,,,,,,,,10,005,2022-09-23_10h28.53.742,test2,2022.2.4,60.02247409486134,
0,0,0,0,124,0,124,0,2213.654858432,2213.654858432,2213.654858432,2213.654858432,2213.654858432,2213.654858432,2213.654858432,1,-1,rojo,1,['N_A'],2215.908322537,2215.908322537,2215.908322537,2215.908322537,2217.925573573,2217.925573573,2217.925573573,2217.925573573,2217.925573573,2217.925573573,2217.925573573,2217.925573573,2219.945567488,2219.945567488,2219.945567488,2219.945567488,,,,,,,,,,,,,,,,,,,,,,,,,,,,,,,,,,,,,,,10,005,2022-09-23_10h28.53.742,test2,2022.2.4,60.02247409486134,
0,0,0,0,125,0,125,0,2219.945567488,2219.945567488,2219.945567488,2219.945567488,2219.945567488,2219.945567488,2219.945567488,1,1,rojo,1,['N_A'],2221.763849597,2221.763849597,2221.763849597,2221.763849597,2223.782817683,2223.782817683,2223.782817683,2223.782817683,2223.782817683,2223.782817683,2223.782817683,2223.782817683,2225.801151033,2225.801151033,2225.801151033,2225.801151033,,,,,,,,,,,,,,,,,,,,,,,,,,,,,,,,,,,,,,,10,005,2022-09-23_10h28.53.742,test2,2022.2.4,60.02247409486134,
0,0,0,0,126,0,126,0,2225.801151033,2225.801151033,2225.801151033,2225.801151033,2225.801151033,2225.801151033,2225.801151033,-1,1,azul,1,['N_A'],2228.020697645,2228.020697645,2228.020697645,2228.020697645,2230.040081562,2230.040081562,2230.040081562,2230.040081562,2230.040081562,2230.040081562,2230.040081562,2230.040081562,2232.058491075,2232.058491075,2232.058491075,2232.058491075,,,,,,,,,,,,,,,,,,,,,,,,,,,,,,,,,,,,,,,10,005,2022-09-23_10h28.53.742,test2,2022.2.4,60.02247409486134,
0,0,0,0,127,0,127,0,2232.058491075,2232.058491075,2232.058491075,2232.058491075,2232.058491075,2232.058491075,2232.058491075,1,1,rojo,1,['N_A'],2233.911193275,2233.911193275,2233.911193275,2233.911193275,2235.929035036,2235.929035036,2235.929035036,2235.929035036,2235.929035036,2235.929035036,2235.929035036,2235.929035036,2237.949160538,2237.949160538,2237.949160538,2237.949160538,,,,,,,,,,,,,,,,,,,,,,,,,,,,,,,,,,,,,,,10,005,2022-09-23_10h28.53.742,test2,2022.2.4,60.02247409486134,
0,0,0,0,128,0,128,0,2237.949160538,2237.949160538,2237.949160538,2237.949160538,2237.949160538,2237.949160538,2237.949160538,1,-1,rojo,1,['N_A'],2239.866874976,2239.866874976,2239.866874976,2239.866874976,2241.90341344,2241.90341344,2241.90341344,2241.90341344,2241.90341344,2241.90341344,2241.90341344,2241.90341344,2243.921267355,2243.921267355,2243.921267355,2243.921267355,,,,,,,,,,,,,,,,,,,,,,,,,,,,,,,,,,,,,,,10,005,2022-09-23_10h28.53.742,test2,2022.2.4,60.02247409486134,
0,0,0,0,129,0,129,0,2243.921267355,2243.921267355,2243.921267355,2243.921267355,2243.921267355,2243.921267355,2243.921267355,1,-1,rojo,1,['N_A'],2246.458141189,2246.458141189,2246.458141189,2246.458141189,2248.494348748,2248.494348748,2248.494348748,2248.494348748,2248.494348748,2248.494348748,2248.494348748,2248.494348748,2250.511757101,2250.511757101,2250.511757101,2250.511757101,,,,,,,,,,,,,,,,,,,,,,,,,,,,,,,,,,,,,,,10,005,2022-09-23_10h28.53.742,test2,2022.2.4,60.02247409486134,
0,0,0,0,130,0,130,0,2250.511757101,2250.511757101,2250.511757101,2250.511757101,2250.511757101,2250.511757101,2250.511757101,1,-1,rojo,1,['N_A'],2252.3472402380003,2252.3472402380003,2252.3472402380003,2252.3472402380003,2254.365890476,2254.365890476,2254.365890476,2254.365890476,2254.365890476,2254.365890476,2254.365890476,2254.365890476,2256.385525843,2256.385525843,2256.385525843,2256.385525843,,,,,,,,,,,,,,,,,,,,,,,,,,,,,,,,,,,,,,,10,005,2022-09-23_10h28.53.742,test2,2022.2.4,60.02247409486134,
0,0,0,0,131,0,131,0,2256.385525843,2256.385525843,2256.385525843,2256.385525843,2256.385525843,2256.385525843,2256.385525843,1,1,rojo,1,['N_A'],2258.287255872,2258.287255872,2258.287255872,2258.287255872,2260.305810012,2260.305810012,2260.305810012,2260.305810012,2260.305810012,2260.305810012,2260.305810012,2260.305810012,2262.325554977,2262.325554977,2262.325554977,2262.325554977,,,,,,,,,,,,,,,,,,,,,,,,,,,,,,,,,,,,,,,10,005,2022-09-23_10h28.53.742,test2,2022.2.4,60.02247409486134,
0,0,0,0,132,0,132,0,2262.325554977,2262.325554977,2262.325554977,2262.325554977,2262.325554977,2262.325554977,2262.325554977,-1,-1,azul,1,['N_A'],2265.094634076,2265.094634076,2265.094634076,2265.094634076,2267.113530494,2267.113530494,2267.113530494,2267.113530494,2267.113530494,2267.113530494,2267.113530494,2267.113530494,2269.132382593,2269.132382593,2269.132382593,2269.132382593,,,,,,,,,,,,,,,,,,,,,,,,,,,,,,,,,,,,,,,10,005,2022-09-23_10h28.53.742,test2,2022.2.4,60.02247409486134,
0,0,0,0,133,0,133,0,2269.132382593,2269.132382593,2269.132382593,2269.132382593,2269.132382593,2269.132382593,2269.132382593,1,1,rojo,1,['N_A'],2271.067575089,2271.067575089,2271.067575089,2271.067575089,2273.086795556,2273.086795556,2273.086795556,2273.086795556,2273.086795556,2273.086795556,2273.086795556,2273.086795556,2275.105323046,2275.105323046,2275.105323046,2275.105323046,,,,,,,,,,,,,,,,,,,,,,,,,,,,,,,,,,,,,,,10,005,2022-09-23_10h28.53.742,test2,2022.2.4,60.02247409486134,
0,0,0,0,134,0,134,0,2275.105323046,2275.105323046,2275.105323046,2275.105323046,2275.105323046,2275.105323046,2275.105323046,-1,-1,azul,1,['N_A'],2277.174995459,2277.174995459,2277.174995459,2277.174995459,2279.211550648,2279.211550648,2279.211550648,2279.211550648,2279.211550648,2279.211550648,2279.211550648,2279.211550648,2281.228888162,2281.228888162,2281.228888162,2281.228888162,,,,,,,,,,,,,,,,,,,,,,,,,,,,,,,,,,,,,,,10,005,2022-09-23_10h28.53.742,test2,2022.2.4,60.02247409486134,
0,0,0,0,135,0,135,0,2281.228888162,2281.228888162,2281.228888162,2281.228888162,2281.228888162,2281.228888162,2281.228888162,1,-1,rojo,1,['N_A'],2282.981959928,2282.981959928,2282.981959928,2282.981959928,2285.017042891,2285.017042891,2285.017042891,2285.017042891,2285.017042891,2285.017042891,2285.017042891,2285.017042891,2287.035164233,2287.035164233,2287.035164233,2287.035164233,,,,,,,,,,,,,,,,,,,,,,,,,,,,,,,,,,,,,,,10,005,2022-09-23_10h28.53.742,test2,2022.2.4,60.02247409486134,
0,0,0,0,136,0,136,0,2287.035164233,2287.035164233,2287.035164233,2287.035164233,2287.035164233,2287.035164233,2287.035164233,1,-1,rojo,1,['N_A'],2288.887301925,2288.887301925,2288.887301925,2288.887301925,2290.906040251,2290.906040251,2290.906040251,2290.906040251,2290.906040251,2290.906040251,2290.906040251,2290.906040251,2292.925253297,2292.925253297,2292.925253297,2292.925253297,,,,,,,,,,,,,,,,,,,,,,,,,,,,,,,,,,,,,,,10,005,2022-09-23_10h28.53.742,test2,2022.2.4,60.02247409486134,
0,0,0,0,137,0,137,0,2292.925253297,2292.925253297,2292.925253297,2292.925253297,2292.925253297,2292.925253297,2292.925253297,-1,1,azul,1,['N_A'],2294.577374686,2294.577374686,2294.577374686,2294.577374686,2296.597483398,2296.597483398,2296.597483398,2296.597483398,2296.597483398,2296.597483398,2296.597483398,2296.597483398,2298.614870916,2298.614870916,2298.614870916,2298.614870916,,,,,,,,,,,,,,,,,,,,,,,,,,,,,,,,,,,,,,,10,005,2022-09-23_10h28.53.742,test2,2022.2.4,60.02247409486134,
0,0,0,0,138,0,138,0,2298.614870916,2298.614870916,2298.614870916,2298.614870916,2298.614870916,2298.614870916,2298.614870916,-1,1,azul,1,['N_A'],2300.600225565,2300.600225565,2300.600225565,2300.600225565,2302.620835821,2302.620835821,2302.620835821,2302.620835821,2302.620835821,2302.620835821,2302.620835821,2302.620835821,2304.639019663,2304.639019663,2304.639019663,2304.639019663,,,,,,,,,,,,,,,,,,,,,,,,,,,,,,,,,,,,,,,10,005,2022-09-23_10h28.53.742,test2,2022.2.4,60.02247409486134,
0,0,0,0,139,0,139,0,2304.639019663,2304.639019663,2304.639019663,2304.639019663,2304.639019663,2304.639019663,2304.639019663,1,1,rojo,1,['N_A'],2306.440629575,2306.440629575,2306.440629575,2306.440629575,2308.460144127,2308.460144127,2308.460144127,2308.460144127,2308.460144127,2308.460144127,2308.460144127,2308.460144127,2310.477798882,2310.477798882,2310.477798882,2310.477798882,,,,,,,,,,,,,,,,,,,,,,,,,,,,,,,,,,,,,,,10,005,2022-09-23_10h28.53.742,test2,2022.2.4,60.02247409486134,
0,0,0,0,140,0,140,0,2310.477798882,2310.477798882,2310.477798882,2310.477798882,2310.477798882,2310.477798882,2310.477798882,-1,-1,azul,1,['N_A'],2312.230862804,2312.230862804,2312.230862804,2312.230862804,2314.26605684,2314.26605684,2314.26605684,2314.26605684,2314.26605684,2314.26605684,2314.26605684,2314.26605684,2316.2841735340003,2316.2841735340003,2316.2841735340003,2316.2841735340003,,,,,,,,,,,,,,,,,,,,,,,,,,,,,,,,,,,,,,,10,005,2022-09-23_10h28.53.742,test2,2022.2.4,60.02247409486134,
0,0,0,0,141,0,141,0,2316.2841735340003,2316.2841735340003,2316.2841735340003,2316.2841735340003,2316.2841735340003,2316.2841735340003,2316.2841735340003,1,-1,rojo,1,['N_A'],2318.221189962,2318.221189962,2318.221189962,2318.221189962,2320.240040949,2320.240040949,2320.240040949,2320.240040949,2320.240040949,2320.240040949,2320.240040949,2320.240040949,2322.257271174,2322.257271174,2322.257271174,2322.257271174,,,,,,,,,,,,,,,,,,,,,,,,,,,,,,,,,,,,,,,10,005,2022-09-23_10h28.53.742,test2,2022.2.4,60.02247409486134,
0,0,0,0,142,0,142,0,2322.257271174,2322.257271174,2322.257271174,2322.257271174,2322.257271174,2322.257271174,2322.257271174,-1,1,azul,1,['N_A'],2324.376671938,2324.376671938,2324.376671938,2324.376671938,2326.396220392,2326.396220392,2326.396220392,2326.396220392,2326.396220392,2326.396220392,2326.396220392,2326.396220392,2328.415315162,2328.415315162,2328.415315162,2328.415315162,,,,,,,,,,,,,,,,,,,,,,,,,,,,,,,,,,,,,,,10,005,2022-09-23_10h28.53.742,test2,2022.2.4,60.02247409486134,
0,0,0,0,143,0,143,0,2328.415315162,2328.415315162,2328.415315162,2328.415315162,2328.415315162,2328.415315162,2328.415315162,1,1,rojo,1,['N_A'],2330.167403577,2330.167403577,2330.167403577,2330.167403577,2332.1857474,2332.1857474,2332.1857474,2332.1857474,2332.1857474,2332.1857474,2332.1857474,2332.1857474,2334.204225541,2334.204225541,2334.204225541,2334.204225541,,,,,,,,,,,,,,,,,,,,,,,,,,,,,,,,,,,,,,,10,005,2022-09-23_10h28.53.742,test2,2022.2.4,60.02247409486134,
0,0,0,0,144,0,144,0,2334.204225541,2334.204225541,2334.204225541,2334.204225541,2334.204225541,2334.204225541,2334.204225541,-1,1,azul,1,['N_A'],2336.106496585,2336.106496585,2336.106496585,2336.106496585,2338.124928713,2338.124928713,2338.124928713,2338.124928713,2338.124928713,2338.124928713,2338.124928713,2338.124928713,2340.144479786,2340.144479786,2340.144479786,2340.144479786,,,,,,,,,,,,,,,,,,,,,,,,,,,,,,,,,,,,,,,10,005,2022-09-23_10h28.53.742,test2,2022.2.4,60.02247409486134,
0,0,0,0,145,0,145,0,2340.144479786,2340.144479786,2340.144479786,2340.144479786,2340.144479786,2340.144479786,2340.144479786,1,-1,rojo,1,['N_A'],2341.729313748,2341.729313748,2341.729313748,2341.729313748,2343.766227462,2343.766227462,2343.766227462,2343.766227462,2343.766227462,2343.766227462,2343.766227462,2343.766227462,2345.7850353950002,2345.7850353950002,2345.7850353950002,2345.7850353950002,,,,,,,,,,,,,,,,,,,,,,,,,,,,,,,,,,,,,,,10,005,2022-09-23_10h28.53.742,test2,2022.2.4,60.02247409486134,
0,0,0,0,146,0,146,0,2345.7850353950002,2345.7850353950002,2345.7850353950002,2345.7850353950002,2345.7850353950002,2345.7850353950002,2345.7850353950002,-1,-1,azul,1,['N_A'],2347.586458477,2347.586458477,2347.586458477,2347.586458477,2349.622394984,2349.622394984,2349.622394984,2349.622394984,2349.622394984,2349.622394984,2349.622394984,2349.622394984,2351.640282678,2351.640282678,2351.640282678,2351.640282678,,,,,,,,,,,,,,,,,,,,,,,,,,,,,,,,,,,,,,,10,005,2022-09-23_10h28.53.742,test2,2022.2.4,60.02247409486134,
0,0,0,0,147,0,147,0,2351.640282678,2351.640282678,2351.640282678,2351.640282678,2351.640282678,2351.640282678,2351.640282678,1,-1,rojo,1,['N_A'],2353.826179815,2353.826179815,2353.826179815,2353.826179815,2355.86250974,2355.86250974,2355.86250974,2355.86250974,2355.86250974,2355.86250974,2355.86250974,2355.86250974,2357.880166949,2357.880166949,2357.880166949,2357.880166949,,,,,,,,,,,,,,,,,,,,,,,,,,,,,,,,,,,,,,,10,005,2022-09-23_10h28.53.742,test2,2022.2.4,60.02247409486134,
0,0,0,0,148,0,148,0,2357.880166949,2357.880166949,2357.880166949,2357.880166949,2357.880166949,2357.880166949,2357.880166949,1,-1,rojo,1,['N_A'],2359.667124833,2359.667124833,2359.667124833,2359.667124833,2361.685275935,2361.685275935,2361.685275935,2361.685275935,2361.685275935,2361.685275935,2361.685275935,2361.685275935,2363.704005904,2363.704005904,2363.704005904,2363.704005904,,,,,,,,,,,,,,,,,,,,,,,,,,,,,,,,,,,,,,,10,005,2022-09-23_10h28.53.742,test2,2022.2.4,60.02247409486134,
0,0,0,0,149,0,149,0,2363.704005904,2363.704005904,2363.704005904,2363.704005904,2363.704005904,2363.704005904,2363.704005904,-1,1,azul,1,['N_A'],2365.421568442,2365.421568442,2365.421568442,2365.421568442,2367.440843574,2367.440843574,2367.440843574,2367.440843574,2367.440843574,2367.440843574,2367.440843574,2367.440843574,2369.460572424,2369.460572424,2369.460572424,2369.460572424,,,,,,,,,,,,,,,,,,,,,,,,,,,,,,,,,,,,,,,10,005,2022-09-23_10h28.53.742,test2,2022.2.4,60.02247409486134,
0,0,0,0,150,0,150,0,2369.460572424,2369.460572424,2369.460572424,2369.460572424,2369.460572424,2369.460572424,2369.460572424,1,-1,rojo,1,['N_A'],2371.145011948,2371.145011948,2371.145011948,2371.145011948,2373.165006793,2373.165006793,2373.165006793,2373.165006793,2373.165006793,2373.165006793,2373.165006793,2373.165006793,2375.184154762,2375.184154762,2375.184154762,2375.184154762,,,,,,,,,,,,,,,,,,,,,,,,,,,,,,,,,,,,,,,10,005,2022-09-23_10h28.53.742,test2,2022.2.4,60.02247409486134,
0,0,0,0,151,0,151,0,2375.184154762,2375.184154762,2375.184154762,2375.184154762,2375.184154762,2375.184154762,2375.184154762,-1,1,azul,1,['N_A'],2377.052978004,2377.052978004,2377.052978004,2377.052978004,2379.071068839,2379.071068839,2379.071068839,2379.071068839,2379.071068839,2379.071068839,2379.071068839,2379.071068839,2381.090392673,2381.090392673,2381.090392673,2381.090392673,,,,,,,,,,,,,,,,,,,,,,,,,,,,,,,,,,,,,,,10,005,2022-09-23_10h28.53.742,test2,2022.2.4,60.02247409486134,
0,0,0,0,152,0,152,0,2381.090392673,2381.090392673,2381.090392673,2381.090392673,2381.090392673,2381.090392673,2381.090392673,1,1,rojo,1,['N_A'],2382.758040214,2382.758040214,2382.758040214,2382.758040214,2384.778113335,2384.778113335,2384.778113335,2384.778113335,2384.778113335,2384.778113335,2384.778113335,2384.778113335,2386.795197016,2386.795197016,2386.795197016,2386.795197016,,,,,,,,,,,,,,,,,,,,,,,,,,,,,,,,,,,,,,,10,005,2022-09-23_10h28.53.742,test2,2022.2.4,60.02247409486134,
0,0,0,0,153,0,153,0,2386.795197016,2386.795197016,2386.795197016,2386.795197016,2386.795197016,2386.795197016,2386.795197016,-1,1,azul,1,['N_A'],2389.048258236,2389.048258236,2389.048258236,2389.048258236,2391.067702353,2391.067702353,2391.067702353,2391.067702353,2391.067702353,2391.067702353,2391.067702353,2391.067702353,2393.085525465,2393.085525465,2393.085525465,2393.085525465,,,,,,,,,,,,,,,,,,,,,,,,,,,,,,,,,,,,,,,10,005,2022-09-23_10h28.53.742,test2,2022.2.4,60.02247409486134,
0,0,0,0,154,0,154,0,2393.085525465,2393.085525465,2393.085525465,2393.085525465,2393.085525465,2393.085525465,2393.085525465,-1,1,azul,1,['N_A'],2394.921122144,2394.921122144,2394.921122144,2394.921122144,2396.940017886,2396.940017886,2396.940017886,2396.940017886,2396.940017886,2396.940017886,2396.940017886,2396.940017886,2398.958747782,2398.958747782,2398.958747782,2398.958747782,,,,,,,,,,,,,,,,,,,,,,,,,,,,,,,,,,,,,,,10,005,2022-09-23_10h28.53.742,test2,2022.2.4,60.02247409486134,
0,0,0,0,155,0,155,0,2398.958747782,2398.958747782,2398.958747782,2398.958747782,2398.958747782,2398.958747782,2398.958747782,1,-1,rojo,1,['N_A'],2400.760846775,2400.760846775,2400.760846775,2400.760846775,2402.797708444,2402.797708444,2402.797708444,2402.797708444,2402.797708444,2402.797708444,2402.797708444,2402.797708444,2404.816338391,2404.816338391,2404.816338391,2404.816338391,,,,,,,,,,,,,,,,,,,,,,,,,,,,,,,,,,,,,,,10,005,2022-09-23_10h28.53.742,test2,2022.2.4,60.02247409486134,
0,0,0,0,156,0,156,0,2404.816338391,2404.816338391,2404.816338391,2404.816338391,2404.816338391,2404.816338391,2404.816338391,1,-1,rojo,1,['N_A'],2407.068065121,2407.068065121,2407.068065121,2407.068065121,2409.087209803,2409.087209803,2409.087209803,2409.087209803,2409.087209803,2409.087209803,2409.087209803,2409.087209803,2411.105351736,2411.105351736,2411.105351736,2411.105351736,,,,,,,,,,,,,,,,,,,,,,,,,,,,,,,,,,,,,,,10,005,2022-09-23_10h28.53.742,test2,2022.2.4,60.02247409486134,
0,0,0,0,157,0,157,0,2411.105351736,2411.105351736,2411.105351736,2411.105351736,2411.105351736,2411.105351736,2411.105351736,-1,1,azul,1,['N_A'],2413.058068654,2413.058068654,2413.058068654,2413.058068654,2415.076784541,2415.076784541,2415.076784541,2415.076784541,2415.076784541,2415.076784541,2415.076784541,2415.076784541,2417.097126482,2417.097126482,2417.097126482,2417.097126482,,,,,,,,,,,,,,,,,,,,,,,,,,,,,,,,,,,,,,,10,005,2022-09-23_10h28.53.742,test2,2022.2.4,60.02247409486134,
0,0,0,0,158,0,158,0,2417.097126482,2417.097126482,2417.097126482,2417.097126482,2417.097126482,2417.097126482,2417.097126482,-1,-1,azul,1,['N_A'],2418.897649787,2418.897649787,2418.897649787,2418.897649787,2420.9163035310003,2420.9163035310003,2420.9163035310003,2420.9163035310003,2420.9163035310003,2420.9163035310003,2420.9163035310003,2420.9163035310003,2422.93626061,2422.93626061,2422.93626061,2422.93626061,,,,,,,,,,,,,,,,,,,,,,,,,,,,,,,,,,,,,,,10,005,2022-09-23_10h28.53.742,test2,2022.2.4,60.02247409486134,
0,0,0,0,159,0,159,0,2422.93626061,2422.93626061,2422.93626061,2422.93626061,2422.93626061,2422.93626061,2422.93626061,1,1,rojo,1,['N_A'],2425.121935553,2425.121935553,2425.121935553,2425.121935553,2427.140453676,2427.140453676,2427.140453676,2427.140453676,2427.140453676,2427.140453676,2427.140453676,2427.140453676,2429.159907661,2429.159907661,2429.159907661,2429.159907661,,,,,,,,,,,,,,,,,,,,,,,,,,,,,,,,,,,,,,,10,005,2022-09-23_10h28.53.742,test2,2022.2.4,60.02247409486134,
0,0,0,0,160,0,160,0,2429.159907661,2429.159907661,2429.159907661,2429.159907661,2429.159907661,2429.159907661,2429.159907661,-1,-1,azul,1,['N_A'],2431.044632897,2431.044632897,2431.044632897,2431.044632897,2433.080546035,2433.080546035,2433.080546035,2433.080546035,2433.080546035,2433.080546035,2433.080546035,2433.080546035,2435.098990082,2435.098990082,2435.098990082,2435.098990082,,,,,,,,,,,,,,,,,,,,,,,,,,,,,,,,,,,,,,,10,005,2022-09-23_10h28.53.742,test2,2022.2.4,60.02247409486134,
0,0,0,0,161,0,161,0,2435.098990082,2435.098990082,2435.098990082,2435.098990082,2435.098990082,2435.098990082,2435.098990082,1,-1,rojo,1,['N_A'],2437.85232642,2437.85232642,2437.85232642,2437.85232642,2439.888056115,2439.888056115,2439.888056115,2439.888056115,2439.888056115,2439.888056115,2439.888056115,2439.888056115,2441.905975003,2441.905975003,2441.905975003,2441.905975003,,,,,,,,,,,,,,,,,,,,,,,,,,,,,,,,,,,,,,,10,005,2022-09-23_10h28.53.742,test2,2022.2.4,60.02247409486134,
0,0,0,0,162,0,162,0,2441.905975003,2441.905975003,2441.905975003,2441.905975003,2441.905975003,2441.905975003,2441.905975003,1,-1,rojo,1,['N_A'],2443.625732286,2443.625732286,2443.625732286,2443.625732286,2445.661607044,2445.661607044,2445.661607044,2445.661607044,2445.661607044,2445.661607044,2445.661607044,2445.661607044,2447.679561129,2447.679561129,2447.679561129,2447.679561129,,,,,,,,,,,,,,,,,,,,,,,,,,,,,,,,,,,,,,,10,005,2022-09-23_10h28.53.742,test2,2022.2.4,60.02247409486134,
0,0,0,0,163,0,163,0,2447.679561129,2447.679561129,2447.679561129,2447.679561129,2447.679561129,2447.679561129,2447.679561129,1,-1,rojo,1,['N_A'],2449.397737481,2449.397737481,2449.397737481,2449.397737481,2451.416615726,2451.416615726,2451.416615726,2451.416615726,2451.416615726,2451.416615726,2451.416615726,2451.416615726,2453.435714523,2453.435714523,2453.435714523,2453.435714523,,,,,,,,,,,,,,,,,,,,,,,,,,,,,,,,,,,,,,,10,005,2022-09-23_10h28.53.742,test2,2022.2.4,60.02247409486134,
0,0,0,0,164,0,164,0,2453.435714523,2453.435714523,2453.435714523,2453.435714523,2453.435714523,2453.435714523,2453.435714523,-1,1,azul,1,['N_A'],2455.1211660550002,2455.1211660550002,2455.1211660550002,2455.1211660550002,2457.140508612,2457.140508612,2457.140508612,2457.140508612,2457.140508612,2457.140508612,2457.140508612,2457.140508612,2459.1584272180003,2459.1584272180003,2459.1584272180003,2459.1584272180003,,,,,,,,,,,,,,,,,,,,,,,,,,,,,,,,,,,,,,,10,005,2022-09-23_10h28.53.742,test2,2022.2.4,60.02247409486134,
0,0,0,0,165,0,165,0,2459.1584272180003,2459.1584272180003,2459.1584272180003,2459.1584272180003,2459.1584272180003,2459.1584272180003,2459.1584272180003,1,-1,rojo,1,['N_A'],2460.894555655,2460.894555655,2460.894555655,2460.894555655,2462.912959927,2462.912959927,2462.912959927,2462.912959927,2462.912959927,2462.912959927,2462.912959927,2462.912959927,2464.931669228,2464.931669228,2464.931669228,2464.931669228,,,,,,,,,,,,,,,,,,,,,,,,,,,,,,,,,,,,,,,10,005,2022-09-23_10h28.53.742,test2,2022.2.4,60.02247409486134,
0,0,0,0,166,0,166,0,2464.931669228,2464.931669228,2464.931669228,2464.931669228,2464.931669228,2464.931669228,2464.931669228,1,1,rojo,1,['N_A'],2466.584055708,2466.584055708,2466.584055708,2466.584055708,2468.603136757,2468.603136757,2468.603136757,2468.603136757,2468.603136757,2468.603136757,2468.603136757,2468.603136757,2470.62119576,2470.62119576,2470.62119576,2470.62119576,,,,,,,,,,,,,,,,,,,,,,,,,,,,,,,,,,,,,,,10,005,2022-09-23_10h28.53.742,test2,2022.2.4,60.02247409486134,
0,0,0,0,167,0,167,0,2470.62119576,2470.62119576,2470.62119576,2470.62119576,2470.62119576,2470.62119576,2470.62119576,-1,1,azul,1,['N_A'],2472.106462152,2472.106462152,2472.106462152,2472.106462152,2474.1258122130002,2474.1258122130002,2474.1258122130002,2474.1258122130002,2474.1258122130002,2474.1258122130002,2474.1258122130002,2474.1258122130002,2476.144968464,2476.144968464,2476.144968464,2476.144968464,,,,,,,,,,,,,,,,,,,,,,,,,,,,,,,,,,,,,,,10,005,2022-09-23_10h28.53.742,test2,2022.2.4,60.02247409486134,
0,0,0,0,168,0,168,0,2476.144968464,2476.144968464,2476.144968464,2476.144968464,2476.144968464,2476.144968464,2476.144968464,1,1,rojo,1,['N_A'],2477.845910992,2477.845910992,2477.845910992,2477.845910992,2479.865468062,2479.865468062,2479.865468062,2479.865468062,2479.865468062,2479.865468062,2479.865468062,2479.865468062,2481.88373239,2481.88373239,2481.88373239,2481.88373239,,,,,,,,,,,,,,,,,,,,,,,,,,,,,,,,,,,,,,,10,005,2022-09-23_10h28.53.742,test2,2022.2.4,60.02247409486134,
0,0,0,0,169,0,169,0,2481.88373239,2481.88373239,2481.88373239,2481.88373239,2481.88373239,2481.88373239,2481.88373239,1,-1,rojo,1,['N_A'],2483.787049705,2483.787049705,2483.787049705,2483.787049705,2485.805360645,2485.805360645,2485.805360645,2485.805360645,2485.805360645,2485.805360645,2485.805360645,2485.805360645,2487.823529462,2487.823529462,2487.823529462,2487.823529462,,,,,,,,,,,,,,,,,,,,,,,,,,,,,,,,,,,,,,,10,005,2022-09-23_10h28.53.742,test2,2022.2.4,60.02247409486134,
0,0,0,0,170,0,170,0,2487.823529462,2487.823529462,2487.823529462,2487.823529462,2487.823529462,2487.823529462,2487.823529462,-1,1,azul,1,['N_A'],2489.376090792,2489.376090792,2489.376090792,2489.376090792,2491.394080305,2491.394080305,2491.394080305,2491.394080305,2491.394080305,2491.394080305,2491.394080305,2491.394080305,2493.413224879,2493.413224879,2493.413224879,2493.413224879,,,,,,,,,,,,,,,,,,,,,,,,,,,,,,,,,,,,,,,10,005,2022-09-23_10h28.53.742,test2,2022.2.4,60.02247409486134,
0,0,0,0,171,0,171,0,2493.413224879,2493.413224879,2493.413224879,2493.413224879,2493.413224879,2493.413224879,2493.413224879,1,-1,rojo,1,['N_A'],2495.1487000380002,2495.1487000380002,2495.1487000380002,2495.1487000380002,2497.184626368,2497.184626368,2497.184626368,2497.184626368,2497.184626368,2497.184626368,2497.184626368,2497.184626368,2499.202811666,2499.202811666,2499.202811666,2499.202811666,,,,,,,,,,,,,,,,,,,,,,,,,,,,,,,,,,,,,,,10,005,2022-09-23_10h28.53.742,test2,2022.2.4,60.02247409486134,
0,0,0,0,172,0,172,0,2499.202811666,2499.202811666,2499.202811666,2499.202811666,2499.202811666,2499.202811666,2499.202811666,1,-1,rojo,1,['N_A'],2500.955952241,2500.955952241,2500.955952241,2500.955952241,2502.9740822940003,2502.9740822940003,2502.9740822940003,2502.9740822940003,2502.9740822940003,2502.9740822940003,2502.9740822940003,2502.9740822940003,2504.9926369590003,2504.9926369590003,2504.9926369590003,2504.9926369590003,,,,,,,,,,,,,,,,,,,,,,,,,,,,,,,,,,,,,,,10,005,2022-09-23_10h28.53.742,test2,2022.2.4,60.02247409486134,
0,0,0,0,173,0,173,0,2504.9926369590003,2504.9926369590003,2504.9926369590003,2504.9926369590003,2504.9926369590003,2504.9926369590003,2504.9926369590003,1,1,rojo,1,['N_A'],2506.69479904,2506.69479904,2506.69479904,2506.69479904,2508.714037312,2508.714037312,2508.714037312,2508.714037312,2508.714037312,2508.714037312,2508.714037312,2508.714037312,2510.732100457,2510.732100457,2510.732100457,2510.732100457,,,,,,,,,,,,,,,,,,,,,,,,,,,,,,,,,,,,,,,10,005,2022-09-23_10h28.53.742,test2,2022.2.4,60.02247409486134,
0,0,0,0,174,0,174,0,2510.732100457,2510.732100457,2510.732100457,2510.732100457,2510.732100457,2510.732100457,2510.732100457,-1,1,azul,1,['N_A'],2512.684842027,2512.684842027,2512.684842027,2512.684842027,2514.703165891,2514.703165891,2514.703165891,2514.703165891,2514.703165891,2514.703165891,2514.703165891,2514.703165891,2516.722230633,2516.722230633,2516.722230633,2516.722230633,,,,,,,,,,,,,,,,,,,,,,,,,,,,,,,,,,,,,,,10,005,2022-09-23_10h28.53.742,test2,2022.2.4,60.02247409486134,
0,0,0,0,175,0,175,0,2516.722230633,2516.722230633,2516.722230633,2516.722230633,2516.722230633,2516.722230633,2516.722230633,1,-1,rojo,1,['N_A'],2518.457880993,2518.457880993,2518.457880993,2518.457880993,2520.494283223,2520.494283223,2520.494283223,2520.494283223,2520.494283223,2520.494283223,2520.494283223,2520.494283223,2522.511701461,2522.511701461,2522.511701461,2522.511701461,,,,,,,,,,,,,,,,,,,,,,,,,,,,,,,,,,,,,,,10,005,2022-09-23_10h28.53.742,test2,2022.2.4,60.02247409486134,
0,0,0,0,176,0,176,0,2522.511701461,2522.511701461,2522.511701461,2522.511701461,2522.511701461,2522.511701461,2522.511701461,1,-1,rojo,1,['N_A'],2524.147989171,2524.147989171,2524.147989171,2524.147989171,2526.183666798,2526.183666798,2526.183666798,2526.183666798,2526.183666798,2526.183666798,2526.183666798,2526.183666798,2528.201294774,2528.201294774,2528.201294774,2528.201294774,,,,,,,,,,,,,,,,,,,,,,,,,,,,,,,,,,,,,,,10,005,2022-09-23_10h28.53.742,test2,2022.2.4,60.02247409486134,
0,0,0,0,177,0,177,0,2528.201294774,2528.201294774,2528.201294774,2528.201294774,2528.201294774,2528.201294774,2528.201294774,1,-1,rojo,1,['N_A'],2530.387071766,2530.387071766,2530.387071766,2530.387071766,2532.406867509,2532.406867509,2532.406867509,2532.406867509,2532.406867509,2532.406867509,2532.406867509,2532.406867509,2534.42586735,2534.42586735,2534.42586735,2534.42586735,,,,,,,,,,,,,,,,,,,,,,,,,,,,,,,,,,,,,,,10,005,2022-09-23_10h28.53.742,test2,2022.2.4,60.02247409486134,
0,0,0,0,178,0,178,0,2534.42586735,2534.42586735,2534.42586735,2534.42586735,2534.42586735,2534.42586735,2534.42586735,-1,1,azul,1,['N_A'],2536.077493503,2536.077493503,2536.077493503,2536.077493503,2538.095874518,2538.095874518,2538.095874518,2538.095874518,2538.095874518,2538.095874518,2538.095874518,2538.095874518,2540.114314539,2540.114314539,2540.114314539,2540.114314539,,,,,,,,,,,,,,,,,,,,,,,,,,,,,,,,,,,,,,,10,005,2022-09-23_10h28.53.742,test2,2022.2.4,60.02247409486134,
0,0,0,0,179,0,179,0,2540.114314539,2540.114314539,2540.114314539,2540.114314539,2540.114314539,2540.114314539,2540.114314539,-1,-1,azul,1,['N_A'],2541.766804593,2541.766804593,2541.766804593,2541.766804593,2543.80330923,2543.80330923,2543.80330923,2543.80330923,2543.80330923,2543.80330923,2543.80330923,2543.80330923,2545.821328384,2545.821328384,2545.821328384,2545.821328384,,,,,,,,,,,,,,,,,,,,,,,,,,,,,,,,,,,,,,,10,005,2022-09-23_10h28.53.742,test2,2022.2.4,60.02247409486134,
0,0,0,0,180,0,180,0,2545.821328384,2545.821328384,2545.821328384,2545.821328384,2545.821328384,2545.821328384,2545.821328384,1,-1,rojo,1,['N_A'],2547.489407606,2547.489407606,2547.489407606,2547.489407606,2549.526335177,2549.526335177,2549.526335177,2549.526335177,2549.526335177,2549.526335177,2549.526335177,2549.526335177,2551.543797996,2551.543797996,2551.543797996,2551.543797996,,,,,,,,,,,,,,,,,,,,,,,,,,,,,,,,,,,,,,,10,005,2022-09-23_10h28.53.742,test2,2022.2.4,60.02247409486134,
0,0,0,0,181,0,181,0,2551.543797996,2551.543797996,2551.543797996,2551.543797996,2551.543797996,2551.543797996,2551.543797996,-1,-1,azul,1,['N_A'],2553.279176345,2553.279176345,2553.279176345,2553.279176345,2555.298539548,2555.298539548,2555.298539548,2555.298539548,2555.298539548,2555.298539548,2555.298539548,2555.298539548,2557.317303271,2557.317303271,2557.317303271,2557.317303271,,,,,,,,,,,,,,,,,,,,,,,,,,,,,,,,,,,,,,,10,005,2022-09-23_10h28.53.742,test2,2022.2.4,60.02247409486134,
0,0,0,0,182,0,182,0,2557.317303271,2557.317303271,2557.317303271,2557.317303271,2557.317303271,2557.317303271,2557.317303271,-1,1,azul,1,['N_A'],2558.97056201,2558.97056201,2558.97056201,2558.97056201,2560.988294939,2560.988294939,2560.988294939,2560.988294939,2560.988294939,2560.988294939,2560.988294939,2560.988294939,2563.00643349,2563.00643349,2563.00643349,2563.00643349,,,,,,,,,,,,,,,,,,,,,,,,,,,,,,,,,,,,,,,10,005,2022-09-23_10h28.53.742,test2,2022.2.4,60.02247409486134,
0,0,0,0,183,0,183,0,2563.00643349,2563.00643349,2563.00643349,2563.00643349,2563.00643349,2563.00643349,2563.00643349,-1,1,azul,1,['N_A'],2564.691693309,2564.691693309,2564.691693309,2564.691693309,2566.7110319470003,2566.7110319470003,2566.7110319470003,2566.7110319470003,2566.7110319470003,2566.7110319470003,2566.7110319470003,2566.7110319470003,2568.729582362,2568.729582362,2568.729582362,2568.729582362,,,,,,,,,,,,,,,,,,,,,,,,,,,,,,,,,,,,,,,10,005,2022-09-23_10h28.53.742,test2,2022.2.4,60.02247409486134,
0,0,0,0,184,0,184,0,2568.729582362,2568.729582362,2568.729582362,2568.729582362,2568.729582362,2568.729582362,2568.729582362,-1,-1,azul,0,['N_B'],2574.403786269,2574.403786269,2574.403786269,2574.403786269,2576.439819414,2576.439819414,2576.439819414,2576.439819414,2576.439819414,2576.439819414,2576.439819414,2576.439819414,2578.456882643,2578.456882643,2578.456882643,2578.456882643,,,,,,,,,,,,,,,,,,,,,,,,,,,,,,,,,,,,,,,10,005,2022-09-23_10h28.53.742,test2,2022.2.4,60.02247409486134,
0,0,0,0,185,0,185,0,2578.456882643,2578.456882643,2578.456882643,2578.456882643,2578.456882643,2578.456882643,2578.456882643,-1,-1,rojo,1,['N_B'],2580.0267527690003,2580.0267527690003,2580.0267527690003,2580.0267527690003,2582.043930976,2582.043930976,2582.043930976,2582.043930976,2582.043930976,2582.043930976,2582.043930976,2582.043930976,2584.063219702,2584.063219702,2584.063219702,2584.063219702,,,,,,,,,,,,,,,,,,,,,,,,,,,,,,,,,,,,,,,10,005,2022-09-23_10h28.53.742,test2,2022.2.4,60.02247409486134,
0,0,0,0,186,0,186,0,2584.063219702,2584.063219702,2584.063219702,2584.063219702,2584.063219702,2584.063219702,2584.063219702,1,1,azul,1,['N_B'],2585.698257039,2585.698257039,2585.698257039,2585.698257039,2587.717387197,2587.717387197,2587.717387197,2587.717387197,2587.717387197,2587.717387197,2587.717387197,2587.717387197,2589.735968287,2589.735968287,2589.735968287,2589.735968287,,,,,,,,,,,,,,,,,,,,,,,,,,,,,,,,,,,,,,,10,005,2022-09-23_10h28.53.742,test2,2022.2.4,60.02247409486134,
0,0,0,0,187,0,187,0,2589.735968287,2589.735968287,2589.735968287,2589.735968287,2589.735968287,2589.735968287,2589.735968287,-1,-1,rojo,1,['N_B'],2591.321832966,2591.321832966,2591.321832966,2591.321832966,2593.340275421,2593.340275421,2593.340275421,2593.340275421,2593.340275421,2593.340275421,2593.340275421,2593.340275421,2595.359075619,2595.359075619,2595.359075619,2595.359075619,,,,,,,,,,,,,,,,,,,,,,,,,,,,,,,,,,,,,,,10,005,2022-09-23_10h28.53.742,test2,2022.2.4,60.02247409486134,
0,0,0,0,188,0,188,0,2595.359075619,2595.359075619,2595.359075619,2595.359075619,2595.359075619,2595.359075619,2595.359075619,1,1,azul,1,['N_B'],2597.043882685,2597.043882685,2597.043882685,2597.043882685,2599.063418376,2599.063418376,2599.063418376,2599.063418376,2599.063418376,2599.063418376,2599.063418376,2599.063418376,2601.0831617,2601.0831617,2601.0831617,2601.0831617,,,,,,,,,,,,,,,,,,,,,,,,,,,,,,,,,,,,,,,10,005,2022-09-23_10h28.53.742,test2,2022.2.4,60.02247409486134,
0,0,0,0,189,0,189,0,2601.0831617,2601.0831617,2601.0831617,2601.0831617,2601.0831617,2601.0831617,2601.0831617,-1,-1,rojo,0,['N_A'],2602.633357367,2602.633357367,2602.633357367,2602.633357367,2604.670436035,2604.670436035,2604.670436035,2604.670436035,2604.670436035,2604.670436035,2604.670436035,2604.670436035,2606.689223514,2606.689223514,2606.689223514,2606.689223514,,,,,,,,,,,,,,,,,,,,,,,,,,,,,,,,,,,,,,,10,005,2022-09-23_10h28.53.742,test2,2022.2.4,60.02247409486134,
0,0,0,0,190,0,190,0,2606.689223514,2606.689223514,2606.689223514,2606.689223514,2606.689223514,2606.689223514,2606.689223514,-1,-1,azul,1,['N_A'],2608.272920603,2608.272920603,2608.272920603,2608.272920603,2610.3097585230003,2610.3097585230003,2610.3097585230003,2610.3097585230003,2610.3097585230003,2610.3097585230003,2610.3097585230003,2610.3097585230003,2612.327943726,2612.327943726,2612.327943726,2612.327943726,,,,,,,,,,,,,,,,,,,,,,,,,,,,,,,,,,,,,,,10,005,2022-09-23_10h28.53.742,test2,2022.2.4,60.02247409486134,
0,0,0,0,191,0,191,0,2612.327943726,2612.327943726,2612.327943726,2612.327943726,2612.327943726,2612.327943726,2612.327943726,1,-1,rojo,1,['N_A'],2614.012764983,2614.012764983,2614.012764983,2614.012764983,2616.049213662,2616.049213662,2616.049213662,2616.049213662,2616.049213662,2616.049213662,2616.049213662,2616.049213662,2618.0672089140003,2618.0672089140003,2618.0672089140003,2618.0672089140003,,,,,,,,,,,,,,,,,,,,,,,,,,,,,,,,,,,,,,,10,005,2022-09-23_10h28.53.742,test2,2022.2.4,60.02247409486134,
0,0,0,0,192,0,192,0,2618.0672089140003,2618.0672089140003,2618.0672089140003,2618.0672089140003,2618.0672089140003,2618.0672089140003,2618.0672089140003,1,-1,rojo,0,['N_B'],2619.568703708,2619.568703708,2619.568703708,2619.568703708,2621.605075069,2621.605075069,2621.605075069,2621.605075069,2621.605075069,2621.605075069,2621.605075069,2621.605075069,2623.623373305,2623.623373305,2623.623373305,2623.623373305,,,,,,,,,,,,,,,,,,,,,,,,,,,,,,,,,,,,,,,10,005,2022-09-23_10h28.53.742,test2,2022.2.4,60.02247409486134,
