trials_2.thisRepN,trials_2.thisTrialN,trials_2.thisN,trials_2.thisIndex,trials.thisRepN,trials.thisTrialN,trials.thisN,trials.thisIndex,Stimuli_1.started,Stimuli_2.started,Instrucción.started,N_A.started,N_B.started,Exitos.started,Dias.started,mouse.started,mouse.x,mouse.y,mouse.leftButton,mouse.midButton,mouse.rightButton,mouse.time,mouse.clicked_name,Transitions,Rewards,Mode,Stay,Neighbour,mouse_3.x,mouse_3.y,mouse_3.leftButton,mouse_3.midButton,mouse_3.rightButton,mouse_3.time,mouse_3.clicked_name,Stimuli_3.started,Exitos2.started,Modo.started,Dias2.started,Stimuli_3.stopped,Exitos2.stopped,Modo.stopped,Dias2.stopped,Reward.started,Stimuli_reward.started,Exitos3.started,Dias3.started,Reward.stopped,Stimuli_reward.stopped,Exitos3.stopped,Dias3.stopped,Cue_text.started,Stimuli_4.started,Exitos4.started,Dias4.started,Stimuli_3_3.started,Stimuli_2_3.started,Instrucción_2.started,N_C_3.started,N_B_3.started,N_A_3.started,Exitos_2.started,Dias_2.started,mouse_3.started,Stimuli_1_3.started,Stimuli_3_2.started,Stimuli_2_2.started,Pregunta.started,N_A_2.started,N_B_2.started,N_C_2.started,Exitos5.started,Dias5.started,Stimuli_1_2.started,Resp_final_1,Modo2.started,Modo1.started,Pregunta_2.started,Exitos7.started,Dias6.started,Modo3.started,Resp_final_2,Modo1_2.started,Pregunta_3.started,Exitos8.started,Dias7.started,Modo2_2.started,Resp_final_3,Exitos6.started,Mensaje_Final.started,participant,session,date,expName,psychopyVersion,frameRate,
0,0,0,0,0,0,0,0,959.1395750659999,959.1395750659999,959.1395750659999,959.1395750659999,959.1395750659999,959.1395750659999,959.1395750659999,0.030373057999895536,[],[],[],[],[],[],[],0,0,0,0,['N_A'],[],[],[],[],[],[],[],965.7114361869999,965.7114361869999,965.7114361869999,965.7114361869999,967.7817583789999,967.7817583789999,967.7817583789999,967.7817583789999,967.7817583789999,967.7817583789999,967.7817583789999,967.7817583789999,969.799562981,969.799562981,969.799562981,969.799562981,,,,,,,,,,,,,,,,,,,,,,,,,,,,,,,,,,,,,,,,10,002,2022-09-20_17h14.24.483,test2,2022.2.4,59.85969832494069,
0,0,0,0,1,0,1,0,969.799562981,969.799562981,969.799562981,969.799562981,969.799562981,969.799562981,969.799562981,0.01805429199998798,[],[],[],[],[],[],[],1,-1,rojo,0,['N_B'],[],[],[],[],[],[],[],972.136021995,972.136021995,972.136021995,972.136021995,974.1718164910001,974.1718164910001,974.1718164910001,974.1718164910001,974.1718164910001,974.1718164910001,974.1718164910001,974.1718164910001,976.190023135,976.190023135,976.190023135,976.190023135,,,,,,,,,,,,,,,,,,,,,,,,,,,,,,,,,,,,,,,,10,002,2022-09-20_17h14.24.483,test2,2022.2.4,59.85969832494069,
0,0,0,0,2,0,2,0,976.190023135,976.190023135,976.190023135,976.190023135,976.190023135,976.190023135,976.190023135,0.01781214299990097,[],[],[],[],[],[],[],1,-1,azul,1,['N_B'],[],[],[],[],[],[],[],978.0939872209999,978.0939872209999,978.0939872209999,978.0939872209999,980.1275839109999,980.1275839109999,980.1275839109999,980.1275839109999,980.1275839109999,980.1275839109999,980.1275839109999,980.1275839109999,982.147330925,982.147330925,982.147330925,982.147330925,,,,,,,,,,,,,,,,,,,,,,,,,,,,,,,,,,,,,,,,10,002,2022-09-20_17h14.24.483,test2,2022.2.4,59.85969832494069,
0,0,0,0,3,0,3,0,982.147330925,982.147330925,982.147330925,982.147330925,982.147330925,982.147330925,982.147330925,0.017802330999984406,[],[],[],[],[],[],[],1,-1,azul,0,['N_A'],[],[],[],[],[],[],[],984.519215843,984.519215843,984.519215843,984.519215843,986.6038246779999,986.6038246779999,986.6038246779999,986.6038246779999,986.6038246779999,986.6038246779999,986.6038246779999,986.6038246779999,988.620758931,988.620758931,988.620758931,988.620758931,,,,,,,,,,,,,,,,,,,,,,,,,,,,,,,,,,,,,,,,10,002,2022-09-20_17h14.24.483,test2,2022.2.4,59.85969832494069,
0,0,0,0,4,0,4,0,988.620758931,988.620758931,988.620758931,988.620758931,988.620758931,988.620758931,988.620758931,0.017830312999876696,[],[],[],[],[],[],[],1,1,rojo,1,['N_A'],[],[],[],[],[],[],[],990.4912723769999,990.4912723769999,990.4912723769999,990.4912723769999,992.52500134,992.52500134,992.52500134,992.52500134,992.52500134,992.52500134,992.52500134,992.52500134,994.5439931619999,994.5439931619999,994.5439931619999,994.5439931619999,,,,,,,,,,,,,,,,,,,,,,,,,,,,,,,,,,,,,,,,10,002,2022-09-20_17h14.24.483,test2,2022.2.4,59.85969832494069,
0,0,0,0,5,0,5,0,994.5439931619999,994.5439931619999,994.5439931619999,994.5439931619999,994.5439931619999,994.5439931619999,994.5439931619999,0.017782330000045476,[],[],[],[],[],[],[],1,-1,rojo,1,['N_A'],[],[],[],[],[],[],[],997.0983396209999,997.0983396209999,997.0983396209999,997.0983396209999,999.1326903669999,999.1326903669999,999.1326903669999,999.1326903669999,999.1326903669999,999.1326903669999,999.1326903669999,999.1326903669999,1001.1508726519999,1001.1508726519999,1001.1508726519999,1001.1508726519999,,,,,,,,,,,,,,,,,,,,,,,,,,,,,,,,,,,,,,,,10,002,2022-09-20_17h14.24.483,test2,2022.2.4,59.85969832494069,
0,0,0,0,6,0,6,0,1001.1508726519999,1001.1508726519999,1001.1508726519999,1001.1508726519999,1001.1508726519999,1001.1508726519999,1001.1508726519999,0.01751680600000327,[],[],[],[],[],[],[],1,-1,rojo,1,['N_A'],[],[],[],[],[],[],[],1003.004353838,1003.004353838,1003.004353838,1003.004353838,1005.038626692,1005.038626692,1005.038626692,1005.038626692,1005.038626692,1005.038626692,1005.038626692,1005.038626692,1007.0571942689999,1007.0571942689999,1007.0571942689999,1007.0571942689999,,,,,,,,,,,,,,,,,,,,,,,,,,,,,,,,,,,,,,,,10,002,2022-09-20_17h14.24.483,test2,2022.2.4,59.85969832494069,
0,0,0,0,7,0,7,0,1007.0571942689999,1007.0571942689999,1007.0571942689999,1007.0571942689999,1007.0571942689999,1007.0571942689999,1007.0571942689999,0.017657385999882536,[],[],[],[],[],[],[],1,-1,rojo,0,['N_B'],[],[],[],[],[],[],[],1008.4935140709999,1008.4935140709999,1008.4935140709999,1008.4935140709999,1010.5291930149999,1010.5291930149999,1010.5291930149999,1010.5291930149999,1010.5291930149999,1010.5291930149999,1010.5291930149999,1010.5291930149999,1012.546937371,1012.546937371,1012.546937371,1012.546937371,,,,,,,,,,,,,,,,,,,,,,,,,,,,,,,,,,,,,,,,10,002,2022-09-20_17h14.24.483,test2,2022.2.4,59.85969832494069,
0,0,0,0,8,0,8,0,1012.546937371,1012.546937371,1012.546937371,1012.546937371,1012.546937371,1012.546937371,1012.546937371,0.017819861999896602,[],[],[],[],[],[],[],1,1,azul,1,['N_B'],[],[],[],[],[],[],[],1014.033267308,1014.033267308,1014.033267308,1014.033267308,1016.068130421,1016.068130421,1016.068130421,1016.068130421,1016.068130421,1016.068130421,1016.068130421,1016.068130421,1018.0866317499999,1018.0866317499999,1018.0866317499999,1018.0866317499999,,,,,,,,,,,,,,,,,,,,,,,,,,,,,,,,,,,,,,,,10,002,2022-09-20_17h14.24.483,test2,2022.2.4,59.85969832494069,
0,0,0,0,9,0,9,0,1018.0866317499999,1018.0866317499999,1018.0866317499999,1018.0866317499999,1018.0866317499999,1018.0866317499999,1018.0866317499999,0.016508616999999504,[],[],[],[],[],[],[],1,1,azul,1,['N_B'],[],[],[],[],[],[],[],1019.6900941409999,1019.6900941409999,1019.6900941409999,1019.6900941409999,1021.725188446,1021.725188446,1021.725188446,1021.725188446,1021.725188446,1021.725188446,1021.725188446,1021.725188446,1023.7432326599999,1023.7432326599999,1023.7432326599999,1023.7432326599999,,,,,,,,,,,,,,,,,,,,,,,,,,,,,,,,,,,,,,,,10,002,2022-09-20_17h14.24.483,test2,2022.2.4,59.85969832494069,
0,0,0,0,10,0,10,0,1023.7432326599999,1023.7432326599999,1023.7432326599999,1023.7432326599999,1023.7432326599999,1023.7432326599999,1023.7432326599999,0.016825413999868033,[],[],[],[],[],[],[],1,-1,azul,0,['N_A'],[],[],[],[],[],[],[],1026.0813662599999,1026.0813662599999,1026.0813662599999,1026.0813662599999,1028.1145527009999,1028.1145527009999,1028.1145527009999,1028.1145527009999,1028.1145527009999,1028.1145527009999,1028.1145527009999,1028.1145527009999,1030.133777777,1030.133777777,1030.133777777,1030.133777777,,,,,,,,,,,,,,,,,,,,,,,,,,,,,,,,,,,,,,,,10,002,2022-09-20_17h14.24.483,test2,2022.2.4,59.85969832494069,
0,0,0,0,11,0,11,0,1030.133777777,1030.133777777,1030.133777777,1030.133777777,1030.133777777,1030.133777777,1030.133777777,0.016553117000057682,[],[],[],[],[],[],[],-1,1,azul,1,['N_A'],[],[],[],[],[],[],[],1031.968887741,1031.968887741,1031.968887741,1031.968887741,1034.00436809,1034.00436809,1034.00436809,1034.00436809,1034.00436809,1034.00436809,1034.00436809,1034.00436809,1036.023351311,1036.023351311,1036.023351311,1036.023351311,,,,,,,,,,,,,,,,,,,,,,,,,,,,,,,,,,,,,,,,10,002,2022-09-20_17h14.24.483,test2,2022.2.4,59.85969832494069,
0,0,0,0,12,0,12,0,1036.023351311,1036.023351311,1036.023351311,1036.023351311,1036.023351311,1036.023351311,1036.023351311,0.01694668699997237,[],[],[],[],[],[],[],1,1,rojo,1,['N_A'],[],[],[],[],[],[],[],1037.760361261,1037.760361261,1037.760361261,1037.760361261,1039.794504253,1039.794504253,1039.794504253,1039.794504253,1039.794504253,1039.794504253,1039.794504253,1039.794504253,1041.812825709,1041.812825709,1041.812825709,1041.812825709,,,,,,,,,,,,,,,,,,,,,,,,,,,,,,,,,,,,,,,,10,002,2022-09-20_17h14.24.483,test2,2022.2.4,59.85969832494069,
0,0,0,0,13,0,13,0,1041.812825709,1041.812825709,1041.812825709,1041.812825709,1041.812825709,1041.812825709,1041.812825709,0.016097517000162043,[],[],[],[],[],[],[],-1,1,azul,1,['N_A'],[],[],[],[],[],[],[],1043.498885232,1043.498885232,1043.498885232,1043.498885232,1045.534756448,1045.534756448,1045.534756448,1045.534756448,1045.534756448,1045.534756448,1045.534756448,1045.534756448,1047.552431612,1047.552431612,1047.552431612,1047.552431612,,,,,,,,,,,,,,,,,,,,,,,,,,,,,,,,,,,,,,,,10,002,2022-09-20_17h14.24.483,test2,2022.2.4,59.85969832494069,
0,0,0,0,14,0,14,0,1047.552431612,1047.552431612,1047.552431612,1047.552431612,1047.552431612,1047.552431612,1047.552431612,0.01660871599983693,[],[],[],[],[],[],[],-1,1,azul,1,['N_A'],[],[],[],[],[],[],[],1049.739185836,1049.739185836,1049.739185836,1049.739185836,1051.773831228,1051.773831228,1051.773831228,1051.773831228,1051.773831228,1051.773831228,1051.773831228,1051.773831228,1053.792286984,1053.792286984,1053.792286984,1053.792286984,,,,,,,,,,,,,,,,,,,,,,,,,,,,,,,,,,,,,,,,10,002,2022-09-20_17h14.24.483,test2,2022.2.4,59.85969832494069,
0,0,0,0,15,0,15,0,1053.792286984,1053.792286984,1053.792286984,1053.792286984,1053.792286984,1053.792286984,1053.792286984,0.01648343300007582,[],[],[],[],[],[],[],1,-1,rojo,0,['N_B'],[],[],[],[],[],[],[],1055.244561163,1055.244561163,1055.244561163,1055.244561163,1057.2800795399999,1057.2800795399999,1057.2800795399999,1057.2800795399999,1057.2800795399999,1057.2800795399999,1057.2800795399999,1057.2800795399999,1059.29797249,1059.29797249,1059.29797249,1059.29797249,,,,,,,,,,,,,,,,,,,,,,,,,,,,,,,,,,,,,,,,10,002,2022-09-20_17h14.24.483,test2,2022.2.4,59.85969832494069,
0,0,0,0,16,0,16,0,1059.29797249,1059.29797249,1059.29797249,1059.29797249,1059.29797249,1059.29797249,1059.29797249,0.016307562000065445,[],[],[],[],[],[],[],1,-1,azul,0,['N_A'],[],[],[],[],[],[],[],1061.3521117359999,1061.3521117359999,1061.3521117359999,1061.3521117359999,1063.405455403,1063.405455403,1063.405455403,1063.405455403,1063.405455403,1063.405455403,1063.405455403,1063.405455403,1065.422353343,1065.422353343,1065.422353343,1065.422353343,,,,,,,,,,,,,,,,,,,,,,,,,,,,,,,,,,,,,,,,10,002,2022-09-20_17h14.24.483,test2,2022.2.4,59.85969832494069,
0,0,0,0,17,0,17,0,1065.422353343,1065.422353343,1065.422353343,1065.422353343,1065.422353343,1065.422353343,1065.422353343,0.01650193999989824,[],[],[],[],[],[],[],1,-1,rojo,0,['N_B'],[],[],[],[],[],[],[],1067.158874061,1067.158874061,1067.158874061,1067.158874061,1069.193523773,1069.193523773,1069.193523773,1069.193523773,1069.193523773,1069.193523773,1069.193523773,1069.193523773,1071.211616617,1071.211616617,1071.211616617,1071.211616617,,,,,,,,,,,,,,,,,,,,,,,,,,,,,,,,,,,,,,,,10,002,2022-09-20_17h14.24.483,test2,2022.2.4,59.85969832494069,
0,0,0,0,18,0,18,0,1071.211616617,1071.211616617,1071.211616617,1071.211616617,1071.211616617,1071.211616617,1071.211616617,0.01731082699984654,[],[],[],[],[],[],[],-1,-1,rojo,0,['N_A'],[],[],[],[],[],[],[],1072.8980340809999,1072.8980340809999,1072.8980340809999,1072.8980340809999,1074.933852467,1074.933852467,1074.933852467,1074.933852467,1074.933852467,1074.933852467,1074.933852467,1074.933852467,1076.951289102,1076.951289102,1076.951289102,1076.951289102,,,,,,,,,,,,,,,,,,,,,,,,,,,,,,,,,,,,,,,,10,002,2022-09-20_17h14.24.483,test2,2022.2.4,59.85969832494069,
0,0,0,0,19,0,19,0,1076.951289102,1076.951289102,1076.951289102,1076.951289102,1076.951289102,1076.951289102,1076.951289102,0.016617668999970192,[],[],[],[],[],[],[],-1,1,azul,1,['N_A'],[],[],[],[],[],[],[],1078.789019565,1078.789019565,1078.789019565,1078.789019565,1080.823304211,1080.823304211,1080.823304211,1080.823304211,1080.823304211,1080.823304211,1080.823304211,1080.823304211,1082.8415004629999,1082.8415004629999,1082.8415004629999,1082.8415004629999,,,,,,,,,,,,,,,,,,,,,,,,,,,,,,,,,,,,,,,,10,002,2022-09-20_17h14.24.483,test2,2022.2.4,59.85969832494069,
0,0,0,0,20,0,20,0,1082.8415004629999,1082.8415004629999,1082.8415004629999,1082.8415004629999,1082.8415004629999,1082.8415004629999,1082.8415004629999,0.01661004600009619,[],[],[],[],[],[],[],1,-1,rojo,0,['N_B'],[],[],[],[],[],[],[],1084.461498993,1084.461498993,1084.461498993,1084.461498993,1086.49575203,1086.49575203,1086.49575203,1086.49575203,1086.49575203,1086.49575203,1086.49575203,1086.49575203,1088.513723341,1088.513723341,1088.513723341,1088.513723341,,,,,,,,,,,,,,,,,,,,,,,,,,,,,,,,,,,,,,,,10,002,2022-09-20_17h14.24.483,test2,2022.2.4,59.85969832494069,
0,0,0,0,21,0,21,0,1088.513723341,1088.513723341,1088.513723341,1088.513723341,1088.513723341,1088.513723341,1088.513723341,0.01746944399997119,[],[],[],[],[],[],[],-1,1,rojo,1,['N_B'],[],[],[],[],[],[],[],1090.517169691,1090.517169691,1090.517169691,1090.517169691,1092.55253157,1092.55253157,1092.55253157,1092.55253157,1092.55253157,1092.55253157,1092.55253157,1092.55253157,1094.570731278,1094.570731278,1094.570731278,1094.570731278,,,,,,,,,,,,,,,,,,,,,,,,,,,,,,,,,,,,,,,,10,002,2022-09-20_17h14.24.483,test2,2022.2.4,59.85969832494069,
0,0,0,0,22,0,22,0,1094.570731278,1094.570731278,1094.570731278,1094.570731278,1094.570731278,1094.570731278,1094.570731278,0.016554899000084333,[],[],[],[],[],[],[],1,1,azul,1,['N_B'],[],[],[],[],[],[],[],1096.24023315,1096.24023315,1096.24023315,1096.24023315,1098.2753886809999,1098.2753886809999,1098.2753886809999,1098.2753886809999,1098.2753886809999,1098.2753886809999,1098.2753886809999,1098.2753886809999,1100.293237093,1100.293237093,1100.293237093,1100.293237093,,,,,,,,,,,,,,,,,,,,,,,,,,,,,,,,,,,,,,,,10,002,2022-09-20_17h14.24.483,test2,2022.2.4,59.85969832494069,
0,0,0,0,23,0,23,0,1100.293237093,1100.293237093,1100.293237093,1100.293237093,1100.293237093,1100.293237093,1100.293237093,0.016443084000002273,[],[],[],[],[],[],[],1,1,azul,1,['N_B'],[],[],[],[],[],[],[],1102.031467031,1102.031467031,1102.031467031,1102.031467031,1104.064297671,1104.064297671,1104.064297671,1104.064297671,1104.064297671,1104.064297671,1104.064297671,1104.064297671,1106.08368853,1106.08368853,1106.08368853,1106.08368853,,,,,,,,,,,,,,,,,,,,,,,,,,,,,,,,,,,,,,,,10,002,2022-09-20_17h14.24.483,test2,2022.2.4,59.85969832494069,
0,0,0,0,24,0,24,0,1106.08368853,1106.08368853,1106.08368853,1106.08368853,1106.08368853,1106.08368853,1106.08368853,0.017083039999988614,[],[],[],[],[],[],[],1,-1,azul,0,['N_A'],[],[],[],[],[],[],[],1107.921304026,1107.921304026,1107.921304026,1107.921304026,1109.9544737869999,1109.9544737869999,1109.9544737869999,1109.9544737869999,1109.9544737869999,1109.9544737869999,1109.9544737869999,1109.9544737869999,1111.972919485,1111.972919485,1111.972919485,1111.972919485,,,,,,,,,,,,,,,,,,,,,,,,,,,,,,,,,,,,,,,,10,002,2022-09-20_17h14.24.483,test2,2022.2.4,59.85969832494069,
0,0,0,0,25,0,25,0,1111.972919485,1111.972919485,1111.972919485,1111.972919485,1111.972919485,1111.972919485,1111.972919485,0.01641977499980385,[],[],[],[],[],[],[],-1,-1,azul,1,['N_A'],[],[],[],[],[],[],[],1114.294571653,1114.294571653,1114.294571653,1114.294571653,1116.3277613,1116.3277613,1116.3277613,1116.3277613,1116.3277613,1116.3277613,1116.3277613,1116.3277613,1118.347193328,1118.347193328,1118.347193328,1118.347193328,,,,,,,,,,,,,,,,,,,,,,,,,,,,,,,,,,,,,,,,10,002,2022-09-20_17h14.24.483,test2,2022.2.4,59.85969832494069,
0,0,0,0,26,0,26,0,1118.347193328,1118.347193328,1118.347193328,1118.347193328,1118.347193328,1118.347193328,1118.347193328,0.017011244000059378,[],[],[],[],[],[],[],1,-1,rojo,0,['N_B'],[],[],[],[],[],[],[],1120.351011445,1120.351011445,1120.351011445,1120.351011445,1122.403553865,1122.403553865,1122.403553865,1122.403553865,1122.403553865,1122.403553865,1122.403553865,1122.403553865,1124.420261749,1124.420261749,1124.420261749,1124.420261749,,,,,,,,,,,,,,,,,,,,,,,,,,,,,,,,,,,,,,,,10,002,2022-09-20_17h14.24.483,test2,2022.2.4,59.85969832494069,
0,0,0,0,27,0,27,0,1124.420261749,1124.420261749,1124.420261749,1124.420261749,1124.420261749,1124.420261749,1124.420261749,0.01658824699984507,[],[],[],[],[],[],[],-1,-1,rojo,0,['N_A'],[],[],[],[],[],[],[],1126.640779723,1126.640779723,1126.640779723,1126.640779723,1128.674498811,1128.674498811,1128.674498811,1128.674498811,1128.674498811,1128.674498811,1128.674498811,1128.674498811,1130.694321886,1130.694321886,1130.694321886,1130.694321886,,,,,,,,,,,,,,,,,,,,,,,,,,,,,,,,,,,,,,,,10,002,2022-09-20_17h14.24.483,test2,2022.2.4,59.85969832494069,
0,0,0,0,28,0,28,0,1130.694321886,1130.694321886,1130.694321886,1130.694321886,1130.694321886,1130.694321886,1130.694321886,0.01683814199986955,[],[],[],[],[],[],[],1,-1,rojo,1,['N_A'],[],[],[],[],[],[],[],1132.314402477,1132.314402477,1132.314402477,1132.314402477,1134.348220055,1134.348220055,1134.348220055,1134.348220055,1134.348220055,1134.348220055,1134.348220055,1134.348220055,1136.367297256,1136.367297256,1136.367297256,1136.367297256,,,,,,,,,,,,,,,,,,,,,,,,,,,,,,,,,,,,,,,,10,002,2022-09-20_17h14.24.483,test2,2022.2.4,59.85969832494069,
0,0,0,0,29,0,29,0,1136.367297256,1136.367297256,1136.367297256,1136.367297256,1136.367297256,1136.367297256,1136.367297256,0.0163975999998911,[],[],[],[],[],[],[],1,-1,rojo,0,['N_B'],[],[],[],[],[],[],[],1137.752390921,1137.752390921,1137.752390921,1137.752390921,1139.7881334209999,1139.7881334209999,1139.7881334209999,1139.7881334209999,1139.7881334209999,1139.7881334209999,1139.7881334209999,1139.7881334209999,1141.806212959,1141.806212959,1141.806212959,1141.806212959,,,,,,,,,,,,,,,,,,,,,,,,,,,,,,,,,,,,,,,,10,002,2022-09-20_17h14.24.483,test2,2022.2.4,59.85969832494069,
0,0,0,0,30,0,30,0,1141.806212959,1141.806212959,1141.806212959,1141.806212959,1141.806212959,1141.806212959,1141.806212959,0.01669819800008554,[],[],[],[],[],[],[],1,1,azul,1,['N_B'],[],[],[],[],[],[],[],1144.295177812,1144.295177812,1144.295177812,1144.295177812,1146.32781794,1146.32781794,1146.32781794,1146.32781794,1146.32781794,1146.32781794,1146.32781794,1146.32781794,1148.347675179,1148.347675179,1148.347675179,1148.347675179,,,,,,,,,,,,,,,,,,,,,,,,,,,,,,,,,,,,,,,,10,002,2022-09-20_17h14.24.483,test2,2022.2.4,59.85969832494069,
0,0,0,0,31,0,31,0,1148.347675179,1148.347675179,1148.347675179,1148.347675179,1148.347675179,1148.347675179,1148.347675179,0.01620016000015312,[],[],[],[],[],[],[],-1,-1,rojo,1,['N_B'],[],[],[],[],[],[],[],1150.265598644,1150.265598644,1150.265598644,1150.265598644,1152.3008697569999,1152.3008697569999,1152.3008697569999,1152.3008697569999,1152.3008697569999,1152.3008697569999,1152.3008697569999,1152.3008697569999,1154.31972808,1154.31972808,1154.31972808,1154.31972808,,,,,,,,,,,,,,,,,,,,,,,,,,,,,,,,,,,,,,,,10,002,2022-09-20_17h14.24.483,test2,2022.2.4,59.85969832494069,
0,0,0,0,32,0,32,0,1154.31972808,1154.31972808,1154.31972808,1154.31972808,1154.31972808,1154.31972808,1154.31972808,0.016673629000024448,[],[],[],[],[],[],[],1,-1,azul,0,['N_A'],[],[],[],[],[],[],[],1156.289911518,1156.289911518,1156.289911518,1156.289911518,1158.324998722,1158.324998722,1158.324998722,1158.324998722,1158.324998722,1158.324998722,1158.324998722,1158.324998722,1160.34385176,1160.34385176,1160.34385176,1160.34385176,,,,,,,,,,,,,,,,,,,,,,,,,,,,,,,,,,,,,,,,10,002,2022-09-20_17h14.24.483,test2,2022.2.4,59.85969832494069,
0,0,0,0,33,0,33,0,1160.34385176,1160.34385176,1160.34385176,1160.34385176,1160.34385176,1160.34385176,1160.34385176,0.016352684999901612,[],[],[],[],[],[],[],1,-1,rojo,0,['N_B'],[],[],[],[],[],[],[],1161.795304426,1161.795304426,1161.795304426,1161.795304426,1163.83076369,1163.83076369,1163.83076369,1163.83076369,1163.83076369,1163.83076369,1163.83076369,1163.83076369,1165.84915856,1165.84915856,1165.84915856,1165.84915856,,,,,,,,,,,,,,,,,,,,,,,,,,,,,,,,,,,,,,,,10,002,2022-09-20_17h14.24.483,test2,2022.2.4,59.85969832494069,
0,0,0,0,34,0,34,0,1165.84915856,1165.84915856,1165.84915856,1165.84915856,1165.84915856,1165.84915856,1165.84915856,0.01644128099997033,[],[],[],[],[],[],[],1,-1,azul,0,['N_A'],[],[],[],[],[],[],[],1167.937176351,1167.937176351,1167.937176351,1167.937176351,1169.970748042,1169.970748042,1169.970748042,1169.970748042,1169.970748042,1169.970748042,1169.970748042,1169.970748042,1171.989198734,1171.989198734,1171.989198734,1171.989198734,,,,,,,,,,,,,,,,,,,,,,,,,,,,,,,,,,,,,,,,10,002,2022-09-20_17h14.24.483,test2,2022.2.4,59.85969832494069,
0,0,0,0,35,0,35,0,1171.989198734,1171.989198734,1171.989198734,1171.989198734,1171.989198734,1171.989198734,1171.989198734,0.01654474199995093,[],[],[],[],[],[],[],1,-1,rojo,1,['N_A'],[],[],[],[],[],[],[],1174.827438654,1174.827438654,1174.827438654,1174.827438654,1176.8613217949999,1176.8613217949999,1176.8613217949999,1176.8613217949999,1176.8613217949999,1176.8613217949999,1176.8613217949999,1176.8613217949999,1178.881421439,1178.881421439,1178.881421439,1178.881421439,,,,,,,,,,,,,,,,,,,,,,,,,,,,,,,,,,,,,,,,10,002,2022-09-20_17h14.24.483,test2,2022.2.4,59.85969832494069,
0,0,0,0,36,0,36,0,1178.881421439,1178.881421439,1178.881421439,1178.881421439,1178.881421439,1178.881421439,1178.881421439,0.016555494999920484,[],[],[],[],[],[],[],1,-1,rojo,0,['N_B'],[],[],[],[],[],[],[],1180.951656613,1180.951656613,1180.951656613,1180.951656613,1182.985413896,1182.985413896,1182.985413896,1182.985413896,1182.985413896,1182.985413896,1182.985413896,1182.985413896,1185.004063862,1185.004063862,1185.004063862,1185.004063862,,,,,,,,,,,,,,,,,,,,,,,,,,,,,,,,,,,,,,,,10,002,2022-09-20_17h14.24.483,test2,2022.2.4,59.85969832494069,
0,0,0,0,37,0,37,0,1185.004063862,1185.004063862,1185.004063862,1185.004063862,1185.004063862,1185.004063862,1185.004063862,0.01707583000006707,[],[],[],[],[],[],[],-1,-1,rojo,0,['N_A'],[],[],[],[],[],[],[],1186.740894781,1186.740894781,1186.740894781,1186.740894781,1188.775516915,1188.775516915,1188.775516915,1188.775516915,1188.775516915,1188.775516915,1188.775516915,1188.775516915,1190.793203474,1190.793203474,1190.793203474,1190.793203474,,,,,,,,,,,,,,,,,,,,,,,,,,,,,,,,,,,,,,,,10,002,2022-09-20_17h14.24.483,test2,2022.2.4,59.85969832494069,
0,0,0,0,38,0,38,0,1190.793203474,1190.793203474,1190.793203474,1190.793203474,1190.793203474,1190.793203474,1190.793203474,0.01620398200020645,[],[],[],[],[],[],[],1,1,rojo,1,['N_A'],[],[],[],[],[],[],[],1193.013659646,1193.013659646,1193.013659646,1193.013659646,1195.048644022,1195.048644022,1195.048644022,1195.048644022,1195.048644022,1195.048644022,1195.048644022,1195.048644022,1197.067330828,1197.067330828,1197.067330828,1197.067330828,,,,,,,,,,,,,,,,,,,,,,,,,,,,,,,,,,,,,,,,10,002,2022-09-20_17h14.24.483,test2,2022.2.4,59.85969832494069,
0,0,0,0,39,0,39,0,1197.067330828,1197.067330828,1197.067330828,1197.067330828,1197.067330828,1197.067330828,1197.067330828,0.016431439999905706,[],[],[],[],[],[],[],1,-1,rojo,0,['N_B'],[],[],[],[],[],[],[],1198.4713235259999,1198.4713235259999,1198.4713235259999,1198.4713235259999,1200.522177459,1200.522177459,1200.522177459,1200.522177459,1200.522177459,1200.522177459,1200.522177459,1200.522177459,1202.539902093,1202.539902093,1202.539902093,1202.539902093,,,,,,,,,,,,,,,,,,,,,,,,,,,,,,,,,,,,,,,,10,002,2022-09-20_17h14.24.483,test2,2022.2.4,59.85969832494069,
0,0,0,0,40,0,40,0,1202.539902093,1202.539902093,1202.539902093,1202.539902093,1202.539902093,1202.539902093,1202.539902093,0.01628541199988831,[],[],[],[],[],[],[],1,-1,azul,0,['N_A'],[],[],[],[],[],[],[],1203.993449257,1203.993449257,1203.993449257,1203.993449257,1206.026545585,1206.026545585,1206.026545585,1206.026545585,1206.026545585,1206.026545585,1206.026545585,1206.026545585,1208.047249344,1208.047249344,1208.047249344,1208.047249344,,,,,,,,,,,,,,,,,,,,,,,,,,,,,,,,,,,,,,,,10,002,2022-09-20_17h14.24.483,test2,2022.2.4,59.85969832494069,
0,0,0,0,41,0,41,0,1208.047249344,1208.047249344,1208.047249344,1208.047249344,1208.047249344,1208.047249344,1208.047249344,0.016565693000075044,[],[],[],[],[],[],[],1,1,rojo,1,['N_A'],[],[],[],[],[],[],[],1210.81724399,1210.81724399,1210.81724399,1210.81724399,1212.8518150539999,1212.8518150539999,1212.8518150539999,1212.8518150539999,1212.8518150539999,1212.8518150539999,1212.8518150539999,1212.8518150539999,1214.86977136,1214.86977136,1214.86977136,1214.86977136,,,,,,,,,,,,,,,,,,,,,,,,,,,,,,,,,,,,,,,,10,002,2022-09-20_17h14.24.483,test2,2022.2.4,59.85969832494069,
0,0,0,0,42,0,42,0,1214.86977136,1214.86977136,1214.86977136,1214.86977136,1214.86977136,1214.86977136,1214.86977136,0.016606993999857877,[],[],[],[],[],[],[],1,-1,rojo,0,['N_B'],[],[],[],[],[],[],[],1216.456755126,1216.456755126,1216.456755126,1216.456755126,1218.49126164,1218.49126164,1218.49126164,1218.49126164,1218.49126164,1218.49126164,1218.49126164,1218.49126164,1220.510704878,1220.510704878,1220.510704878,1220.510704878,,,,,,,,,,,,,,,,,,,,,,,,,,,,,,,,,,,,,,,,10,002,2022-09-20_17h14.24.483,test2,2022.2.4,59.85969832494069,
0,0,0,0,43,0,43,0,1220.510704878,1220.510704878,1220.510704878,1220.510704878,1220.510704878,1220.510704878,1220.510704878,0.016807438999876467,[],[],[],[],[],[],[],1,1,azul,1,['N_B'],[],[],[],[],[],[],[],1222.096458754,1222.096458754,1222.096458754,1222.096458754,1224.131802269,1224.131802269,1224.131802269,1224.131802269,1224.131802269,1224.131802269,1224.131802269,1224.131802269,1226.14942584,1226.14942584,1226.14942584,1226.14942584,,,,,,,,,,,,,,,,,,,,,,,,,,,,,,,,,,,,,,,,10,002,2022-09-20_17h14.24.483,test2,2022.2.4,59.85969832494069,
0,0,0,0,44,0,44,0,1226.14942584,1226.14942584,1226.14942584,1226.14942584,1226.14942584,1226.14942584,1226.14942584,0.01654896600007305,[],[],[],[],[],[],[],1,-1,azul,0,['N_A'],[],[],[],[],[],[],[],1227.851814429,1227.851814429,1227.851814429,1227.851814429,1229.887501747,1229.887501747,1229.887501747,1229.887501747,1229.887501747,1229.887501747,1229.887501747,1229.887501747,1231.923543485,1231.923543485,1231.923543485,1231.923543485,,,,,,,,,,,,,,,,,,,,,,,,,,,,,,,,,,,,,,,,10,002,2022-09-20_17h14.24.483,test2,2022.2.4,59.85969832494069,
0,0,0,0,45,0,45,0,1231.923543485,1231.923543485,1231.923543485,1231.923543485,1231.923543485,1231.923543485,1231.923543485,0.017135391000010713,[],[],[],[],[],[],[],1,-1,rojo,1,['N_A'],[],[],[],[],[],[],[],1233.34217165,1233.34217165,1233.34217165,1233.34217165,1235.394115308,1235.394115308,1235.394115308,1235.394115308,1235.394115308,1235.394115308,1235.394115308,1235.394115308,1237.41213729,1237.41213729,1237.41213729,1237.41213729,,,,,,,,,,,,,,,,,,,,,,,,,,,,,,,,,,,,,,,,10,002,2022-09-20_17h14.24.483,test2,2022.2.4,59.85969832494069,
0,0,0,0,46,0,46,0,1237.41213729,1237.41213729,1237.41213729,1237.41213729,1237.41213729,1237.41213729,1237.41213729,0.01650729199991474,[],[],[],[],[],[],[],1,-1,rojo,0,['N_B'],[],[],[],[],[],[],[],1238.914058945,1238.914058945,1238.914058945,1238.914058945,1240.967528921,1240.967528921,1240.967528921,1240.967528921,1240.967528921,1240.967528921,1240.967528921,1240.967528921,1242.983969895,1242.983969895,1242.983969895,1242.983969895,,,,,,,,,,,,,,,,,,,,,,,,,,,,,,,,,,,,,,,,10,002,2022-09-20_17h14.24.483,test2,2022.2.4,59.85969832494069,
0,0,0,0,47,0,47,0,1242.983969895,1242.983969895,1242.983969895,1242.983969895,1242.983969895,1242.983969895,1242.983969895,0.016340325000101075,[],[],[],[],[],[],[],1,-1,azul,0,['N_A'],[],[],[],[],[],[],[],1245.122411235,1245.122411235,1245.122411235,1245.122411235,1247.1734917649999,1247.1734917649999,1247.1734917649999,1247.1734917649999,1247.1734917649999,1247.1734917649999,1247.1734917649999,1247.1734917649999,1249.191624142,1249.191624142,1249.191624142,1249.191624142,,,,,,,,,,,,,,,,,,,,,,,,,,,,,,,,,,,,,,,,10,002,2022-09-20_17h14.24.483,test2,2022.2.4,59.85969832494069,
0,0,0,0,48,0,48,0,1249.191624142,1249.191624142,1249.191624142,1249.191624142,1249.191624142,1249.191624142,1249.191624142,0.016865830999904574,[],[],[],[],[],[],[],-1,-1,azul,0,['N_B'],[],[],[],[],[],[],[],1251.011652259,1251.011652259,1251.011652259,1251.011652259,1253.063895129,1253.063895129,1253.063895129,1253.063895129,1253.063895129,1253.063895129,1253.063895129,1253.063895129,1255.081982446,1255.081982446,1255.081982446,1255.081982446,,,,,,,,,,,,,,,,,,,,,,,,,,,,,,,,,,,,,,,,10,002,2022-09-20_17h14.24.483,test2,2022.2.4,59.85969832494069,
0,0,0,0,49,0,49,0,1255.081982446,1255.081982446,1255.081982446,1255.081982446,1255.081982446,1255.081982446,1255.081982446,0.016741513999932067,[],[],[],[],[],[],[],-1,-1,rojo,1,['N_B'],[],[],[],[],[],[],[],1257.067827196,1257.067827196,1257.067827196,1257.067827196,1259.121046755,1259.121046755,1259.121046755,1259.121046755,1259.121046755,1259.121046755,1259.121046755,1259.121046755,1261.137503214,1261.137503214,1261.137503214,1261.137503214,,,,,,,,,,,,,,,,,,,,,,,,,,,,,,,,,,,,,,,,10,002,2022-09-20_17h14.24.483,test2,2022.2.4,59.85969832494069,
0,0,0,0,50,0,50,0,1261.137503214,1261.137503214,1261.137503214,1261.137503214,1261.137503214,1261.137503214,1261.137503214,0.0164430770000763,[],[],[],[],[],[],[],1,-1,azul,0,['N_A'],[],[],[],[],[],[],[],1262.574950205,1262.574950205,1262.574950205,1262.574950205,1264.627334021,1264.627334021,1264.627334021,1264.627334021,1264.627334021,1264.627334021,1264.627334021,1264.627334021,1266.644449225,1266.644449225,1266.644449225,1266.644449225,,,,,,,,,,,,,,,,,,,,,,,,,,,,,,,,,,,,,,,,10,002,2022-09-20_17h14.24.483,test2,2022.2.4,59.85969832494069,
0,0,0,0,51,0,51,0,1266.644449225,1266.644449225,1266.644449225,1266.644449225,1266.644449225,1266.644449225,1266.644449225,0.01722663600003216,[],[],[],[],[],[],[],-1,-1,azul,0,['N_B'],[],[],[],[],[],[],[],1268.0143701299999,1268.0143701299999,1268.0143701299999,1268.0143701299999,1270.04738585,1270.04738585,1270.04738585,1270.04738585,1270.04738585,1270.04738585,1270.04738585,1270.04738585,1272.067153068,1272.067153068,1272.067153068,1272.067153068,,,,,,,,,,,,,,,,,,,,,,,,,,,,,,,,,,,,,,,,10,002,2022-09-20_17h14.24.483,test2,2022.2.4,59.85969832494069,
0,0,0,0,52,0,52,0,1272.067153068,1272.067153068,1272.067153068,1272.067153068,1272.067153068,1272.067153068,1272.067153068,0.01675070900000719,[],[],[],[],[],[],[],1,1,azul,1,['N_B'],[],[],[],[],[],[],[],1273.485571343,1273.485571343,1273.485571343,1273.485571343,1275.521142084,1275.521142084,1275.521142084,1275.521142084,1275.521142084,1275.521142084,1275.521142084,1275.521142084,1277.539728771,1277.539728771,1277.539728771,1277.539728771,,,,,,,,,,,,,,,,,,,,,,,,,,,,,,,,,,,,,,,,10,002,2022-09-20_17h14.24.483,test2,2022.2.4,59.85969832494069,
0,0,0,0,53,0,53,0,1277.539728771,1277.539728771,1277.539728771,1277.539728771,1277.539728771,1277.539728771,1277.539728771,0.016475809999974445,[],[],[],[],[],[],[],-1,-1,rojo,0,['N_A'],[],[],[],[],[],[],[],1278.925592815,1278.925592815,1278.925592815,1278.925592815,1280.9598596409999,1280.9598596409999,1280.9598596409999,1280.9598596409999,1280.9598596409999,1280.9598596409999,1280.9598596409999,1280.9598596409999,1282.979179705,1282.979179705,1282.979179705,1282.979179705,,,,,,,,,,,,,,,,,,,,,,,,,,,,,,,,,,,,,,,,10,002,2022-09-20_17h14.24.483,test2,2022.2.4,59.85969832494069,
0,0,0,0,54,0,54,0,1282.979179705,1282.979179705,1282.979179705,1282.979179705,1282.979179705,1282.979179705,1282.979179705,0.016696683999953166,[],[],[],[],[],[],[],1,-1,rojo,0,['N_B'],[],[],[],[],[],[],[],1284.448965994,1284.448965994,1284.448965994,1284.448965994,1286.483538468,1286.483538468,1286.483538468,1286.483538468,1286.483538468,1286.483538468,1286.483538468,1286.483538468,1288.501616376,1288.501616376,1288.501616376,1288.501616376,,,,,,,,,,,,,,,,,,,,,,,,,,,,,,,,,,,,,,,,10,002,2022-09-20_17h14.24.483,test2,2022.2.4,59.85969832494069,
0,0,0,0,55,0,55,0,1288.501616376,1288.501616376,1288.501616376,1288.501616376,1288.501616376,1288.501616376,1288.501616376,0.016402044000187743,[],[],[],[],[],[],[],1,1,azul,1,['N_B'],[],[],[],[],[],[],[],1290.054417851,1290.054417851,1290.054417851,1290.054417851,1292.089311963,1292.089311963,1292.089311963,1292.089311963,1292.089311963,1292.089311963,1292.089311963,1292.089311963,1294.107390472,1294.107390472,1294.107390472,1294.107390472,,,,,,,,,,,,,,,,,,,,,,,,,,,,,,,,,,,,,,,,10,002,2022-09-20_17h14.24.483,test2,2022.2.4,59.85969832494069,
0,0,0,0,56,0,56,0,1294.107390472,1294.107390472,1294.107390472,1294.107390472,1294.107390472,1294.107390472,1294.107390472,0.0163821270000426,[],[],[],[],[],[],[],1,-1,azul,0,['N_A'],[],[],[],[],[],[],[],1295.711957306,1295.711957306,1295.711957306,1295.711957306,1297.745023516,1297.745023516,1297.745023516,1297.745023516,1297.745023516,1297.745023516,1297.745023516,1297.745023516,1299.7636824209999,1299.7636824209999,1299.7636824209999,1299.7636824209999,,,,,,,,,,,,,,,,,,,,,,,,,,,,,,,,,,,,,,,,10,002,2022-09-20_17h14.24.483,test2,2022.2.4,59.85969832494069,
0,0,0,0,57,0,57,0,1299.7636824209999,1299.7636824209999,1299.7636824209999,1299.7636824209999,1299.7636824209999,1299.7636824209999,1299.7636824209999,0.016291198000089935,[],[],[],[],[],[],[],1,-1,rojo,1,['N_A'],[],[],[],[],[],[],[],1301.5833342839999,1301.5833342839999,1301.5833342839999,1301.5833342839999,1303.61835819,1303.61835819,1303.61835819,1303.61835819,1303.61835819,1303.61835819,1303.61835819,1303.61835819,1305.637171787,1305.637171787,1305.637171787,1305.637171787,,,,,,,,,,,,,,,,,,,,,,,,,,,,,,,,,,,,,,,,10,002,2022-09-20_17h14.24.483,test2,2022.2.4,59.85969832494069,
0,0,0,0,58,0,58,0,1305.637171787,1305.637171787,1305.637171787,1305.637171787,1305.637171787,1305.637171787,1305.637171787,0.016542802000003576,[],[],[],[],[],[],[],-1,1,azul,1,['N_A'],[],[],[],[],[],[],[],1307.207104526,1307.207104526,1307.207104526,1307.207104526,1309.2422860689999,1309.2422860689999,1309.2422860689999,1309.2422860689999,1309.2422860689999,1309.2422860689999,1309.2422860689999,1309.2422860689999,1311.259960707,1311.259960707,1311.259960707,1311.259960707,,,,,,,,,,,,,,,,,,,,,,,,,,,,,,,,,,,,,,,,10,002,2022-09-20_17h14.24.483,test2,2022.2.4,59.85969832494069,
0,0,0,0,59,0,59,0,1311.259960707,1311.259960707,1311.259960707,1311.259960707,1311.259960707,1311.259960707,1311.259960707,0.016755128000113473,[],[],[],[],[],[],[],1,1,rojo,1,['N_A'],[],[],[],[],[],[],[],1312.830069741,1312.830069741,1312.830069741,1312.830069741,1314.864545064,1314.864545064,1314.864545064,1314.864545064,1314.864545064,1314.864545064,1314.864545064,1314.864545064,1316.882532138,1316.882532138,1316.882532138,1316.882532138,,,,,,,,,,,,,,,,,,,,,,,,,,,,,,,,,,,,,,,,10,002,2022-09-20_17h14.24.483,test2,2022.2.4,59.85969832494069,
0,0,0,0,60,0,60,0,1316.882532138,1316.882532138,1316.882532138,1316.882532138,1316.882532138,1316.882532138,1316.882532138,0.016881588999922315,[],[],[],[],[],[],[],1,1,rojo,1,['N_A'],[],[],[],[],[],[],[],1318.369522025,1318.369522025,1318.369522025,1318.369522025,1320.40404593,1320.40404593,1320.40404593,1320.40404593,1320.40404593,1320.40404593,1320.40404593,1320.40404593,1322.422157187,1322.422157187,1322.422157187,1322.422157187,,,,,,,,,,,,,,,,,,,,,,,,,,,,,,,,,,,,,,,,10,002,2022-09-20_17h14.24.483,test2,2022.2.4,59.85969832494069,
0,0,0,0,61,0,61,0,1322.422157187,1322.422157187,1322.422157187,1322.422157187,1322.422157187,1322.422157187,1322.422157187,0.016274775000056252,[],[],[],[],[],[],[],1,-1,rojo,0,['N_B'],[],[],[],[],[],[],[],1323.841911962,1323.841911962,1323.841911962,1323.841911962,1325.876401095,1325.876401095,1325.876401095,1325.876401095,1325.876401095,1325.876401095,1325.876401095,1325.876401095,1327.895904706,1327.895904706,1327.895904706,1327.895904706,,,,,,,,,,,,,,,,,,,,,,,,,,,,,,,,,,,,,,,,10,002,2022-09-20_17h14.24.483,test2,2022.2.4,59.85969832494069,
0,0,0,0,62,0,62,0,1327.895904706,1327.895904706,1327.895904706,1327.895904706,1327.895904706,1327.895904706,1327.895904706,0.01642753900000571,[],[],[],[],[],[],[],-1,-1,rojo,1,['N_B'],[],[],[],[],[],[],[],1329.664840943,1329.664840943,1329.664840943,1329.664840943,1331.698542985,1331.698542985,1331.698542985,1331.698542985,1331.698542985,1331.698542985,1331.698542985,1331.698542985,1333.717925388,1333.717925388,1333.717925388,1333.717925388,,,,,,,,,,,,,,,,,,,,,,,,,,,,,,,,,,,,,,,,10,002,2022-09-20_17h14.24.483,test2,2022.2.4,59.85969832494069,
0,0,0,0,63,0,63,0,1333.717925388,1333.717925388,1333.717925388,1333.717925388,1333.717925388,1333.717925388,1333.717925388,0.01642660600009549,[],[],[],[],[],[],[],1,1,azul,1,['N_B'],[],[],[],[],[],[],[],1335.1042315959999,1335.1042315959999,1335.1042315959999,1335.1042315959999,1337.138831024,1337.138831024,1337.138831024,1337.138831024,1337.138831024,1337.138831024,1337.138831024,1337.138831024,1339.15793347,1339.15793347,1339.15793347,1339.15793347,,,,,,,,,,,,,,,,,,,,,,,,,,,,,,,,,,,,,,,,10,002,2022-09-20_17h14.24.483,test2,2022.2.4,59.85969832494069,
0,0,0,0,64,0,64,0,1339.15793347,1339.15793347,1339.15793347,1339.15793347,1339.15793347,1339.15793347,1339.15793347,0.016814695999983087,[],[],[],[],[],[],[],1,-1,azul,0,['N_A'],[],[],[],[],[],[],[],1340.5608291839999,1340.5608291839999,1340.5608291839999,1340.5608291839999,1342.594867377,1342.594867377,1342.594867377,1342.594867377,1342.594867377,1342.594867377,1342.594867377,1342.594867377,1344.632406004,1344.632406004,1344.632406004,1344.632406004,,,,,,,,,,,,,,,,,,,,,,,,,,,,,,,,,,,,,,,,10,002,2022-09-20_17h14.24.483,test2,2022.2.4,59.85969832494069,
0,0,0,0,65,0,65,0,1344.632406004,1344.632406004,1344.632406004,1344.632406004,1344.632406004,1344.632406004,1344.632406004,0.017144504000043526,[],[],[],[],[],[],[],1,-1,rojo,0,['N_B'],[],[],[],[],[],[],[],1346.200756014,1346.200756014,1346.200756014,1346.200756014,1348.235446496,1348.235446496,1348.235446496,1348.235446496,1348.235446496,1348.235446496,1348.235446496,1348.235446496,1350.2525315139999,1350.2525315139999,1350.2525315139999,1350.2525315139999,,,,,,,,,,,,,,,,,,,,,,,,,,,,,,,,,,,,,,,,10,002,2022-09-20_17h14.24.483,test2,2022.2.4,59.85969832494069,
0,0,0,0,66,0,66,0,1350.2525315139999,1350.2525315139999,1350.2525315139999,1350.2525315139999,1350.2525315139999,1350.2525315139999,1350.2525315139999,0.016112565999947037,[],[],[],[],[],[],[],1,1,azul,1,['N_B'],[],[],[],[],[],[],[],1351.856585367,1351.856585367,1351.856585367,1351.856585367,1353.8916220649999,1353.8916220649999,1353.8916220649999,1353.8916220649999,1353.8916220649999,1353.8916220649999,1353.8916220649999,1353.8916220649999,1355.90984378,1355.90984378,1355.90984378,1355.90984378,,,,,,,,,,,,,,,,,,,,,,,,,,,,,,,,,,,,,,,,10,002,2022-09-20_17h14.24.483,test2,2022.2.4,59.85969832494069,
0,0,0,0,67,0,67,0,1355.90984378,1355.90984378,1355.90984378,1355.90984378,1355.90984378,1355.90984378,1355.90984378,0.017238819000112926,[],[],[],[],[],[],[],1,1,azul,1,['N_B'],[],[],[],[],[],[],[],1357.863932558,1357.863932558,1357.863932558,1357.863932558,1359.897330433,1359.897330433,1359.897330433,1359.897330433,1359.897330433,1359.897330433,1359.897330433,1359.897330433,1361.915456084,1361.915456084,1361.915456084,1361.915456084,,,,,,,,,,,,,,,,,,,,,,,,,,,,,,,,,,,,,,,,10,002,2022-09-20_17h14.24.483,test2,2022.2.4,59.85969832494069,
0,0,0,0,68,0,68,0,1361.915456084,1361.915456084,1361.915456084,1361.915456084,1361.915456084,1361.915456084,1361.915456084,0.01641107499995087,[],[],[],[],[],[],[],1,-1,azul,0,['N_A'],[],[],[],[],[],[],[],1364.468941032,1364.468941032,1364.468941032,1364.468941032,1366.504812332,1366.504812332,1366.504812332,1366.504812332,1366.504812332,1366.504812332,1366.504812332,1366.504812332,1368.523574696,1368.523574696,1368.523574696,1368.523574696,,,,,,,,,,,,,,,,,,,,,,,,,,,,,,,,,,,,,,,,10,002,2022-09-20_17h14.24.483,test2,2022.2.4,59.85969832494069,
0,0,0,0,69,0,69,0,1368.523574696,1368.523574696,1368.523574696,1368.523574696,1368.523574696,1368.523574696,1368.523574696,0.016432062999911068,[],[],[],[],[],[],[],1,-1,rojo,0,['N_B'],[],[],[],[],[],[],[],1370.55840145,1370.55840145,1370.55840145,1370.55840145,1372.594674191,1372.594674191,1372.594674191,1372.594674191,1372.594674191,1372.594674191,1372.594674191,1372.594674191,1374.613382543,1374.613382543,1374.613382543,1374.613382543,,,,,,,,,,,,,,,,,,,,,,,,,,,,,,,,,,,,,,,,10,002,2022-09-20_17h14.24.483,test2,2022.2.4,59.85969832494069,
0,0,0,0,70,0,70,0,1374.613382543,1374.613382543,1374.613382543,1374.613382543,1374.613382543,1374.613382543,1374.613382543,0.016776726999978564,[],[],[],[],[],[],[],1,-1,azul,0,['N_A'],[],[],[],[],[],[],[],1376.500906465,1376.500906465,1376.500906465,1376.500906465,1378.534398511,1378.534398511,1378.534398511,1378.534398511,1378.534398511,1378.534398511,1378.534398511,1378.534398511,1380.553224482,1380.553224482,1380.553224482,1380.553224482,,,,,,,,,,,,,,,,,,,,,,,,,,,,,,,,,,,,,,,,10,002,2022-09-20_17h14.24.483,test2,2022.2.4,59.85969832494069,
0,0,0,0,71,0,71,0,1380.553224482,1380.553224482,1380.553224482,1380.553224482,1380.553224482,1380.553224482,1380.553224482,0.016700680999974793,[],[],[],[],[],[],[],-1,-1,azul,0,['N_B'],[],[],[],[],[],[],[],1381.989516382,1381.989516382,1381.989516382,1381.989516382,1384.024128386,1384.024128386,1384.024128386,1384.024128386,1384.024128386,1384.024128386,1384.024128386,1384.024128386,1386.042708191,1386.042708191,1386.042708191,1386.042708191,,,,,,,,,,,,,,,,,,,,,,,,,,,,,,,,,,,,,,,,10,002,2022-09-20_17h14.24.483,test2,2022.2.4,59.85969832494069,
0,0,0,0,72,0,72,0,1386.042708191,1386.042708191,1386.042708191,1386.042708191,1386.042708191,1386.042708191,1386.042708191,0.016280235000067478,[],[],[],[],[],[],[],1,1,azul,1,['N_B'],[],[],[],[],[],[],[],1388.663691507,1388.663691507,1388.663691507,1388.663691507,1390.698925229,1390.698925229,1390.698925229,1390.698925229,1390.698925229,1390.698925229,1390.698925229,1390.698925229,1392.716823846,1392.716823846,1392.716823846,1392.716823846,,,,,,,,,,,,,,,,,,,,,,,,,,,,,,,,,,,,,,,,10,002,2022-09-20_17h14.24.483,test2,2022.2.4,59.85969832494069,
0,0,0,0,73,0,73,0,1392.716823846,1392.716823846,1392.716823846,1392.716823846,1392.716823846,1392.716823846,1392.716823846,0.01650046600002497,[],[],[],[],[],[],[],1,-1,azul,0,['N_A'],[],[],[],[],[],[],[],1395.153044164,1395.153044164,1395.153044164,1395.153044164,1397.206257873,1397.206257873,1397.206257873,1397.206257873,1397.206257873,1397.206257873,1397.206257873,1397.206257873,1399.223418565,1399.223418565,1399.223418565,1399.223418565,,,,,,,,,,,,,,,,,,,,,,,,,,,,,,,,,,,,,,,,10,002,2022-09-20_17h14.24.483,test2,2022.2.4,59.85969832494069,
0,0,0,0,74,0,74,0,1399.223418565,1399.223418565,1399.223418565,1399.223418565,1399.223418565,1399.223418565,1399.223418565,0.016298523000159548,[],[],[],[],[],[],[],1,-1,rojo,1,['N_A'],[],[],[],[],[],[],[],1400.826983009,1400.826983009,1400.826983009,1400.826983009,1402.861239701,1402.861239701,1402.861239701,1402.861239701,1402.861239701,1402.861239701,1402.861239701,1402.861239701,1404.87994887,1404.87994887,1404.87994887,1404.87994887,,,,,,,,,,,,,,,,,,,,,,,,,,,,,,,,,,,,,,,,10,002,2022-09-20_17h14.24.483,test2,2022.2.4,59.85969832494069,
0,0,0,0,75,0,75,0,1404.87994887,1404.87994887,1404.87994887,1404.87994887,1404.87994887,1404.87994887,1404.87994887,0.016496574000029796,[],[],[],[],[],[],[],-1,-1,azul,0,['N_B'],[],[],[],[],[],[],[],1406.266295845,1406.266295845,1406.266295845,1406.266295845,1408.301560811,1408.301560811,1408.301560811,1408.301560811,1408.301560811,1408.301560811,1408.301560811,1408.301560811,1410.319537078,1410.319537078,1410.319537078,1410.319537078,,,,,,,,,,,,,,,,,,,,,,,,,,,,,,,,,,,,,,,,10,002,2022-09-20_17h14.24.483,test2,2022.2.4,59.85969832494069,
0,0,0,0,76,0,76,0,1410.319537078,1410.319537078,1410.319537078,1410.319537078,1410.319537078,1410.319537078,1410.319537078,0.016358315000161383,[],[],[],[],[],[],[],1,1,azul,1,['N_B'],[],[],[],[],[],[],[],1411.989469588,1411.989469588,1411.989469588,1411.989469588,1414.023468757,1414.023468757,1414.023468757,1414.023468757,1414.023468757,1414.023468757,1414.023468757,1414.023468757,1416.042223282,1416.042223282,1416.042223282,1416.042223282,,,,,,,,,,,,,,,,,,,,,,,,,,,,,,,,,,,,,,,,10,002,2022-09-20_17h14.24.483,test2,2022.2.4,59.85969832494069,
0,0,0,0,77,0,77,0,1416.042223282,1416.042223282,1416.042223282,1416.042223282,1416.042223282,1416.042223282,1416.042223282,0.01675685500003965,[],[],[],[],[],[],[],-1,-1,rojo,0,['N_A'],[],[],[],[],[],[],[],1417.411405811,1417.411405811,1417.411405811,1417.411405811,1419.445525953,1419.445525953,1419.445525953,1419.445525953,1419.445525953,1419.445525953,1419.445525953,1419.445525953,1421.483806454,1421.483806454,1421.483806454,1421.483806454,,,,,,,,,,,,,,,,,,,,,,,,,,,,,,,,,,,,,,,,10,002,2022-09-20_17h14.24.483,test2,2022.2.4,59.85969832494069,
0,0,0,0,78,0,78,0,1421.483806454,1421.483806454,1421.483806454,1421.483806454,1421.483806454,1421.483806454,1421.483806454,0.017116076000093017,[],[],[],[],[],[],[],1,1,rojo,1,['N_A'],[],[],[],[],[],[],[],1423.4022889999999,1423.4022889999999,1423.4022889999999,1423.4022889999999,1425.4360506819999,1425.4360506819999,1425.4360506819999,1425.4360506819999,1425.4360506819999,1425.4360506819999,1425.4360506819999,1425.4360506819999,1427.454906633,1427.454906633,1427.454906633,1427.454906633,,,,,,,,,,,,,,,,,,,,,,,,,,,,,,,,,,,,,,,,10,002,2022-09-20_17h14.24.483,test2,2022.2.4,59.85969832494069,
0,0,0,0,79,0,79,0,1427.454906633,1427.454906633,1427.454906633,1427.454906633,1427.454906633,1427.454906633,1427.454906633,0.016357030000108352,[],[],[],[],[],[],[],-1,-1,azul,0,['N_B'],[],[],[],[],[],[],[],1428.858633183,1428.858633183,1428.858633183,1428.858633183,1430.891585585,1430.891585585,1430.891585585,1430.891585585,1430.891585585,1430.891585585,1430.891585585,1430.891585585,1432.910557939,1432.910557939,1432.910557939,1432.910557939,,,,,,,,,,,,,,,,,,,,,,,,,,,,,,,,,,,,,,,,10,002,2022-09-20_17h14.24.483,test2,2022.2.4,59.85969832494069,
0,0,0,0,80,0,80,0,1432.910557939,1432.910557939,1432.910557939,1432.910557939,1432.910557939,1432.910557939,1432.910557939,0.016115131000105976,[],[],[],[],[],[],[],1,-1,azul,0,['N_A'],[],[],[],[],[],[],[],1434.863991215,1434.863991215,1434.863991215,1434.863991215,1436.898679929,1436.898679929,1436.898679929,1436.898679929,1436.898679929,1436.898679929,1436.898679929,1436.898679929,1438.917785841,1438.917785841,1438.917785841,1438.917785841,,,,,,,,,,,,,,,,,,,,,,,,,,,,,,,,,,,,,,,,10,002,2022-09-20_17h14.24.483,test2,2022.2.4,59.85969832494069,
0,0,0,0,81,0,81,0,1438.917785841,1438.917785841,1438.917785841,1438.917785841,1438.917785841,1438.917785841,1438.917785841,0.016649302000132593,[],[],[],[],[],[],[],-1,-1,azul,0,['N_B'],[],[],[],[],[],[],[],1441.70436644,1441.70436644,1441.70436644,1441.70436644,1443.756881179,1443.756881179,1443.756881179,1443.756881179,1443.756881179,1443.756881179,1443.756881179,1443.756881179,1445.792194192,1445.792194192,1445.792194192,1445.792194192,,,,,,,,,,,,,,,,,,,,,,,,,,,,,,,,,,,,,,,,10,002,2022-09-20_17h14.24.483,test2,2022.2.4,59.85969832494069,
0,0,0,0,82,0,82,0,1445.792194192,1445.792194192,1445.792194192,1445.792194192,1445.792194192,1445.792194192,1445.792194192,0.017683874000113065,[],[],[],[],[],[],[],-1,-1,rojo,1,['N_B'],[],[],[],[],[],[],[],1447.611372285,1447.611372285,1447.611372285,1447.611372285,1449.646603661,1449.646603661,1449.646603661,1449.646603661,1449.646603661,1449.646603661,1449.646603661,1449.646603661,1451.665216092,1451.665216092,1451.665216092,1451.665216092,,,,,,,,,,,,,,,,,,,,,,,,,,,,,,,,,,,,,,,,10,002,2022-09-20_17h14.24.483,test2,2022.2.4,59.85969832494069,
0,0,0,0,83,0,83,0,1451.665216092,1451.665216092,1451.665216092,1451.665216092,1451.665216092,1451.665216092,1451.665216092,0.017084459999978208,[],[],[],[],[],[],[],1,-1,azul,0,['N_A'],[],[],[],[],[],[],[],1453.500705684,1453.500705684,1453.500705684,1453.500705684,1455.535789692,1455.535789692,1455.535789692,1455.535789692,1455.535789692,1455.535789692,1455.535789692,1455.535789692,1457.572753138,1457.572753138,1457.572753138,1457.572753138,,,,,,,,,,,,,,,,,,,,,,,,,,,,,,,,,,,,,,,,10,002,2022-09-20_17h14.24.483,test2,2022.2.4,59.85969832494069,
0,0,0,0,84,0,84,0,1457.572753138,1457.572753138,1457.572753138,1457.572753138,1457.572753138,1457.572753138,1457.572753138,0.016790019999916694,[],[],[],[],[],[],[],-1,-1,azul,0,['N_B'],[],[],[],[],[],[],[],1459.325296858,1459.325296858,1459.325296858,1459.325296858,1461.3773765,1461.3773765,1461.3773765,1461.3773765,1461.3773765,1461.3773765,1461.3773765,1461.3773765,1463.394630441,1463.394630441,1463.394630441,1463.394630441,,,,,,,,,,,,,,,,,,,,,,,,,,,,,,,,,,,,,,,,10,002,2022-09-20_17h14.24.483,test2,2022.2.4,59.85969832494069,
0,0,0,0,85,0,85,0,1463.394630441,1463.394630441,1463.394630441,1463.394630441,1463.394630441,1463.394630441,1463.394630441,0.016472527999894737,[],[],[],[],[],[],[],1,-1,azul,0,['N_A'],[],[],[],[],[],[],[],1465.364443942,1465.364443942,1465.364443942,1465.364443942,1467.417460749,1467.417460749,1467.417460749,1467.417460749,1467.417460749,1467.417460749,1467.417460749,1467.417460749,1469.452223993,1469.452223993,1469.452223993,1469.452223993,,,,,,,,,,,,,,,,,,,,,,,,,,,,,,,,,,,,,,,,10,002,2022-09-20_17h14.24.483,test2,2022.2.4,59.85969832494069,
0,0,0,0,86,0,86,0,1469.452223993,1469.452223993,1469.452223993,1469.452223993,1469.452223993,1469.452223993,1469.452223993,0.016407986999865898,[],[],[],[],[],[],[],-1,-1,azul,0,['N_B'],[],[],[],[],[],[],[],1470.937242141,1470.937242141,1470.937242141,1470.937242141,1472.9894614759999,1472.9894614759999,1472.9894614759999,1472.9894614759999,1472.9894614759999,1472.9894614759999,1472.9894614759999,1472.9894614759999,1475.0075918779999,1475.0075918779999,1475.0075918779999,1475.0075918779999,,,,,,,,,,,,,,,,,,,,,,,,,,,,,,,,,,,,,,,,10,002,2022-09-20_17h14.24.483,test2,2022.2.4,59.85969832494069,
0,0,0,0,87,0,87,0,1475.0075918779999,1475.0075918779999,1475.0075918779999,1475.0075918779999,1475.0075918779999,1475.0075918779999,1475.0075918779999,0.01694950599994627,[],[],[],[],[],[],[],-1,-1,rojo,0,['N_A'],[],[],[],[],[],[],[],1476.626373088,1476.626373088,1476.626373088,1476.626373088,1478.679276647,1478.679276647,1478.679276647,1478.679276647,1478.679276647,1478.679276647,1478.679276647,1478.679276647,1480.697132439,1480.697132439,1480.697132439,1480.697132439,,,,,,,,,,,,,,,,,,,,,,,,,,,,,,,,,,,,,,,,10,002,2022-09-20_17h14.24.483,test2,2022.2.4,59.85969832494069,
0,0,0,0,88,0,88,0,1480.697132439,1480.697132439,1480.697132439,1480.697132439,1480.697132439,1480.697132439,1480.697132439,0.016623405000018465,[],[],[],[],[],[],[],-1,-1,azul,0,['N_B'],[],[],[],[],[],[],[],1482.165516996,1482.165516996,1482.165516996,1482.165516996,1484.201168094,1484.201168094,1484.201168094,1484.201168094,1484.201168094,1484.201168094,1484.201168094,1484.201168094,1486.220253919,1486.220253919,1486.220253919,1486.220253919,,,,,,,,,,,,,,,,,,,,,,,,,,,,,,,,,,,,,,,,10,002,2022-09-20_17h14.24.483,test2,2022.2.4,59.85969832494069,
0,0,0,0,89,0,89,0,1486.220253919,1486.220253919,1486.220253919,1486.220253919,1486.220253919,1486.220253919,1486.220253919,0.016607281999995394,[],[],[],[],[],[],[],1,-1,azul,0,['N_A'],[],[],[],[],[],[],[],1487.906455262,1487.906455262,1487.906455262,1487.906455262,1489.940266806,1489.940266806,1489.940266806,1489.940266806,1489.940266806,1489.940266806,1489.940266806,1489.940266806,1491.9595978,1491.9595978,1491.9595978,1491.9595978,,,,,,,,,,,,,,,,,,,,,,,,,,,,,,,,,,,,,,,,10,002,2022-09-20_17h14.24.483,test2,2022.2.4,59.85969832494069,
0,0,0,0,90,0,90,0,1491.9595978,1491.9595978,1491.9595978,1491.9595978,1491.9595978,1491.9595978,1491.9595978,0.016666579000002457,[],[],[],[],[],[],[],1,1,rojo,1,['N_A'],[],[],[],[],[],[],[],1493.37924264,1493.37924264,1493.37924264,1493.37924264,1495.414101604,1495.414101604,1495.414101604,1495.414101604,1495.414101604,1495.414101604,1495.414101604,1495.414101604,1497.432256376,1497.432256376,1497.432256376,1497.432256376,,,,,,,,,,,,,,,,,,,,,,,,,,,,,,,,,,,,,,,,10,002,2022-09-20_17h14.24.483,test2,2022.2.4,59.85969832494069,
0,0,0,0,91,0,91,0,1497.432256376,1497.432256376,1497.432256376,1497.432256376,1497.432256376,1497.432256376,1497.432256376,0.016887795999991795,[],[],[],[],[],[],[],1,-1,rojo,0,['N_B'],[],[],[],[],[],[],[],1498.933678119,1498.933678119,1498.933678119,1498.933678119,1500.970712557,1500.970712557,1500.970712557,1500.970712557,1500.970712557,1500.970712557,1500.970712557,1500.970712557,1503.006692139,1503.006692139,1503.006692139,1503.006692139,,,,,,,,,,,,,,,,,,,,,,,,,,,,,,,,,,,,,,,,10,002,2022-09-20_17h14.24.483,test2,2022.2.4,59.85969832494069,
0,0,0,0,92,0,92,0,1503.006692139,1503.006692139,1503.006692139,1503.006692139,1503.006692139,1503.006692139,1503.006692139,0.016721448999987842,[],[],[],[],[],[],[],1,1,azul,1,['N_B'],[],[],[],[],[],[],[],1506.109932219,1506.109932219,1506.109932219,1506.109932219,1508.144584983,1508.144584983,1508.144584983,1508.144584983,1508.144584983,1508.144584983,1508.144584983,1508.144584983,1510.162579236,1510.162579236,1510.162579236,1510.162579236,,,,,,,,,,,,,,,,,,,,,,,,,,,,,,,,,,,,,,,,10,002,2022-09-20_17h14.24.483,test2,2022.2.4,59.85969832494069,
0,0,0,0,93,0,93,0,1510.162579236,1510.162579236,1510.162579236,1510.162579236,1510.162579236,1510.162579236,1510.162579236,0.01676166699985515,[],[],[],[],[],[],[],1,-1,azul,0,['N_A'],[],[],[],[],[],[],[],1511.865639547,1511.865639547,1511.865639547,1511.865639547,1513.90032022,1513.90032022,1513.90032022,1513.90032022,1513.90032022,1513.90032022,1513.90032022,1513.90032022,1515.919235283,1515.919235283,1515.919235283,1515.919235283,,,,,,,,,,,,,,,,,,,,,,,,,,,,,,,,,,,,,,,,10,002,2022-09-20_17h14.24.483,test2,2022.2.4,59.85969832494069,
0,0,0,0,94,0,94,0,1515.919235283,1515.919235283,1515.919235283,1515.919235283,1515.919235283,1515.919235283,1515.919235283,0.016358579999860012,[],[],[],[],[],[],[],1,-1,rojo,1,['N_A'],[],[],[],[],[],[],[],1517.187676138,1517.187676138,1517.187676138,1517.187676138,1519.223632666,1519.223632666,1519.223632666,1519.223632666,1519.223632666,1519.223632666,1519.223632666,1519.223632666,1521.258422691,1521.258422691,1521.258422691,1521.258422691,,,,,,,,,,,,,,,,,,,,,,,,,,,,,,,,,,,,,,,,10,002,2022-09-20_17h14.24.483,test2,2022.2.4,59.85969832494069,
0,0,0,0,95,0,95,0,1521.258422691,1521.258422691,1521.258422691,1521.258422691,1521.258422691,1521.258422691,1521.258422691,0.016656507999869063,[],[],[],[],[],[],[],-1,-1,azul,0,['N_B'],[],[],[],[],[],[],[],1523.279062162,1523.279062162,1523.279062162,1523.279062162,1525.33136318,1525.33136318,1525.33136318,1525.33136318,1525.33136318,1525.33136318,1525.33136318,1525.33136318,1527.348613359,1527.348613359,1527.348613359,1527.348613359,,,,,,,,,,,,,,,,,,,,,,,,,,,,,,,,,,,,,,,,10,002,2022-09-20_17h14.24.483,test2,2022.2.4,59.85969832494069,
0,0,0,0,96,0,96,0,1527.348613359,1527.348613359,1527.348613359,1527.348613359,1527.348613359,1527.348613359,1527.348613359,0.016671338999913132,[],[],[],[],[],[],[],-1,-1,rojo,1,['N_B'],[],[],[],[],[],[],[],1530.069599552,1530.069599552,1530.069599552,1530.069599552,1532.121539993,1532.121539993,1532.121539993,1532.121539993,1532.121539993,1532.121539993,1532.121539993,1532.121539993,1534.155967637,1534.155967637,1534.155967637,1534.155967637,,,,,,,,,,,,,,,,,,,,,,,,,,,,,,,,,,,,,,,,10,002,2022-09-20_17h14.24.483,test2,2022.2.4,59.85969832494069,
0,0,0,0,97,0,97,0,1534.155967637,1534.155967637,1534.155967637,1534.155967637,1534.155967637,1534.155967637,1534.155967637,0.0173073469998144,[],[],[],[],[],[],[],1,-1,azul,0,['N_A'],[],[],[],[],[],[],[],1535.976184329,1535.976184329,1535.976184329,1535.976184329,1538.0292087789999,1538.0292087789999,1538.0292087789999,1538.0292087789999,1538.0292087789999,1538.0292087789999,1538.0292087789999,1538.0292087789999,1540.063655718,1540.063655718,1540.063655718,1540.063655718,,,,,,,,,,,,,,,,,,,,,,,,,,,,,,,,,,,,,,,,10,002,2022-09-20_17h14.24.483,test2,2022.2.4,59.85969832494069,
0,0,0,0,98,0,98,0,1540.063655718,1540.063655718,1540.063655718,1540.063655718,1540.063655718,1540.063655718,1540.063655718,0.016708482000012737,[],[],[],[],[],[],[],1,-1,rojo,0,['N_B'],[],[],[],[],[],[],[],1541.665096018,1541.665096018,1541.665096018,1541.665096018,1543.717889016,1543.717889016,1543.717889016,1543.717889016,1543.717889016,1543.717889016,1543.717889016,1543.717889016,1545.7522176559999,1545.7522176559999,1545.7522176559999,1545.7522176559999,,,,,,,,,,,,,,,,,,,,,,,,,,,,,,,,,,,,,,,,10,002,2022-09-20_17h14.24.483,test2,2022.2.4,59.85969832494069,
0,0,0,0,99,0,99,0,1545.7522176559999,1545.7522176559999,1545.7522176559999,1545.7522176559999,1545.7522176559999,1545.7522176559999,1545.7522176559999,0.017063641000049756,[],[],[],[],[],[],[],1,-1,azul,0,['N_A'],[],[],[],[],[],[],[],1547.238770047,1547.238770047,1547.238770047,1547.238770047,1549.272945807,1549.272945807,1549.272945807,1549.272945807,1549.272945807,1549.272945807,1549.272945807,1549.272945807,1551.291733925,1551.291733925,1551.291733925,1551.291733925,,,,,,,,,,,,,,,,,,,,,,,,,,,,,,,,,,,,,,,,10,002,2022-09-20_17h14.24.483,test2,2022.2.4,59.85969832494069,
0,0,0,0,100,0,100,0,1551.291733925,1551.291733925,1551.291733925,1551.291733925,1551.291733925,1551.291733925,1551.291733925,0.01651511699992625,[],[],[],[],[],[],[],1,1,rojo,1,['N_A'],[],[],[],[],[],[],[],1553.227276942,1553.227276942,1553.227276942,1553.227276942,1555.263221695,1555.263221695,1555.263221695,1555.263221695,1555.263221695,1555.263221695,1555.263221695,1555.263221695,1557.281690446,1557.281690446,1557.281690446,1557.281690446,,,,,,,,,,,,,,,,,,,,,,,,,,,,,,,,,,,,,,,,10,002,2022-09-20_17h14.24.483,test2,2022.2.4,59.85969832494069,
0,0,0,0,101,0,101,0,1557.281690446,1557.281690446,1557.281690446,1557.281690446,1557.281690446,1557.281690446,1557.281690446,0.016327273999877434,[],[],[],[],[],[],[],1,1,rojo,0,['N_B'],[],[],[],[],[],[],[],1559.7531597749999,1559.7531597749999,1559.7531597749999,1559.7531597749999,1561.787559921,1561.787559921,1561.787559921,1561.787559921,1561.787559921,1561.787559921,1561.787559921,1561.787559921,1563.805699845,1563.805699845,1563.805699845,1563.805699845,,,,,,,,,,,,,,,,,,,,,,,,,,,,,,,,,,,,,,,,10,002,2022-09-20_17h14.24.483,test2,2022.2.4,59.85969832494069,
0,0,0,0,102,0,102,0,1563.805699845,1563.805699845,1563.805699845,1563.805699845,1563.805699845,1563.805699845,1563.805699845,0.0162171329998273,[],[],[],[],[],[],[],1,-1,azul,0,['N_A'],[],[],[],[],[],[],[],1565.375503092,1565.375503092,1565.375503092,1565.375503092,1567.426964021,1567.426964021,1567.426964021,1567.426964021,1567.426964021,1567.426964021,1567.426964021,1567.426964021,1569.445280404,1569.445280404,1569.445280404,1569.445280404,,,,,,,,,,,,,,,,,,,,,,,,,,,,,,,,,,,,,,,,10,002,2022-09-20_17h14.24.483,test2,2022.2.4,59.85969832494069,
0,0,0,0,103,0,103,0,1569.445280404,1569.445280404,1569.445280404,1569.445280404,1569.445280404,1569.445280404,1569.445280404,0.016663595999943936,[],[],[],[],[],[],[],-1,-1,azul,0,['N_B'],[],[],[],[],[],[],[],1571.048228902,1571.048228902,1571.048228902,1571.048228902,1573.100090659,1573.100090659,1573.100090659,1573.100090659,1573.100090659,1573.100090659,1573.100090659,1573.100090659,1575.118294418,1575.118294418,1575.118294418,1575.118294418,,,,,,,,,,,,,,,,,,,,,,,,,,,,,,,,,,,,,,,,10,002,2022-09-20_17h14.24.483,test2,2022.2.4,59.85969832494069,
0,0,0,0,104,0,104,0,1575.118294418,1575.118294418,1575.118294418,1575.118294418,1575.118294418,1575.118294418,1575.118294418,0.016494297999997798,[],[],[],[],[],[],[],1,-1,azul,1,['N_B'],[],[],[],[],[],[],[],1576.535908503,1576.535908503,1576.535908503,1576.535908503,1578.589895891,1578.589895891,1578.589895891,1578.589895891,1578.589895891,1578.589895891,1578.589895891,1578.589895891,1580.624007728,1580.624007728,1580.624007728,1580.624007728,,,,,,,,,,,,,,,,,,,,,,,,,,,,,,,,,,,,,,,,10,002,2022-09-20_17h14.24.483,test2,2022.2.4,59.85969832494069,
0,0,0,0,105,0,105,0,1580.624007728,1580.624007728,1580.624007728,1580.624007728,1580.624007728,1580.624007728,1580.624007728,0.016588732000172968,[],[],[],[],[],[],[],1,-1,azul,0,['N_A'],[],[],[],[],[],[],[],1582.0420457339999,1582.0420457339999,1582.0420457339999,1582.0420457339999,1584.096705082,1584.096705082,1584.096705082,1584.096705082,1584.096705082,1584.096705082,1584.096705082,1584.096705082,1586.131436723,1586.131436723,1586.131436723,1586.131436723,,,,,,,,,,,,,,,,,,,,,,,,,,,,,,,,,,,,,,,,10,002,2022-09-20_17h14.24.483,test2,2022.2.4,59.85969832494069,
0,0,0,0,106,0,106,0,1586.131436723,1586.131436723,1586.131436723,1586.131436723,1586.131436723,1586.131436723,1586.131436723,0.016717558999971516,[],[],[],[],[],[],[],1,-1,rojo,0,['N_B'],[],[],[],[],[],[],[],1588.233710739,1588.233710739,1588.233710739,1588.233710739,1590.2855276149999,1590.2855276149999,1590.2855276149999,1590.2855276149999,1590.2855276149999,1590.2855276149999,1590.2855276149999,1590.2855276149999,1592.321288975,1592.321288975,1592.321288975,1592.321288975,,,,,,,,,,,,,,,,,,,,,,,,,,,,,,,,,,,,,,,,10,002,2022-09-20_17h14.24.483,test2,2022.2.4,59.85969832494069,
0,0,0,0,107,0,107,0,1592.321288975,1592.321288975,1592.321288975,1592.321288975,1592.321288975,1592.321288975,1592.321288975,0.017016822999949,[],[],[],[],[],[],[],1,-1,azul,1,['N_B'],[],[],[],[],[],[],[],1593.738572923,1593.738572923,1593.738572923,1593.738572923,1595.792377088,1595.792377088,1595.792377088,1595.792377088,1595.792377088,1595.792377088,1595.792377088,1595.792377088,1597.809842298,1597.809842298,1597.809842298,1597.809842298,,,,,,,,,,,,,,,,,,,,,,,,,,,,,,,,,,,,,,,,10,002,2022-09-20_17h14.24.483,test2,2022.2.4,59.85969832494069,
0,0,0,0,108,0,108,0,1597.809842298,1597.809842298,1597.809842298,1597.809842298,1597.809842298,1597.809842298,1597.809842298,0.016750348999948983,[],[],[],[],[],[],[],1,-1,azul,0,['N_A'],[],[],[],[],[],[],[],1599.845420504,1599.845420504,1599.845420504,1599.845420504,1601.898062069,1601.898062069,1601.898062069,1601.898062069,1601.898062069,1601.898062069,1601.898062069,1601.898062069,1603.932532435,1603.932532435,1603.932532435,1603.932532435,,,,,,,,,,,,,,,,,,,,,,,,,,,,,,,,,,,,,,,,10,002,2022-09-20_17h14.24.483,test2,2022.2.4,59.85969832494069,
0,0,0,0,109,0,109,0,1603.932532435,1603.932532435,1603.932532435,1603.932532435,1603.932532435,1603.932532435,1603.932532435,0.017231632999937574,[],[],[],[],[],[],[],-1,-1,azul,1,['N_A'],[],[],[],[],[],[],[],1605.536320362,1605.536320362,1605.536320362,1605.536320362,1607.587285381,1607.587285381,1607.587285381,1607.587285381,1607.587285381,1607.587285381,1607.587285381,1607.587285381,1609.623591106,1609.623591106,1609.623591106,1609.623591106,,,,,,,,,,,,,,,,,,,,,,,,,,,,,,,,,,,,,,,,10,002,2022-09-20_17h14.24.483,test2,2022.2.4,59.85969832494069,
0,0,0,0,110,0,110,0,1609.623591106,1609.623591106,1609.623591106,1609.623591106,1609.623591106,1609.623591106,1609.623591106,0.016199041999925612,[],[],[],[],[],[],[],1,-1,rojo,0,['N_B'],[],[],[],[],[],[],[],1611.0751604519999,1611.0751604519999,1611.0751604519999,1611.0751604519999,1613.1284385899999,1613.1284385899999,1613.1284385899999,1613.1284385899999,1613.1284385899999,1613.1284385899999,1613.1284385899999,1613.1284385899999,1615.164323706,1615.164323706,1615.164323706,1615.164323706,,,,,,,,,,,,,,,,,,,,,,,,,,,,,,,,,,,,,,,,10,002,2022-09-20_17h14.24.483,test2,2022.2.4,59.85969832494069,
0,0,0,0,111,0,111,0,1615.164323706,1615.164323706,1615.164323706,1615.164323706,1615.164323706,1615.164323706,1615.164323706,0.016621294000060516,[],[],[],[],[],[],[],1,-1,azul,1,['N_B'],[],[],[],[],[],[],[],1616.549647345,1616.549647345,1616.549647345,1616.549647345,1618.600563341,1618.600563341,1618.600563341,1618.600563341,1618.600563341,1618.600563341,1618.600563341,1618.600563341,1620.635863511,1620.635863511,1620.635863511,1620.635863511,,,,,,,,,,,,,,,,,,,,,,,,,,,,,,,,,,,,,,,,10,002,2022-09-20_17h14.24.483,test2,2022.2.4,59.85969832494069,
0,0,0,0,112,0,112,0,1620.635863511,1620.635863511,1620.635863511,1620.635863511,1620.635863511,1620.635863511,1620.635863511,0.016742855000074996,[],[],[],[],[],[],[],1,-1,azul,1,['N_B'],[],[],[],[],[],[],[],1622.136136886,1622.136136886,1622.136136886,1622.136136886,1624.189403969,1624.189403969,1624.189403969,1624.189403969,1624.189403969,1624.189403969,1624.189403969,1624.189403969,1626.2258663569999,1626.2258663569999,1626.2258663569999,1626.2258663569999,,,,,,,,,,,,,,,,,,,,,,,,,,,,,,,,,,,,,,,,10,002,2022-09-20_17h14.24.483,test2,2022.2.4,59.85969832494069,
0,0,0,0,113,0,113,0,1626.2258663569999,1626.2258663569999,1626.2258663569999,1626.2258663569999,1626.2258663569999,1626.2258663569999,1626.2258663569999,0.01693758200008233,[],[],[],[],[],[],[],-1,-1,rojo,0,['N_A'],[],[],[],[],[],[],[],1627.9598248829998,1627.9598248829998,1627.9598248829998,1627.9598248829998,1630.0129958480002,1630.0129958480002,1630.0129958480002,1630.0129958480002,1630.0129958480002,1630.0129958480002,1630.0129958480002,1630.0129958480002,1632.0477767030002,1632.0477767030002,1632.0477767030002,1632.0477767030002,,,,,,,,,,,,,,,,,,,,,,,,,,,,,,,,,,,,,,,,10,002,2022-09-20_17h14.24.483,test2,2022.2.4,59.85969832494069,
0,0,0,0,114,0,114,0,1632.0477767030002,1632.0477767030002,1632.0477767030002,1632.0477767030002,1632.0477767030002,1632.0477767030002,1632.0477767030002,0.017285156000070856,[],[],[],[],[],[],[],-1,-1,azul,1,['N_A'],[],[],[],[],[],[],[],1633.3995445760002,1633.3995445760002,1633.3995445760002,1633.3995445760002,1635.4523292939998,1635.4523292939998,1635.4523292939998,1635.4523292939998,1635.4523292939998,1635.4523292939998,1635.4523292939998,1635.4523292939998,1637.4873064949998,1637.4873064949998,1637.4873064949998,1637.4873064949998,,,,,,,,,,,,,,,,,,,,,,,,,,,,,,,,,,,,,,,,10,002,2022-09-20_17h14.24.483,test2,2022.2.4,59.85969832494069,
0,0,0,0,115,0,115,0,1637.4873064949998,1637.4873064949998,1637.4873064949998,1637.4873064949998,1637.4873064949998,1637.4873064949998,1637.4873064949998,0.016524906000086048,[],[],[],[],[],[],[],-1,-1,azul,0,['N_B'],[],[],[],[],[],[],[],1638.8550122030001,1638.8550122030001,1638.8550122030001,1638.8550122030001,1640.9090969059998,1640.9090969059998,1640.9090969059998,1640.9090969059998,1640.9090969059998,1640.9090969059998,1640.9090969059998,1640.9090969059998,1642.945219542,1642.945219542,1642.945219542,1642.945219542,,,,,,,,,,,,,,,,,,,,,,,,,,,,,,,,,,,,,,,,10,002,2022-09-20_17h14.24.483,test2,2022.2.4,59.85969832494069,
0,0,0,0,116,0,116,0,1642.945219542,1642.945219542,1642.945219542,1642.945219542,1642.945219542,1642.945219542,1642.945219542,0.016452929000024596,[],[],[],[],[],[],[],1,-1,azul,0,['N_A'],[],[],[],[],[],[],[],1644.2959580809998,1644.2959580809998,1644.2959580809998,1644.2959580809998,1646.347570196,1646.347570196,1646.347570196,1646.347570196,1646.347570196,1646.347570196,1646.347570196,1646.347570196,1648.365616558,1648.365616558,1648.365616558,1648.365616558,,,,,,,,,,,,,,,,,,,,,,,,,,,,,,,,,,,,,,,,10,002,2022-09-20_17h14.24.483,test2,2022.2.4,59.85969832494069,
0,0,0,0,117,0,117,0,1648.365616558,1648.365616558,1648.365616558,1648.365616558,1648.365616558,1648.365616558,1648.365616558,0.01651712300008512,[],[],[],[],[],[],[],1,-1,rojo,0,['N_B'],[],[],[],[],[],[],[],1649.816851606,1649.816851606,1649.816851606,1649.816851606,1651.869839261,1651.869839261,1651.869839261,1651.869839261,1651.869839261,1651.869839261,1651.869839261,1651.869839261,1653.9054168799998,1653.9054168799998,1653.9054168799998,1653.9054168799998,,,,,,,,,,,,,,,,,,,,,,,,,,,,,,,,,,,,,,,,10,002,2022-09-20_17h14.24.483,test2,2022.2.4,59.85969832494069,
0,0,0,0,118,0,118,0,1653.9054168799998,1653.9054168799998,1653.9054168799998,1653.9054168799998,1653.9054168799998,1653.9054168799998,1653.9054168799998,0.016741840000122465,[],[],[],[],[],[],[],1,-1,azul,0,['N_A'],[],[],[],[],[],[],[],1655.4730854509999,1655.4730854509999,1655.4730854509999,1655.4730854509999,1657.526544466,1657.526544466,1657.526544466,1657.526544466,1657.526544466,1657.526544466,1657.526544466,1657.526544466,1659.561845021,1659.561845021,1659.561845021,1659.561845021,,,,,,,,,,,,,,,,,,,,,,,,,,,,,,,,,,,,,,,,10,002,2022-09-20_17h14.24.483,test2,2022.2.4,59.85969832494069,
0,0,0,0,119,0,119,0,1659.561845021,1659.561845021,1659.561845021,1659.561845021,1659.561845021,1659.561845021,1659.561845021,0.01657838399978573,[],[],[],[],[],[],[],1,-1,rojo,0,['N_B'],[],[],[],[],[],[],[],1660.980833471,1660.980833471,1660.980833471,1660.980833471,1663.03341417,1663.03341417,1663.03341417,1663.03341417,1663.03341417,1663.03341417,1663.03341417,1663.03341417,1665.0691990290002,1665.0691990290002,1665.0691990290002,1665.0691990290002,,,,,,,,,,,,,,,,,,,,,,,,,,,,,,,,,,,,,,,,10,002,2022-09-20_17h14.24.483,test2,2022.2.4,59.85969832494069,
0,0,0,0,120,0,120,0,1665.0691990290002,1665.0691990290002,1665.0691990290002,1665.0691990290002,1665.0691990290002,1665.0691990290002,1665.0691990290002,0.01679356300019208,[],[],[],[],[],[],[],1,-1,azul,0,['N_A'],[],[],[],[],[],[],[],1666.502350183,1666.502350183,1666.502350183,1666.502350183,1668.555449388,1668.555449388,1668.555449388,1668.555449388,1668.555449388,1668.555449388,1668.555449388,1668.555449388,1670.5731547310002,1670.5731547310002,1670.5731547310002,1670.5731547310002,,,,,,,,,,,,,,,,,,,,,,,,,,,,,,,,,,,,,,,,10,002,2022-09-20_17h14.24.483,test2,2022.2.4,59.85969832494069,
0,0,0,0,121,0,121,0,1670.5731547310002,1670.5731547310002,1670.5731547310002,1670.5731547310002,1670.5731547310002,1670.5731547310002,1670.5731547310002,0.016447042999971018,[],[],[],[],[],[],[],1,-1,rojo,1,['N_A'],[],[],[],[],[],[],[],1671.859336897,1671.859336897,1671.859336897,1671.859336897,1673.911141571,1673.911141571,1673.911141571,1673.911141571,1673.911141571,1673.911141571,1673.911141571,1673.911141571,1675.92916032,1675.92916032,1675.92916032,1675.92916032,,,,,,,,,,,,,,,,,,,,,,,,,,,,,,,,,,,,,,,,10,002,2022-09-20_17h14.24.483,test2,2022.2.4,59.85969832494069,
0,0,0,0,122,0,122,0,1675.92916032,1675.92916032,1675.92916032,1675.92916032,1675.92916032,1675.92916032,1675.92916032,0.016292711999994935,[],[],[],[],[],[],[],1,-1,rojo,1,['N_A'],[],[],[],[],[],[],[],1677.282919704,1677.282919704,1677.282919704,1677.282919704,1679.3156375469998,1679.3156375469998,1679.3156375469998,1679.3156375469998,1679.3156375469998,1679.3156375469998,1679.3156375469998,1679.3156375469998,1681.3353164649998,1681.3353164649998,1681.3353164649998,1681.3353164649998,,,,,,,,,,,,,,,,,,,,,,,,,,,,,,,,,,,,,,,,10,002,2022-09-20_17h14.24.483,test2,2022.2.4,59.85969832494069,
0,0,0,0,123,0,123,0,1681.3353164649998,1681.3353164649998,1681.3353164649998,1681.3353164649998,1681.3353164649998,1681.3353164649998,1681.3353164649998,0.01634494000018094,[],[],[],[],[],[],[],-1,1,azul,1,['N_A'],[],[],[],[],[],[],[],1684.223433019,1684.223433019,1684.223433019,1684.223433019,1686.257985183,1686.257985183,1686.257985183,1686.257985183,1686.257985183,1686.257985183,1686.257985183,1686.257985183,1688.276145284,1688.276145284,1688.276145284,1688.276145284,,,,,,,,,,,,,,,,,,,,,,,,,,,,,,,,,,,,,,,,10,002,2022-09-20_17h14.24.483,test2,2022.2.4,59.85969832494069,
0,0,0,0,124,0,124,0,1688.276145284,1688.276145284,1688.276145284,1688.276145284,1688.276145284,1688.276145284,1688.276145284,0.01610873099980381,[],[],[],[],[],[],[],1,1,rojo,1,['N_A'],[],[],[],[],[],[],[],1691.413952038,1691.413952038,1691.413952038,1691.413952038,1693.4483209979999,1693.4483209979999,1693.4483209979999,1693.4483209979999,1693.4483209979999,1693.4483209979999,1693.4483209979999,1693.4483209979999,1695.484987876,1695.484987876,1695.484987876,1695.484987876,,,,,,,,,,,,,,,,,,,,,,,,,,,,,,,,,,,,,,,,10,002,2022-09-20_17h14.24.483,test2,2022.2.4,59.85969832494069,
0,0,0,0,125,0,125,0,1695.484987876,1695.484987876,1695.484987876,1695.484987876,1695.484987876,1695.484987876,1695.484987876,0.016511965000063356,[],[],[],[],[],[],[],1,-1,rojo,0,['N_B'],[],[],[],[],[],[],[],1697.136852471,1697.136852471,1697.136852471,1697.136852471,1699.189460816,1699.189460816,1699.189460816,1699.189460816,1699.189460816,1699.189460816,1699.189460816,1699.189460816,1701.22415005,1701.22415005,1701.22415005,1701.22415005,,,,,,,,,,,,,,,,,,,,,,,,,,,,,,,,,,,,,,,,10,002,2022-09-20_17h14.24.483,test2,2022.2.4,59.85969832494069,
0,0,0,0,126,0,126,0,1701.22415005,1701.22415005,1701.22415005,1701.22415005,1701.22415005,1701.22415005,1701.22415005,0.01662237600021399,[],[],[],[],[],[],[],-1,-1,rojo,0,['N_A'],[],[],[],[],[],[],[],1702.8098561719999,1702.8098561719999,1702.8098561719999,1702.8098561719999,1704.8624054729999,1704.8624054729999,1704.8624054729999,1704.8624054729999,1704.8624054729999,1704.8624054729999,1704.8624054729999,1704.8624054729999,1706.897117252,1706.897117252,1706.897117252,1706.897117252,,,,,,,,,,,,,,,,,,,,,,,,,,,,,,,,,,,,,,,,10,002,2022-09-20_17h14.24.483,test2,2022.2.4,59.85969832494069,
0,0,0,0,127,0,127,0,1706.897117252,1706.897117252,1706.897117252,1706.897117252,1706.897117252,1706.897117252,1706.897117252,0.016679614999702608,[],[],[],[],[],[],[],-1,-1,azul,1,['N_A'],[],[],[],[],[],[],[],1708.331649498,1708.331649498,1708.331649498,1708.331649498,1710.367370292,1710.367370292,1710.367370292,1710.367370292,1710.367370292,1710.367370292,1710.367370292,1710.367370292,1712.4042464469999,1712.4042464469999,1712.4042464469999,1712.4042464469999,,,,,,,,,,,,,,,,,,,,,,,,,,,,,,,,,,,,,,,,10,002,2022-09-20_17h14.24.483,test2,2022.2.4,59.85969832494069,
0,0,0,0,128,0,128,0,1712.4042464469999,1712.4042464469999,1712.4042464469999,1712.4042464469999,1712.4042464469999,1712.4042464469999,1712.4042464469999,0.016513857999598258,[],[],[],[],[],[],[],-1,1,azul,1,['N_A'],[],[],[],[],[],[],[],1715.0887903540001,1715.0887903540001,1715.0887903540001,1715.0887903540001,1717.1245132479999,1717.1245132479999,1717.1245132479999,1717.1245132479999,1717.1245132479999,1717.1245132479999,1717.1245132479999,1717.1245132479999,1719.1613132480002,1719.1613132480002,1719.1613132480002,1719.1613132480002,,,,,,,,,,,,,,,,,,,,,,,,,,,,,,,,,,,,,,,,10,002,2022-09-20_17h14.24.483,test2,2022.2.4,59.85969832494069,
0,0,0,0,129,0,129,0,1719.1613132480002,1719.1613132480002,1719.1613132480002,1719.1613132480002,1719.1613132480002,1719.1613132480002,1719.1613132480002,0.016579570999965654,[],[],[],[],[],[],[],-1,-1,azul,1,['N_A'],[],[],[],[],[],[],[],1720.830279545,1720.830279545,1720.830279545,1720.830279545,1722.881405875,1722.881405875,1722.881405875,1722.881405875,1722.881405875,1722.881405875,1722.881405875,1722.881405875,1724.917903,1724.917903,1724.917903,1724.917903,,,,,,,,,,,,,,,,,,,,,,,,,,,,,,,,,,,,,,,,10,002,2022-09-20_17h14.24.483,test2,2022.2.4,59.85969832494069,
0,0,0,0,130,0,130,0,1724.917903,1724.917903,1724.917903,1724.917903,1724.917903,1724.917903,1724.917903,0.016579730000103154,[],[],[],[],[],[],[],1,-1,rojo,0,['N_B'],[],[],[],[],[],[],[],1726.318165864,1726.318165864,1726.318165864,1726.318165864,1728.3534064189998,1728.3534064189998,1728.3534064189998,1728.3534064189998,1728.3534064189998,1728.3534064189998,1728.3534064189998,1728.3534064189998,1730.3903091460002,1730.3903091460002,1730.3903091460002,1730.3903091460002,,,,,,,,,,,,,,,,,,,,,,,,,,,,,,,,,,,,,,,,10,002,2022-09-20_17h14.24.483,test2,2022.2.4,59.85969832494069,
0,0,0,0,131,0,131,0,1730.3903091460002,1730.3903091460002,1730.3903091460002,1730.3903091460002,1730.3903091460002,1730.3903091460002,1730.3903091460002,0.01654757000005702,[],[],[],[],[],[],[],1,1,azul,1,['N_B'],[],[],[],[],[],[],[],1731.925413715,1731.925413715,1731.925413715,1731.925413715,1733.959360767,1733.959360767,1733.959360767,1733.959360767,1733.959360767,1733.959360767,1733.959360767,1733.959360767,1735.97865645,1735.97865645,1735.97865645,1735.97865645,,,,,,,,,,,,,,,,,,,,,,,,,,,,,,,,,,,,,,,,10,002,2022-09-20_17h14.24.483,test2,2022.2.4,59.85969832494069,
0,0,0,0,132,0,132,0,1735.97865645,1735.97865645,1735.97865645,1735.97865645,1735.97865645,1735.97865645,1735.97865645,0.016447044999949867,[],[],[],[],[],[],[],1,-1,azul,1,['N_B'],[],[],[],[],[],[],[],1737.363414299,1737.363414299,1737.363414299,1737.363414299,1739.416466997,1739.416466997,1739.416466997,1739.416466997,1739.416466997,1739.416466997,1739.416466997,1739.416466997,1741.4524548079999,1741.4524548079999,1741.4524548079999,1741.4524548079999,,,,,,,,,,,,,,,,,,,,,,,,,,,,,,,,,,,,,,,,10,002,2022-09-20_17h14.24.483,test2,2022.2.4,59.85969832494069,
0,0,0,0,133,0,133,0,1741.4524548079999,1741.4524548079999,1741.4524548079999,1741.4524548079999,1741.4524548079999,1741.4524548079999,1741.4524548079999,0.016627761000108876,[],[],[],[],[],[],[],1,-1,azul,1,['N_B'],[],[],[],[],[],[],[],1742.8367285260001,1742.8367285260001,1742.8367285260001,1742.8367285260001,1744.871061981,1744.871061981,1744.871061981,1744.871061981,1744.871061981,1744.871061981,1744.871061981,1744.871061981,1746.8907306629999,1746.8907306629999,1746.8907306629999,1746.8907306629999,,,,,,,,,,,,,,,,,,,,,,,,,,,,,,,,,,,,,,,,10,002,2022-09-20_17h14.24.483,test2,2022.2.4,59.85969832494069,
0,0,0,0,134,0,134,0,1746.8907306629999,1746.8907306629999,1746.8907306629999,1746.8907306629999,1746.8907306629999,1746.8907306629999,1746.8907306629999,0.016475650999836944,[],[],[],[],[],[],[],1,1,azul,0,['N_A'],[],[],[],[],[],[],[],1748.610201299,1748.610201299,1748.610201299,1748.610201299,1750.6444178319998,1750.6444178319998,1750.6444178319998,1750.6444178319998,1750.6444178319998,1750.6444178319998,1750.6444178319998,1750.6444178319998,1752.6641421519998,1752.6641421519998,1752.6641421519998,1752.6641421519998,,,,,,,,,,,,,,,,,,,,,,,,,,,,,,,,,,,,,,,,10,002,2022-09-20_17h14.24.483,test2,2022.2.4,59.85969832494069,
0,0,0,0,135,0,135,0,1752.6641421519998,1752.6641421519998,1752.6641421519998,1752.6641421519998,1752.6641421519998,1752.6641421519998,1752.6641421519998,0.016222455999923113,[],[],[],[],[],[],[],-1,-1,azul,0,['N_B'],[],[],[],[],[],[],[],1754.250477694,1754.250477694,1754.250477694,1754.250477694,1756.3024589010001,1756.3024589010001,1756.3024589010001,1756.3024589010001,1756.3024589010001,1756.3024589010001,1756.3024589010001,1756.3024589010001,1758.3371226489999,1758.3371226489999,1758.3371226489999,1758.3371226489999,,,,,,,,,,,,,,,,,,,,,,,,,,,,,,,,,,,,,,,,10,002,2022-09-20_17h14.24.483,test2,2022.2.4,59.85969832494069,
0,0,0,0,136,0,136,0,1758.3371226489999,1758.3371226489999,1758.3371226489999,1758.3371226489999,1758.3371226489999,1758.3371226489999,1758.3371226489999,0.016951500999766722,[],[],[],[],[],[],[],1,-1,azul,0,['N_A'],[],[],[],[],[],[],[],1760.056326803,1760.056326803,1760.056326803,1760.056326803,1762.1091553840001,1762.1091553840001,1762.1091553840001,1762.1091553840001,1762.1091553840001,1762.1091553840001,1762.1091553840001,1762.1091553840001,1764.144531732,1764.144531732,1764.144531732,1764.144531732,,,,,,,,,,,,,,,,,,,,,,,,,,,,,,,,,,,,,,,,10,002,2022-09-20_17h14.24.483,test2,2022.2.4,59.85969832494069,
0,0,0,0,137,0,137,0,1764.144531732,1764.144531732,1764.144531732,1764.144531732,1764.144531732,1764.144531732,1764.144531732,0.01664720999997371,[],[],[],[],[],[],[],1,-1,rojo,0,['N_B'],[],[],[],[],[],[],[],1765.646199162,1765.646199162,1765.646199162,1765.646199162,1767.679627518,1767.679627518,1767.679627518,1767.679627518,1767.679627518,1767.679627518,1767.679627518,1767.679627518,1769.6991689349998,1769.6991689349998,1769.6991689349998,1769.6991689349998,,,,,,,,,,,,,,,,,,,,,,,,,,,,,,,,,,,,,,,,10,002,2022-09-20_17h14.24.483,test2,2022.2.4,59.85969832494069,
0,0,0,0,138,0,138,0,1769.6991689349998,1769.6991689349998,1769.6991689349998,1769.6991689349998,1769.6991689349998,1769.6991689349998,1769.6991689349998,0.01631262199998673,[],[],[],[],[],[],[],-1,1,rojo,1,['N_B'],[],[],[],[],[],[],[],1773.5046720770001,1773.5046720770001,1773.5046720770001,1773.5046720770001,1775.538726959,1775.538726959,1775.538726959,1775.538726959,1775.538726959,1775.538726959,1775.538726959,1775.538726959,1777.5761568489997,1777.5761568489997,1777.5761568489997,1777.5761568489997,,,,,,,,,,,,,,,,,,,,,,,,,,,,,,,,,,,,,,,,10,002,2022-09-20_17h14.24.483,test2,2022.2.4,59.85969832494069,
0,0,0,0,139,0,139,0,1777.5761568489997,1777.5761568489997,1777.5761568489997,1777.5761568489997,1777.5761568489997,1777.5761568489997,1777.5761568489997,0.01638475899972036,[],[],[],[],[],[],[],1,-1,azul,1,['N_B'],[],[],[],[],[],[],[],1785.1681543159998,1785.1681543159998,1785.1681543159998,1785.1681543159998,1787.219271768,1787.219271768,1787.219271768,1787.219271768,1787.219271768,1787.219271768,1787.219271768,1787.219271768,1789.255384905,1789.255384905,1789.255384905,1789.255384905,,,,,,,,,,,,,,,,,,,,,,,,,,,,,,,,,,,,,,,,10,002,2022-09-20_17h14.24.483,test2,2022.2.4,59.85969832494069,
0,0,0,0,140,0,140,0,1789.255384905,1789.255384905,1789.255384905,1789.255384905,1789.255384905,1789.255384905,1789.255384905,0.01714163799988455,[],[],[],[],[],[],[],1,-1,azul,0,['N_A'],[],[],[],[],[],[],[],1790.6903409870001,1790.6903409870001,1790.6903409870001,1790.6903409870001,1792.742201568,1792.742201568,1792.742201568,1792.742201568,1792.742201568,1792.742201568,1792.742201568,1792.742201568,1794.7787390600001,1794.7787390600001,1794.7787390600001,1794.7787390600001,,,,,,,,,,,,,,,,,,,,,,,,,,,,,,,,,,,,,,,,10,002,2022-09-20_17h14.24.483,test2,2022.2.4,59.85969832494069,
0,0,0,0,141,0,141,0,1794.7787390600001,1794.7787390600001,1794.7787390600001,1794.7787390600001,1794.7787390600001,1794.7787390600001,1794.7787390600001,0.016482910999911837,[],[],[],[],[],[],[],1,-1,rojo,1,['N_A'],[],[],[],[],[],[],[],1796.262043758,1796.262043758,1796.262043758,1796.262043758,1798.315476875,1798.315476875,1798.315476875,1798.315476875,1798.315476875,1798.315476875,1798.315476875,1798.315476875,1800.3506889209998,1800.3506889209998,1800.3506889209998,1800.3506889209998,,,,,,,,,,,,,,,,,,,,,,,,,,,,,,,,,,,,,,,,10,002,2022-09-20_17h14.24.483,test2,2022.2.4,59.85969832494069,
0,0,0,0,142,0,142,0,1800.3506889209998,1800.3506889209998,1800.3506889209998,1800.3506889209998,1800.3506889209998,1800.3506889209998,1800.3506889209998,0.016675858999860793,[],[],[],[],[],[],[],1,-1,rojo,0,['N_B'],[],[],[],[],[],[],[],1801.8517340039998,1801.8517340039998,1801.8517340039998,1801.8517340039998,1803.9053728939998,1803.9053728939998,1803.9053728939998,1803.9053728939998,1803.9053728939998,1803.9053728939998,1803.9053728939998,1803.9053728939998,1805.9409366959999,1805.9409366959999,1805.9409366959999,1805.9409366959999,,,,,,,,,,,,,,,,,,,,,,,,,,,,,,,,,,,,,,,,10,002,2022-09-20_17h14.24.483,test2,2022.2.4,59.85969832494069,
0,0,0,0,143,0,143,0,1805.9409366959999,1805.9409366959999,1805.9409366959999,1805.9409366959999,1805.9409366959999,1805.9409366959999,1805.9409366959999,0.016306876000271586,[],[],[],[],[],[],[],1,-1,azul,1,['N_B'],[],[],[],[],[],[],[],1807.308293768,1807.308293768,1807.308293768,1807.308293768,1809.3607015960001,1809.3607015960001,1809.3607015960001,1809.3607015960001,1809.3607015960001,1809.3607015960001,1809.3607015960001,1809.3607015960001,1811.3965095459998,1811.3965095459998,1811.3965095459998,1811.3965095459998,,,,,,,,,,,,,,,,,,,,,,,,,,,,,,,,,,,,,,,,10,002,2022-09-20_17h14.24.483,test2,2022.2.4,59.85969832494069,
0,0,0,0,144,0,144,0,1811.3965095459998,1811.3965095459998,1811.3965095459998,1811.3965095459998,1811.3965095459998,1811.3965095459998,1811.3965095459998,0.017785964000267995,[],[],[],[],[],[],[],1,-1,azul,0,['N_A'],[],[],[],[],[],[],[],1813.2325835359998,1813.2325835359998,1813.2325835359998,1813.2325835359998,1815.284268763,1815.284268763,1815.284268763,1815.284268763,1815.284268763,1815.284268763,1815.284268763,1815.284268763,1817.3192688999998,1817.3192688999998,1817.3192688999998,1817.3192688999998,,,,,,,,,,,,,,,,,,,,,,,,,,,,,,,,,,,,,,,,10,002,2022-09-20_17h14.24.483,test2,2022.2.4,59.85969832494069,
0,0,0,0,145,0,145,0,1817.3192688999998,1817.3192688999998,1817.3192688999998,1817.3192688999998,1817.3192688999998,1817.3192688999998,1817.3192688999998,0.016389936999985366,[],[],[],[],[],[],[],-1,-1,azul,1,['N_A'],[],[],[],[],[],[],[],1818.704604047,1818.704604047,1818.704604047,1818.704604047,1820.7574310629998,1820.7574310629998,1820.7574310629998,1820.7574310629998,1820.7574310629998,1820.7574310629998,1820.7574310629998,1820.7574310629998,1822.774750983,1822.774750983,1822.774750983,1822.774750983,,,,,,,,,,,,,,,,,,,,,,,,,,,,,,,,,,,,,,,,10,002,2022-09-20_17h14.24.483,test2,2022.2.4,59.85969832494069,
0,0,0,0,146,0,146,0,1822.774750983,1822.774750983,1822.774750983,1822.774750983,1822.774750983,1822.774750983,1822.774750983,0.01618087099996046,[],[],[],[],[],[],[],-1,-1,azul,1,['N_A'],[],[],[],[],[],[],[],1824.41082486,1824.41082486,1824.41082486,1824.41082486,1826.462103511,1826.462103511,1826.462103511,1826.462103511,1826.462103511,1826.462103511,1826.462103511,1826.462103511,1828.498621197,1828.498621197,1828.498621197,1828.498621197,,,,,,,,,,,,,,,,,,,,,,,,,,,,,,,,,,,,,,,,10,002,2022-09-20_17h14.24.483,test2,2022.2.4,59.85969832494069,
0,0,0,0,147,0,147,0,1828.498621197,1828.498621197,1828.498621197,1828.498621197,1828.498621197,1828.498621197,1828.498621197,0.01691746799997418,[],[],[],[],[],[],[],-1,-1,azul,0,['N_B'],[],[],[],[],[],[],[],1830.050352317,1830.050352317,1830.050352317,1830.050352317,1832.102508945,1832.102508945,1832.102508945,1832.102508945,1832.102508945,1832.102508945,1832.102508945,1832.102508945,1834.1201926590002,1834.1201926590002,1834.1201926590002,1834.1201926590002,,,,,,,,,,,,,,,,,,,,,,,,,,,,,,,,,,,,,,,,10,002,2022-09-20_17h14.24.483,test2,2022.2.4,59.85969832494069,
0,0,0,0,148,0,148,0,1834.1201926590002,1834.1201926590002,1834.1201926590002,1834.1201926590002,1834.1201926590002,1834.1201926590002,1834.1201926590002,0.016971623999779695,[],[],[],[],[],[],[],-1,-1,rojo,0,['N_A'],[],[],[],[],[],[],[],1835.756170264,1835.756170264,1835.756170264,1835.756170264,1837.809704892,1837.809704892,1837.809704892,1837.809704892,1837.809704892,1837.809704892,1837.809704892,1837.809704892,1839.8450943829998,1839.8450943829998,1839.8450943829998,1839.8450943829998,,,,,,,,,,,,,,,,,,,,,,,,,,,,,,,,,,,,,,,,10,002,2022-09-20_17h14.24.483,test2,2022.2.4,59.85969832494069,
0,0,0,0,149,0,149,0,1839.8450943829998,1839.8450943829998,1839.8450943829998,1839.8450943829998,1839.8450943829998,1839.8450943829998,1839.8450943829998,0.016794464999748016,[],[],[],[],[],[],[],-1,-1,azul,0,['N_B'],[],[],[],[],[],[],[],1841.195393384,1841.195393384,1841.195393384,1841.195393384,1843.2303989430002,1843.2303989430002,1843.2303989430002,1843.2303989430002,1843.2303989430002,1843.2303989430002,1843.2303989430002,1843.2303989430002,1845.250497935,1845.250497935,1845.250497935,1845.250497935,,,,,,,,,,,,,,,,,,,,,,,,,,,,,,,,,,,,,,,,10,002,2022-09-20_17h14.24.483,test2,2022.2.4,59.85969832494069,
0,0,0,0,,,,,,,,,,,,,,,,,,,,,,,,,,,,,,,,,,,,,,,,,,,,,,,,1845.250497935,1845.250497935,1845.250497935,1845.250497935,,,,,,,,,,,,,,,,,,,,,,,,,,,,,,,,,,,,10,002,2022-09-20_17h14.24.483,test2,2022.2.4,59.85969832494069,
1,0,1,0,0,0,0,0,,,,,,,,,[],[],[],[],[],[],[],1,1,azul,0,['N_C_3'],[],[],[],[],[],[],[],1851.789920529,1851.789920529,1851.789920529,1851.789920529,1853.826117006,1853.826117006,1853.826117006,1853.826117006,1853.826117006,1853.826117006,1853.826117006,1853.826117006,1855.8788256349999,1855.8788256349999,1855.8788256349999,1855.8788256349999,,,,,1848.2866170460002,1848.2866170460002,1848.2866170460002,1848.2866170460002,1848.2866170460002,1848.2866170460002,1848.2866170460002,1848.2866170460002,0.01946961600015129,1848.2866170460002,,,,,,,,,,,,,,,,,,,,,,,,,,10,002,2022-09-20_17h14.24.483,test2,2022.2.4,59.85969832494069,
1,0,1,0,1,0,1,0,,,,,,,,,[],[],[],[],[],[],[],-1,-1,rojo,0,['N_B_3'],[],[],[],[],[],[],[],1858.6141302709998,1858.6141302709998,1858.6141302709998,1858.6141302709998,1860.668154049,1860.668154049,1860.668154049,1860.668154049,1860.668154049,1860.668154049,1860.668154049,1860.668154049,1862.7211055449998,1862.7211055449998,1862.7211055449998,1862.7211055449998,,,,,1855.8788256349999,1855.8788256349999,1855.8788256349999,1855.8788256349999,1855.8788256349999,1855.8788256349999,1855.8788256349999,1855.8788256349999,0.020140343000093708,1855.8788256349999,,,,,,,,,,,,,,,,,,,,,,,,,,10,002,2022-09-20_17h14.24.483,test2,2022.2.4,59.85969832494069,
1,0,1,0,2,0,2,0,,,,,,,,,[],[],[],[],[],[],[],1,-1,azul,0,['N_C_3'],[],[],[],[],[],[],[],1864.071195952,1864.071195952,1864.071195952,1864.071195952,1866.1228155449999,1866.1228155449999,1866.1228155449999,1866.1228155449999,1866.1228155449999,1866.1228155449999,1866.1228155449999,1866.1228155449999,1868.176391687,1868.176391687,1868.176391687,1868.176391687,,,,,1862.7211055449998,1862.7211055449998,1862.7211055449998,1862.7211055449998,1862.7211055449998,1862.7211055449998,1862.7211055449998,1862.7211055449998,0.021047674999863375,1862.7211055449998,,,,,,,,,,,,,,,,,,,,,,,,,,10,002,2022-09-20_17h14.24.483,test2,2022.2.4,59.85969832494069,
1,0,1,0,3,0,3,0,,,,,,,,,[],[],[],[],[],[],[],-1,-1,azul,1,['N_C_3'],[],[],[],[],[],[],[],1869.693109848,1869.693109848,1869.693109848,1869.693109848,1871.7289051980001,1871.7289051980001,1871.7289051980001,1871.7289051980001,1871.7289051980001,1871.7289051980001,1871.7289051980001,1871.7289051980001,1873.7823378469998,1873.7823378469998,1873.7823378469998,1873.7823378469998,,,,,1868.176391687,1868.176391687,1868.176391687,1868.176391687,1868.176391687,1868.176391687,1868.176391687,1868.176391687,0.020516520999990462,1868.176391687,,,,,,,,,,,,,,,,,,,,,,,,,,10,002,2022-09-20_17h14.24.483,test2,2022.2.4,59.85969832494069,
1,0,1,0,4,0,4,0,,,,,,,,,[],[],[],[],[],[],[],1,1,verde,0,['N_A_3'],[],[],[],[],[],[],[],1875.9998013250001,1875.9998013250001,1875.9998013250001,1875.9998013250001,1878.035945092,1878.035945092,1878.035945092,1878.035945092,1878.035945092,1878.035945092,1878.035945092,1878.035945092,1880.0898019739998,1880.0898019739998,1880.0898019739998,1880.0898019739998,,,,,1873.7823378469998,1873.7823378469998,1873.7823378469998,1873.7823378469998,1873.7823378469998,1873.7823378469998,1873.7823378469998,1873.7823378469998,0.02139192799995726,1873.7823378469998,,,,,,,,,,,,,,,,,,,,,,,,,,10,002,2022-09-20_17h14.24.483,test2,2022.2.4,59.85969832494069,
1,0,1,0,5,0,5,0,,,,,,,,,[],[],[],[],[],[],[],1,-1,rojo,0,['N_C_3'],[],[],[],[],[],[],[],1881.407424649,1881.407424649,1881.407424649,1881.407424649,1883.440666302,1883.440666302,1883.440666302,1883.440666302,1883.440666302,1883.440666302,1883.440666302,1883.440666302,1885.4946634500002,1885.4946634500002,1885.4946634500002,1885.4946634500002,,,,,1880.0898019739998,1880.0898019739998,1880.0898019739998,1880.0898019739998,1880.0898019739998,1880.0898019739998,1880.0898019739998,1880.0898019739998,0.020733105999624968,1880.0898019739998,,,,,,,,,,,,,,,,,,,,,,,,,,10,002,2022-09-20_17h14.24.483,test2,2022.2.4,59.85969832494069,
1,0,1,0,6,0,6,0,,,,,,,,,[],[],[],[],[],[],[],1,1,verde,1,['N_C_3'],[],[],[],[],[],[],[],1886.8451834490002,1886.8451834490002,1886.8451834490002,1886.8451834490002,1888.880692277,1888.880692277,1888.880692277,1888.880692277,1888.880692277,1888.880692277,1888.880692277,1888.880692277,1890.934303127,1890.934303127,1890.934303127,1890.934303127,,,,,1885.4946634500002,1885.4946634500002,1885.4946634500002,1885.4946634500002,1885.4946634500002,1885.4946634500002,1885.4946634500002,1885.4946634500002,0.020571142000335385,1885.4946634500002,,,,,,,,,,,,,,,,,,,,,,,,,,10,002,2022-09-20_17h14.24.483,test2,2022.2.4,59.85969832494069,
1,0,1,0,7,0,7,0,,,,,,,,,[],[],[],[],[],[],[],1,-1,verde,0,['N_B_3'],[],[],[],[],[],[],[],1892.284548818,1892.284548818,1892.284548818,1892.284548818,1894.3378157050001,1894.3378157050001,1894.3378157050001,1894.3378157050001,1894.3378157050001,1894.3378157050001,1894.3378157050001,1894.3378157050001,1896.390328221,1896.390328221,1896.390328221,1896.390328221,,,,,1890.934303127,1890.934303127,1890.934303127,1890.934303127,1890.934303127,1890.934303127,1890.934303127,1890.934303127,0.020012260999919818,1890.934303127,,,,,,,,,,,,,,,,,,,,,,,,,,10,002,2022-09-20_17h14.24.483,test2,2022.2.4,59.85969832494069,
1,0,1,0,8,0,8,0,,,,,,,,,[],[],[],[],[],[],[],-1,-1,rojo,1,['N_B_3'],[],[],[],[],[],[],[],1897.741316225,1897.741316225,1897.741316225,1897.741316225,1899.7753417019999,1899.7753417019999,1899.7753417019999,1899.7753417019999,1899.7753417019999,1899.7753417019999,1899.7753417019999,1899.7753417019999,1901.829813805,1901.829813805,1901.829813805,1901.829813805,,,,,1896.390328221,1896.390328221,1896.390328221,1896.390328221,1896.390328221,1896.390328221,1896.390328221,1896.390328221,0.020465088000037213,1896.390328221,,,,,,,,,,,,,,,,,,,,,,,,,,10,002,2022-09-20_17h14.24.483,test2,2022.2.4,59.85969832494069,
1,0,1,0,9,0,9,0,,,,,,,,,[],[],[],[],[],[],[],-1,1,rojo,1,['N_B_3'],[],[],[],[],[],[],[],1903.4481478930002,1903.4481478930002,1903.4481478930002,1903.4481478930002,1905.4823700410002,1905.4823700410002,1905.4823700410002,1905.4823700410002,1905.4823700410002,1905.4823700410002,1905.4823700410002,1905.4823700410002,1907.5356708129998,1907.5356708129998,1907.5356708129998,1907.5356708129998,,,,,1901.829813805,1901.829813805,1901.829813805,1901.829813805,1901.829813805,1901.829813805,1901.829813805,1901.829813805,0.020035338000070624,1901.829813805,,,,,,,,,,,,,,,,,,,,,,,,,,10,002,2022-09-20_17h14.24.483,test2,2022.2.4,59.85969832494069,
1,0,1,0,10,0,10,0,,,,,,,,,[],[],[],[],[],[],[],1,-1,azul,0,['N_A_3'],[],[],[],[],[],[],[],1909.4706893759999,1909.4706893759999,1909.4706893759999,1909.4706893759999,1911.5231153169998,1911.5231153169998,1911.5231153169998,1911.5231153169998,1911.5231153169998,1911.5231153169998,1911.5231153169998,1911.5231153169998,1913.576209837,1913.576209837,1913.576209837,1913.576209837,,,,,1907.5356708129998,1907.5356708129998,1907.5356708129998,1907.5356708129998,1907.5356708129998,1907.5356708129998,1907.5356708129998,1907.5356708129998,0.02044550700020409,1907.5356708129998,,,,,,,,,,,,,,,,,,,,,,,,,,10,002,2022-09-20_17h14.24.483,test2,2022.2.4,59.85969832494069,
1,0,1,0,11,0,11,0,,,,,,,,,[],[],[],[],[],[],[],-1,-1,azul,0,['N_B_3'],[],[],[],[],[],[],[],1915.6946066619998,1915.6946066619998,1915.6946066619998,1915.6946066619998,1917.747144769,1917.747144769,1917.747144769,1917.747144769,1917.747144769,1917.747144769,1917.747144769,1917.747144769,1919.80050025,1919.80050025,1919.80050025,1919.80050025,,,,,1913.576209837,1913.576209837,1913.576209837,1913.576209837,1913.576209837,1913.576209837,1913.576209837,1913.576209837,0.020498983999914344,1913.576209837,,,,,,,,,,,,,,,,,,,,,,,,,,10,002,2022-09-20_17h14.24.483,test2,2022.2.4,59.85969832494069,
1,0,1,0,12,0,12,0,,,,,,,,,[],[],[],[],[],[],[],-1,-1,rojo,0,['N_C_3'],[],[],[],[],[],[],[],1921.166820858,1921.166820858,1921.166820858,1921.166820858,1923.202099872,1923.202099872,1923.202099872,1923.202099872,1923.202099872,1923.202099872,1923.202099872,1923.202099872,1925.2560447239998,1925.2560447239998,1925.2560447239998,1925.2560447239998,,,,,1919.80050025,1919.80050025,1919.80050025,1919.80050025,1919.80050025,1919.80050025,1919.80050025,1919.80050025,0.02022014299973307,1919.80050025,,,,,,,,,,,,,,,,,,,,,,,,,,10,002,2022-09-20_17h14.24.483,test2,2022.2.4,59.85969832494069,
1,0,1,0,13,0,13,0,,,,,,,,,[],[],[],[],[],[],[],1,1,verde,0,['N_A_3'],[],[],[],[],[],[],[],1926.822362108,1926.822362108,1926.822362108,1926.822362108,1928.858274407,1928.858274407,1928.858274407,1928.858274407,1928.858274407,1928.858274407,1928.858274407,1928.858274407,1930.911687444,1930.911687444,1930.911687444,1930.911687444,,,,,1925.2560447239998,1925.2560447239998,1925.2560447239998,1925.2560447239998,1925.2560447239998,1925.2560447239998,1925.2560447239998,1925.2560447239998,0.02062883700000384,1925.2560447239998,,,,,,,,,,,,,,,,,,,,,,,,,,10,002,2022-09-20_17h14.24.483,test2,2022.2.4,59.85969832494069,
1,0,1,0,14,0,14,0,,,,,,,,,[],[],[],[],[],[],[],1,1,rojo,0,['N_B_3'],[],[],[],[],[],[],[],1934.5979126799998,1934.5979126799998,1934.5979126799998,1934.5979126799998,1936.633427101,1936.633427101,1936.633427101,1936.633427101,1936.633427101,1936.633427101,1936.633427101,1936.633427101,1938.686873396,1938.686873396,1938.686873396,1938.686873396,,,,,1930.911687444,1930.911687444,1930.911687444,1930.911687444,1930.911687444,1930.911687444,1930.911687444,1930.911687444,0.021214420999967842,1930.911687444,,,,,,,,,,,,,,,,,,,,,,,,,,10,002,2022-09-20_17h14.24.483,test2,2022.2.4,59.85969832494069,
1,0,1,0,15,0,15,0,,,,,,,,,[],[],[],[],[],[],[],1,-1,azul,0,['N_C_3'],[],[],[],[],[],[],[],1940.022309608,1940.022309608,1940.022309608,1940.022309608,1942.0739958660001,1942.0739958660001,1942.0739958660001,1942.0739958660001,1942.0739958660001,1942.0739958660001,1942.0739958660001,1942.0739958660001,1944.1258964859999,1944.1258964859999,1944.1258964859999,1944.1258964859999,,,,,1938.686873396,1938.686873396,1938.686873396,1938.686873396,1938.686873396,1938.686873396,1938.686873396,1938.686873396,0.02038455799993244,1938.686873396,,,,,,,,,,,,,,,,,,,,,,,,,,10,002,2022-09-20_17h14.24.483,test2,2022.2.4,59.85969832494069,
1,0,1,0,16,0,16,0,,,,,,,,,[],[],[],[],[],[],[],1,-1,verde,0,['N_A_3'],[],[],[],[],[],[],[],1945.494854742,1945.494854742,1945.494854742,1945.494854742,1947.5455293690002,1947.5455293690002,1947.5455293690002,1947.5455293690002,1947.5455293690002,1947.5455293690002,1947.5455293690002,1947.5455293690002,1949.5991931109997,1949.5991931109997,1949.5991931109997,1949.5991931109997,,,,,1944.1258964859999,1944.1258964859999,1944.1258964859999,1944.1258964859999,1944.1258964859999,1944.1258964859999,1944.1258964859999,1944.1258964859999,0.021463423999648512,1944.1258964859999,,,,,,,,,,,,,,,,,,,,,,,,,,10,002,2022-09-20_17h14.24.483,test2,2022.2.4,59.85969832494069,
1,0,1,0,17,0,17,0,,,,,,,,,[],[],[],[],[],[],[],1,-1,rojo,0,['N_B_3'],[],[],[],[],[],[],[],1950.9322127330001,1950.9322127330001,1950.9322127330001,1950.9322127330001,1952.967577677,1952.967577677,1952.967577677,1952.967577677,1952.967577677,1952.967577677,1952.967577677,1952.967577677,1955.021068858,1955.021068858,1955.021068858,1955.021068858,,,,,1949.5991931109997,1949.5991931109997,1949.5991931109997,1949.5991931109997,1949.5991931109997,1949.5991931109997,1949.5991931109997,1949.5991931109997,0.020150302999809355,1949.5991931109997,,,,,,,,,,,,,,,,,,,,,,,,,,10,002,2022-09-20_17h14.24.483,test2,2022.2.4,59.85969832494069,
1,0,1,0,18,0,18,0,,,,,,,,,[],[],[],[],[],[],[],1,1,azul,0,['N_C_3'],[],[],[],[],[],[],[],1956.355525375,1956.355525375,1956.355525375,1956.355525375,1958.3913596749999,1958.3913596749999,1958.3913596749999,1958.3913596749999,1958.3913596749999,1958.3913596749999,1958.3913596749999,1958.3913596749999,1960.4443003000001,1960.4443003000001,1960.4443003000001,1960.4443003000001,,,,,1955.021068858,1955.021068858,1955.021068858,1955.021068858,1955.021068858,1955.021068858,1955.021068858,1955.021068858,0.02070694199983336,1955.021068858,,,,,,,,,,,,,,,,,,,,,,,,,,10,002,2022-09-20_17h14.24.483,test2,2022.2.4,59.85969832494069,
1,0,1,0,19,0,19,0,,,,,,,,,[],[],[],[],[],[],[],-1,1,rojo,0,['N_B_3'],[],[],[],[],[],[],[],1962.312697926,1962.312697926,1962.312697926,1962.312697926,1964.346625876,1964.346625876,1964.346625876,1964.346625876,1964.346625876,1964.346625876,1964.346625876,1964.346625876,1966.4012357010001,1966.4012357010001,1966.4012357010001,1966.4012357010001,,,,,1960.4443003000001,1960.4443003000001,1960.4443003000001,1960.4443003000001,1960.4443003000001,1960.4443003000001,1960.4443003000001,1960.4443003000001,0.01997212500009482,1960.4443003000001,,,,,,,,,,,,,,,,,,,,,,,,,,10,002,2022-09-20_17h14.24.483,test2,2022.2.4,59.85969832494069,
