trials_2.thisRepN,trials_2.thisTrialN,trials_2.thisN,trials_2.thisIndex,trials.thisRepN,trials.thisTrialN,trials.thisN,trials.thisIndex,Instrucción2.started,N_A_4.started,N_B_4.started,Exitos_3.started,Dias_3.started,Stimuli_1.started,Stimuli_2.started,Transitions,Rewards,Mode,Stay,Neighbour,Stimuli_3.started,Modo.started,Dias2.started,Exitos2.started,Stimuli_3.stopped,Modo.stopped,Dias2.stopped,Exitos2.stopped,Reward.started,Stimuli_reward.started,Exitos3.started,Dias3.started,Reward.stopped,Stimuli_reward.stopped,Exitos3.stopped,Dias3.stopped,Cue_text.started,Stimuli_4.started,Exitos4.started,Dias4.started,Stimuli_3_3.started,Stimuli_2_3.started,Instrucción.started,N_A.started,N_B.started,N_C.started,Exitos_2.started,Dias_2.started,Stimuli_1_3.started,Stimuli_3_2.started,Stimuli_2_2.started,Pregunta.started,N_A_2.started,N_B_2.started,N_C_2.started,Exitos5.started,Dias5.started,Stimuli_1_2.started,Resp_final_1,Modo2.started,Modo1.started,Pregunta_4.started,Modo3.started,Exitos7.started,Dias6.started,Resp_final_2,Modo1_2.started,Pregunta_3.started,Modo2_2.started,Exitos8.started,Dias7.started,Resp_final_3,Mensaje_Final2.started,Exitos6.started,participant,session,date,expName,psychopyVersion,frameRate,
0,0,0,0,0,0,0,0,516.3520519680001,516.3520519680001,516.3520519680001,516.3520519680001,516.3520519680001,516.3520519680001,516.3520519680001,0,0,0,0,['N_A'],530.50044247,530.50044247,530.50044247,530.50044247,532.5521072280001,532.5521072280001,532.5521072280001,532.5521072280001,532.5521072280001,532.5521072280001,532.5521072280001,532.5521072280001,534.589339277,534.589339277,534.589339277,534.589339277,,,,,,,,,,,,,,,,,,,,,,,,,,,,,,,,,,,,,,,10,008,2022-09-22_11h58.50.070,test2,2022.2.4,60.008164710886454,
0,0,0,0,1,0,1,0,534.589339277,534.589339277,534.589339277,534.589339277,534.589339277,534.589339277,534.589339277,1,-1,rojo,1,['N_A'],554.359370229,554.359370229,554.359370229,554.359370229,556.396723354,556.396723354,556.396723354,556.396723354,556.396723354,556.396723354,556.396723354,556.396723354,558.432231049,558.432231049,558.432231049,558.432231049,,,,,,,,,,,,,,,,,,,,,,,,,,,,,,,,,,,,,,,10,008,2022-09-22_11h58.50.070,test2,2022.2.4,60.008164710886454,
0,0,0,0,2,0,2,0,558.432231049,558.432231049,558.432231049,558.432231049,558.432231049,558.432231049,558.432231049,-1,-1,azul,0,['N_B'],575.466382021,575.466382021,575.466382021,575.466382021,577.536195249,577.536195249,577.536195249,577.536195249,577.536195249,577.536195249,577.536195249,577.536195249,579.571643476,579.571643476,579.571643476,579.571643476,,,,,,,,,,,,,,,,,,,,,,,,,,,,,,,,,,,,,,,10,008,2022-09-22_11h58.50.070,test2,2022.2.4,60.008164710886454,
0,0,0,0,3,0,3,0,579.571643476,579.571643476,579.571643476,579.571643476,579.571643476,579.571643476,579.571643476,-1,1,rojo,1,['N_B'],581.657075107,581.657075107,581.657075107,581.657075107,583.675798962,583.675798962,583.675798962,583.675798962,583.675798962,583.675798962,583.675798962,583.675798962,585.711352533,585.711352533,585.711352533,585.711352533,,,,,,,,,,,,,,,,,,,,,,,,,,,,,,,,,,,,,,,10,008,2022-09-22_11h58.50.070,test2,2022.2.4,60.008164710886454,
0,0,0,0,4,0,4,0,585.711352533,585.711352533,585.711352533,585.711352533,585.711352533,585.711352533,585.711352533,1,1,azul,1,['N_B'],587.446349948,587.446349948,587.446349948,587.446349948,589.465579476,589.465579476,589.465579476,589.465579476,589.465579476,589.465579476,589.465579476,589.465579476,591.50213726,591.50213726,591.50213726,591.50213726,,,,,,,,,,,,,,,,,,,,,,,,,,,,,,,,,,,,,,,10,008,2022-09-22_11h58.50.070,test2,2022.2.4,60.008164710886454,
0,0,0,0,5,0,5,0,591.50213726,591.50213726,591.50213726,591.50213726,591.50213726,591.50213726,591.50213726,1,-1,azul,1,['N_B'],594.186742434,594.186742434,594.186742434,594.186742434,596.223430632,596.223430632,596.223430632,596.223430632,596.223430632,596.223430632,596.223430632,596.223430632,598.258652802,598.258652802,598.258652802,598.258652802,,,,,,,,,,,,,,,,,,,,,,,,,,,,,,,,,,,,,,,10,008,2022-09-22_11h58.50.070,test2,2022.2.4,60.008164710886454,
0,0,0,0,6,0,6,0,598.258652802,598.258652802,598.258652802,598.258652802,598.258652802,598.258652802,598.258652802,1,-1,azul,0,['N_A'],599.809560475,599.809560475,599.809560475,599.809560475,601.8461681370001,601.8461681370001,601.8461681370001,601.8461681370001,601.8461681370001,601.8461681370001,601.8461681370001,601.8461681370001,603.882854775,603.882854775,603.882854775,603.882854775,,,,,,,,,,,,,,,,,,,,,,,,,,,,,,,,,,,,,,,10,008,2022-09-22_11h58.50.070,test2,2022.2.4,60.008164710886454,
0,0,0,0,7,0,7,0,603.882854775,603.882854775,603.882854775,603.882854775,603.882854775,603.882854775,603.882854775,1,-1,rojo,0,['N_B'],605.699304159,605.699304159,605.699304159,605.699304159,607.71881176,607.71881176,607.71881176,607.71881176,607.71881176,607.71881176,607.71881176,607.71881176,609.754831902,609.754831902,609.754831902,609.754831902,,,,,,,,,,,,,,,,,,,,,,,,,,,,,,,,,,,,,,,10,008,2022-09-22_11h58.50.070,test2,2022.2.4,60.008164710886454,
0,0,0,0,8,0,8,0,609.754831902,609.754831902,609.754831902,609.754831902,609.754831902,609.754831902,609.754831902,-1,1,rojo,1,['N_B'],611.306412097,611.306412097,611.306412097,611.306412097,613.324450759,613.324450759,613.324450759,613.324450759,613.324450759,613.324450759,613.324450759,613.324450759,615.344869806,615.344869806,615.344869806,615.344869806,,,,,,,,,,,,,,,,,,,,,,,,,,,,,,,,,,,,,,,10,008,2022-09-22_11h58.50.070,test2,2022.2.4,60.008164710886454,
0,0,0,0,9,0,9,0,615.344869806,615.344869806,615.344869806,615.344869806,615.344869806,615.344869806,615.344869806,1,-1,azul,1,['N_B'],620.833850839,620.833850839,620.833850839,620.833850839,622.85315513,622.85315513,622.85315513,622.85315513,622.85315513,622.85315513,622.85315513,622.85315513,624.871531863,624.871531863,624.871531863,624.871531863,,,,,,,,,,,,,,,,,,,,,,,,,,,,,,,,,,,,,,,10,008,2022-09-22_11h58.50.070,test2,2022.2.4,60.008164710886454,
0,0,0,0,10,0,10,0,624.871531863,624.871531863,624.871531863,624.871531863,624.871531863,624.871531863,624.871531863,1,1,azul,1,['N_B'],627.10658117,627.10658117,627.10658117,627.10658117,629.126107177,629.126107177,629.126107177,629.126107177,629.126107177,629.126107177,629.126107177,629.126107177,631.144540656,631.144540656,631.144540656,631.144540656,,,,,,,,,,,,,,,,,,,,,,,,,,,,,,,,,,,,,,,10,008,2022-09-22_11h58.50.070,test2,2022.2.4,60.008164710886454,
0,0,0,0,11,0,11,0,631.144540656,631.144540656,631.144540656,631.144540656,631.144540656,631.144540656,631.144540656,1,1,azul,1,['N_B'],634.514996619,634.514996619,634.514996619,634.514996619,636.534790046,636.534790046,636.534790046,636.534790046,636.534790046,636.534790046,636.534790046,636.534790046,638.55303344,638.55303344,638.55303344,638.55303344,,,,,,,,,,,,,,,,,,,,,,,,,,,,,,,,,,,,,,,10,008,2022-09-22_11h58.50.070,test2,2022.2.4,60.008164710886454,
0,0,0,0,12,0,12,0,638.55303344,638.55303344,638.55303344,638.55303344,638.55303344,638.55303344,638.55303344,1,1,azul,1,['N_B'],640.354348307,640.354348307,640.354348307,640.354348307,642.374147346,642.374147346,642.374147346,642.374147346,642.374147346,642.374147346,642.374147346,642.374147346,644.3930726240001,644.3930726240001,644.3930726240001,644.3930726240001,,,,,,,,,,,,,,,,,,,,,,,,,,,,,,,,,,,,,,,10,008,2022-09-22_11h58.50.070,test2,2022.2.4,60.008164710886454,
0,0,0,0,13,0,13,0,644.3930726240001,644.3930726240001,644.3930726240001,644.3930726240001,644.3930726240001,644.3930726240001,644.3930726240001,-1,-1,rojo,1,['N_B'],648.180239077,648.180239077,648.180239077,648.180239077,650.216459585,650.216459585,650.216459585,650.216459585,650.216459585,650.216459585,650.216459585,650.216459585,652.2343857330001,652.2343857330001,652.2343857330001,652.2343857330001,,,,,,,,,,,,,,,,,,,,,,,,,,,,,,,,,,,,,,,10,008,2022-09-22_11h58.50.070,test2,2022.2.4,60.008164710886454,
0,0,0,0,14,0,14,0,652.2343857330001,652.2343857330001,652.2343857330001,652.2343857330001,652.2343857330001,652.2343857330001,652.2343857330001,-1,-1,rojo,0,['N_A'],653.6530932229999,653.6530932229999,653.6530932229999,653.6530932229999,655.689055723,655.689055723,655.689055723,655.689055723,655.689055723,655.689055723,655.689055723,655.689055723,657.7069561909999,657.7069561909999,657.7069561909999,657.7069561909999,,,,,,,,,,,,,,,,,,,,,,,,,,,,,,,,,,,,,,,10,008,2022-09-22_11h58.50.070,test2,2022.2.4,60.008164710886454,
0,0,0,0,15,0,15,0,657.7069561909999,657.7069561909999,657.7069561909999,657.7069561909999,657.7069561909999,657.7069561909999,657.7069561909999,-1,-1,azul,0,['N_B'],660.2939231859999,660.2939231859999,660.2939231859999,660.2939231859999,662.3297447169999,662.3297447169999,662.3297447169999,662.3297447169999,662.3297447169999,662.3297447169999,662.3297447169999,662.3297447169999,664.3493431119999,664.3493431119999,664.3493431119999,664.3493431119999,,,,,,,,,,,,,,,,,,,,,,,,,,,,,,,,,,,,,,,10,008,2022-09-22_11h58.50.070,test2,2022.2.4,60.008164710886454,
0,0,0,0,16,0,16,0,664.3493431119999,664.3493431119999,664.3493431119999,664.3493431119999,664.3493431119999,664.3493431119999,664.3493431119999,-1,-1,rojo,1,['N_B'],669.819968787,669.819968787,669.819968787,669.819968787,671.839554629,671.839554629,671.839554629,671.839554629,671.839554629,671.839554629,671.839554629,671.839554629,673.8579772879999,673.8579772879999,673.8579772879999,673.8579772879999,,,,,,,,,,,,,,,,,,,,,,,,,,,,,,,,,,,,,,,10,008,2022-09-22_11h58.50.070,test2,2022.2.4,60.008164710886454,
0,0,0,0,17,0,17,0,673.8579772879999,673.8579772879999,673.8579772879999,673.8579772879999,673.8579772879999,673.8579772879999,673.8579772879999,1,1,azul,1,['N_B'],675.4430173500001,675.4430173500001,675.4430173500001,675.4430173500001,677.4629053570001,677.4629053570001,677.4629053570001,677.4629053570001,677.4629053570001,677.4629053570001,677.4629053570001,677.4629053570001,679.4816318920001,679.4816318920001,679.4816318920001,679.4816318920001,,,,,,,,,,,,,,,,,,,,,,,,,,,,,,,,,,,,,,,10,008,2022-09-22_11h58.50.070,test2,2022.2.4,60.008164710886454,
0,0,0,0,18,0,18,0,679.4816318920001,679.4816318920001,679.4816318920001,679.4816318920001,679.4816318920001,679.4816318920001,679.4816318920001,1,1,azul,1,['N_B'],681.082487107,681.082487107,681.082487107,681.082487107,683.10145817,683.10145817,683.10145817,683.10145817,683.10145817,683.10145817,683.10145817,683.10145817,685.1210854130001,685.1210854130001,685.1210854130001,685.1210854130001,,,,,,,,,,,,,,,,,,,,,,,,,,,,,,,,,,,,,,,10,008,2022-09-22_11h58.50.070,test2,2022.2.4,60.008164710886454,
0,0,0,0,19,0,19,0,685.1210854130001,685.1210854130001,685.1210854130001,685.1210854130001,685.1210854130001,685.1210854130001,685.1210854130001,-1,-1,rojo,1,['N_B'],686.571910498,686.571910498,686.571910498,686.571910498,688.591794306,688.591794306,688.591794306,688.591794306,688.591794306,688.591794306,688.591794306,688.591794306,690.6106822539999,690.6106822539999,690.6106822539999,690.6106822539999,,,,,,,,,,,,,,,,,,,,,,,,,,,,,,,,,,,,,,,10,008,2022-09-22_11h58.50.070,test2,2022.2.4,60.008164710886454,
0,0,0,0,20,0,20,0,690.6106822539999,690.6106822539999,690.6106822539999,690.6106822539999,690.6106822539999,690.6106822539999,690.6106822539999,1,1,azul,1,['N_B'],692.044887523,692.044887523,692.044887523,692.044887523,694.064713078,694.064713078,694.064713078,694.064713078,694.064713078,694.064713078,694.064713078,694.064713078,696.0829682140001,696.0829682140001,696.0829682140001,696.0829682140001,,,,,,,,,,,,,,,,,,,,,,,,,,,,,,,,,,,,,,,10,008,2022-09-22_11h58.50.070,test2,2022.2.4,60.008164710886454,
0,0,0,0,21,0,21,0,696.0829682140001,696.0829682140001,696.0829682140001,696.0829682140001,696.0829682140001,696.0829682140001,696.0829682140001,-1,-1,rojo,0,['N_A'],699.9199410370001,699.9199410370001,699.9199410370001,699.9199410370001,701.9391312040001,701.9391312040001,701.9391312040001,701.9391312040001,701.9391312040001,701.9391312040001,701.9391312040001,701.9391312040001,703.957783614,703.957783614,703.957783614,703.957783614,,,,,,,,,,,,,,,,,,,,,,,,,,,,,,,,,,,,,,,10,008,2022-09-22_11h58.50.070,test2,2022.2.4,60.008164710886454,
0,0,0,0,22,0,22,0,703.957783614,703.957783614,703.957783614,703.957783614,703.957783614,703.957783614,703.957783614,-1,1,azul,0,['N_B'],709.580986628,709.580986628,709.580986628,709.580986628,711.6007396040001,711.6007396040001,711.6007396040001,711.6007396040001,711.6007396040001,711.6007396040001,711.6007396040001,711.6007396040001,713.619226168,713.619226168,713.619226168,713.619226168,,,,,,,,,,,,,,,,,,,,,,,,,,,,,,,,,,,,,,,10,008,2022-09-22_11h58.50.070,test2,2022.2.4,60.008164710886454,
0,0,0,0,23,0,23,0,713.619226168,713.619226168,713.619226168,713.619226168,713.619226168,713.619226168,713.619226168,1,1,azul,1,['N_B'],716.088020627,716.088020627,716.088020627,716.088020627,718.1077536270001,718.1077536270001,718.1077536270001,718.1077536270001,718.1077536270001,718.1077536270001,718.1077536270001,718.1077536270001,720.1261259849999,720.1261259849999,720.1261259849999,720.1261259849999,,,,,,,,,,,,,,,,,,,,,,,,,,,,,,,,,,,,,,,10,008,2022-09-22_11h58.50.070,test2,2022.2.4,60.008164710886454,
0,0,0,0,24,0,24,0,720.1261259849999,720.1261259849999,720.1261259849999,720.1261259849999,720.1261259849999,720.1261259849999,720.1261259849999,1,1,azul,0,['N_A'],721.660900018,721.660900018,721.660900018,721.660900018,723.6797098779999,723.6797098779999,723.6797098779999,723.6797098779999,723.6797098779999,723.6797098779999,723.6797098779999,723.6797098779999,725.698759239,725.698759239,725.698759239,725.698759239,,,,,,,,,,,,,,,,,,,,,,,,,,,,,,,,,,,,,,,10,008,2022-09-22_11h58.50.070,test2,2022.2.4,60.008164710886454,
0,0,0,0,25,0,25,0,725.698759239,725.698759239,725.698759239,725.698759239,725.698759239,725.698759239,725.698759239,1,-1,rojo,1,['N_A'],727.2673584309999,727.2673584309999,727.2673584309999,727.2673584309999,729.2857830429999,729.2857830429999,729.2857830429999,729.2857830429999,729.2857830429999,729.2857830429999,729.2857830429999,729.2857830429999,731.3052651030001,731.3052651030001,731.3052651030001,731.3052651030001,,,,,,,,,,,,,,,,,,,,,,,,,,,,,,,,,,,,,,,10,008,2022-09-22_11h58.50.070,test2,2022.2.4,60.008164710886454,
0,0,0,0,26,0,26,0,731.3052651030001,731.3052651030001,731.3052651030001,731.3052651030001,731.3052651030001,731.3052651030001,731.3052651030001,-1,1,azul,0,['N_B'],733.3410113159999,733.3410113159999,733.3410113159999,733.3410113159999,735.3598083600001,735.3598083600001,735.3598083600001,735.3598083600001,735.3598083600001,735.3598083600001,735.3598083600001,735.3598083600001,737.3955445560001,737.3955445560001,737.3955445560001,737.3955445560001,,,,,,,,,,,,,,,,,,,,,,,,,,,,,,,,,,,,,,,10,008,2022-09-22_11h58.50.070,test2,2022.2.4,60.008164710886454,
0,0,0,0,27,0,27,0,737.3955445560001,737.3955445560001,737.3955445560001,737.3955445560001,737.3955445560001,737.3955445560001,737.3955445560001,-1,-1,rojo,0,['N_A'],742.5007848660001,742.5007848660001,742.5007848660001,742.5007848660001,744.537465148,744.537465148,744.537465148,744.537465148,744.537465148,744.537465148,744.537465148,744.537465148,746.5547876700001,746.5547876700001,746.5547876700001,746.5547876700001,,,,,,,,,,,,,,,,,,,,,,,,,,,,,,,,,,,,,,,10,008,2022-09-22_11h58.50.070,test2,2022.2.4,60.008164710886454,
0,0,0,0,28,0,28,0,746.5547876700001,746.5547876700001,746.5547876700001,746.5547876700001,746.5547876700001,746.5547876700001,746.5547876700001,1,-1,rojo,0,['N_B'],748.307239887,748.307239887,748.307239887,748.307239887,750.343747062,750.343747062,750.343747062,750.343747062,750.343747062,750.343747062,750.343747062,750.343747062,752.3620801989999,752.3620801989999,752.3620801989999,752.3620801989999,,,,,,,,,,,,,,,,,,,,,,,,,,,,,,,,,,,,,,,10,008,2022-09-22_11h58.50.070,test2,2022.2.4,60.008164710886454,
0,0,0,0,29,0,29,0,752.3620801989999,752.3620801989999,752.3620801989999,752.3620801989999,752.3620801989999,752.3620801989999,752.3620801989999,1,-1,azul,1,['N_B'],755.3146246990001,755.3146246990001,755.3146246990001,755.3146246990001,757.3335442240001,757.3335442240001,757.3335442240001,757.3335442240001,757.3335442240001,757.3335442240001,757.3335442240001,757.3335442240001,759.352508288,759.352508288,759.352508288,759.352508288,,,,,,,,,,,,,,,,,,,,,,,,,,,,,,,,,,,,,,,10,008,2022-09-22_11h58.50.070,test2,2022.2.4,60.008164710886454,
0,0,0,0,30,0,30,0,759.352508288,759.352508288,759.352508288,759.352508288,759.352508288,759.352508288,759.352508288,1,1,azul,1,['N_B'],762.8231085430001,762.8231085430001,762.8231085430001,762.8231085430001,764.84329954,764.84329954,764.84329954,764.84329954,764.84329954,764.84329954,764.84329954,764.84329954,766.860870738,766.860870738,766.860870738,766.860870738,,,,,,,,,,,,,,,,,,,,,,,,,,,,,,,,,,,,,,,10,008,2022-09-22_11h58.50.070,test2,2022.2.4,60.008164710886454,
0,0,0,0,31,0,31,0,766.860870738,766.860870738,766.860870738,766.860870738,766.860870738,766.860870738,766.860870738,1,-1,azul,0,['N_A'],769.196536953,769.196536953,769.196536953,769.196536953,771.2333002859999,771.2333002859999,771.2333002859999,771.2333002859999,771.2333002859999,771.2333002859999,771.2333002859999,771.2333002859999,773.250944858,773.250944858,773.250944858,773.250944858,,,,,,,,,,,,,,,,,,,,,,,,,,,,,,,,,,,,,,,10,008,2022-09-22_11h58.50.070,test2,2022.2.4,60.008164710886454,
0,0,0,0,32,0,32,0,773.250944858,773.250944858,773.250944858,773.250944858,773.250944858,773.250944858,773.250944858,1,-1,rojo,0,['N_B'],778.4906658040001,778.4906658040001,778.4906658040001,778.4906658040001,780.509111551,780.509111551,780.509111551,780.509111551,780.509111551,780.509111551,780.509111551,780.509111551,782.528005794,782.528005794,782.528005794,782.528005794,,,,,,,,,,,,,,,,,,,,,,,,,,,,,,,,,,,,,,,10,008,2022-09-22_11h58.50.070,test2,2022.2.4,60.008164710886454,
0,0,0,0,33,0,33,0,782.528005794,782.528005794,782.528005794,782.528005794,782.528005794,782.528005794,782.528005794,1,1,azul,1,['N_B'],783.979633197,783.979633197,783.979633197,783.979633197,785.9983675720001,785.9983675720001,785.9983675720001,785.9983675720001,785.9983675720001,785.9983675720001,785.9983675720001,785.9983675720001,788.0173947019999,788.0173947019999,788.0173947019999,788.0173947019999,,,,,,,,,,,,,,,,,,,,,,,,,,,,,,,,,,,,,,,10,008,2022-09-22_11h58.50.070,test2,2022.2.4,60.008164710886454,
0,0,0,0,34,0,34,0,788.0173947019999,788.0173947019999,788.0173947019999,788.0173947019999,788.0173947019999,788.0173947019999,788.0173947019999,-1,-1,rojo,0,['N_A'],789.936872118,789.936872118,789.936872118,789.936872118,791.9730785810001,791.9730785810001,791.9730785810001,791.9730785810001,791.9730785810001,791.9730785810001,791.9730785810001,791.9730785810001,793.9908342780001,793.9908342780001,793.9908342780001,793.9908342780001,,,,,,,,,,,,,,,,,,,,,,,,,,,,,,,,,,,,,,,10,008,2022-09-22_11h58.50.070,test2,2022.2.4,60.008164710886454,
0,0,0,0,35,0,35,0,793.9908342780001,793.9908342780001,793.9908342780001,793.9908342780001,793.9908342780001,793.9908342780001,793.9908342780001,1,-1,rojo,0,['N_B'],797.6948597270001,797.6948597270001,797.6948597270001,797.6948597270001,799.7310575610001,799.7310575610001,799.7310575610001,799.7310575610001,799.7310575610001,799.7310575610001,799.7310575610001,799.7310575610001,801.7498282939999,801.7498282939999,801.7498282939999,801.7498282939999,,,,,,,,,,,,,,,,,,,,,,,,,,,,,,,,,,,,,,,10,008,2022-09-22_11h58.50.070,test2,2022.2.4,60.008164710886454,
0,0,0,0,36,0,36,0,801.7498282939999,801.7498282939999,801.7498282939999,801.7498282939999,801.7498282939999,801.7498282939999,801.7498282939999,1,-1,azul,1,['N_B'],803.9684368229999,803.9684368229999,803.9684368229999,803.9684368229999,805.986990235,805.986990235,805.986990235,805.986990235,805.986990235,805.986990235,805.986990235,805.986990235,808.006270962,808.006270962,808.006270962,808.006270962,,,,,,,,,,,,,,,,,,,,,,,,,,,,,,,,,,,,,,,10,008,2022-09-22_11h58.50.070,test2,2022.2.4,60.008164710886454,
0,0,0,0,37,0,37,0,808.006270962,808.006270962,808.006270962,808.006270962,808.006270962,808.006270962,808.006270962,1,1,azul,1,['N_B'],809.4754774429999,809.4754774429999,809.4754774429999,809.4754774429999,811.494929933,811.494929933,811.494929933,811.494929933,811.494929933,811.494929933,811.494929933,811.494929933,813.5129694200001,813.5129694200001,813.5129694200001,813.5129694200001,,,,,,,,,,,,,,,,,,,,,,,,,,,,,,,,,,,,,,,10,008,2022-09-22_11h58.50.070,test2,2022.2.4,60.008164710886454,
0,0,0,0,38,0,38,0,813.5129694200001,813.5129694200001,813.5129694200001,813.5129694200001,813.5129694200001,813.5129694200001,813.5129694200001,1,1,azul,1,['N_B'],815.031168267,815.031168267,815.031168267,815.031168267,817.050442565,817.050442565,817.050442565,817.050442565,817.050442565,817.050442565,817.050442565,817.050442565,819.0681685840001,819.0681685840001,819.0681685840001,819.0681685840001,,,,,,,,,,,,,,,,,,,,,,,,,,,,,,,,,,,,,,,10,008,2022-09-22_11h58.50.070,test2,2022.2.4,60.008164710886454,
0,0,0,0,39,0,39,0,819.0681685840001,819.0681685840001,819.0681685840001,819.0681685840001,819.0681685840001,819.0681685840001,819.0681685840001,1,1,azul,1,['N_B'],820.4701892429999,820.4701892429999,820.4701892429999,820.4701892429999,822.4886437609999,822.4886437609999,822.4886437609999,822.4886437609999,822.4886437609999,822.4886437609999,822.4886437609999,822.4886437609999,824.50787463,824.50787463,824.50787463,824.50787463,,,,,,,,,,,,,,,,,,,,,,,,,,,,,,,,,,,,,,,10,008,2022-09-22_11h58.50.070,test2,2022.2.4,60.008164710886454,
0,0,0,0,40,0,40,0,824.50787463,824.50787463,824.50787463,824.50787463,824.50787463,824.50787463,824.50787463,-1,-1,rojo,1,['N_B'],826.076849723,826.076849723,826.076849723,826.076849723,828.1129759030001,828.1129759030001,828.1129759030001,828.1129759030001,828.1129759030001,828.1129759030001,828.1129759030001,828.1129759030001,830.1310156380001,830.1310156380001,830.1310156380001,830.1310156380001,,,,,,,,,,,,,,,,,,,,,,,,,,,,,,,,,,,,,,,10,008,2022-09-22_11h58.50.070,test2,2022.2.4,60.008164710886454,
0,0,0,0,41,0,41,0,830.1310156380001,830.1310156380001,830.1310156380001,830.1310156380001,830.1310156380001,830.1310156380001,830.1310156380001,-1,-1,rojo,1,['N_B'],831.532297221,831.532297221,831.532297221,831.532297221,833.5513253519999,833.5513253519999,833.5513253519999,833.5513253519999,833.5513253519999,833.5513253519999,833.5513253519999,833.5513253519999,835.569589201,835.569589201,835.569589201,835.569589201,,,,,,,,,,,,,,,,,,,,,,,,,,,,,,,,,,,,,,,10,008,2022-09-22_11h58.50.070,test2,2022.2.4,60.008164710886454,
0,0,0,0,42,0,42,0,835.569589201,835.569589201,835.569589201,835.569589201,835.569589201,835.569589201,835.569589201,1,1,azul,1,['N_B'],837.1214028850001,837.1214028850001,837.1214028850001,837.1214028850001,839.1420274579999,839.1420274579999,839.1420274579999,839.1420274579999,839.1420274579999,839.1420274579999,839.1420274579999,839.1420274579999,841.1596470370001,841.1596470370001,841.1596470370001,841.1596470370001,,,,,,,,,,,,,,,,,,,,,,,,,,,,,,,,,,,,,,,10,008,2022-09-22_11h58.50.070,test2,2022.2.4,60.008164710886454,
0,0,0,0,43,0,43,0,841.1596470370001,841.1596470370001,841.1596470370001,841.1596470370001,841.1596470370001,841.1596470370001,841.1596470370001,1,1,azul,1,['N_B'],842.610959901,842.610959901,842.610959901,842.610959901,844.6295800859999,844.6295800859999,844.6295800859999,844.6295800859999,844.6295800859999,844.6295800859999,844.6295800859999,844.6295800859999,846.648521105,846.648521105,846.648521105,846.648521105,,,,,,,,,,,,,,,,,,,,,,,,,,,,,,,,,,,,,,,10,008,2022-09-22_11h58.50.070,test2,2022.2.4,60.008164710886454,
0,0,0,0,44,0,44,0,846.648521105,846.648521105,846.648521105,846.648521105,846.648521105,846.648521105,846.648521105,-1,-1,rojo,1,['N_B'],848.100916383,848.100916383,848.100916383,848.100916383,850.1191828510001,850.1191828510001,850.1191828510001,850.1191828510001,850.1191828510001,850.1191828510001,850.1191828510001,850.1191828510001,852.1380781419999,852.1380781419999,852.1380781419999,852.1380781419999,,,,,,,,,,,,,,,,,,,,,,,,,,,,,,,,,,,,,,,10,008,2022-09-22_11h58.50.070,test2,2022.2.4,60.008164710886454,
0,0,0,0,45,0,45,0,852.1380781419999,852.1380781419999,852.1380781419999,852.1380781419999,852.1380781419999,852.1380781419999,852.1380781419999,-1,1,rojo,1,['N_B'],853.8243237309999,853.8243237309999,853.8243237309999,853.8243237309999,855.843388588,855.843388588,855.843388588,855.843388588,855.843388588,855.843388588,855.843388588,855.843388588,857.861296465,857.861296465,857.861296465,857.861296465,,,,,,,,,,,,,,,,,,,,,,,,,,,,,,,,,,,,,,,10,008,2022-09-22_11h58.50.070,test2,2022.2.4,60.008164710886454,
0,0,0,0,46,0,46,0,857.861296465,857.861296465,857.861296465,857.861296465,857.861296465,857.861296465,857.861296465,1,1,azul,1,['N_B'],859.3142758539999,859.3142758539999,859.3142758539999,859.3142758539999,861.3330440230001,861.3330440230001,861.3330440230001,861.3330440230001,861.3330440230001,861.3330440230001,861.3330440230001,861.3330440230001,863.3502422079999,863.3502422079999,863.3502422079999,863.3502422079999,,,,,,,,,,,,,,,,,,,,,,,,,,,,,,,,,,,,,,,10,008,2022-09-22_11h58.50.070,test2,2022.2.4,60.008164710886454,
0,0,0,0,47,0,47,0,863.3502422079999,863.3502422079999,863.3502422079999,863.3502422079999,863.3502422079999,863.3502422079999,863.3502422079999,1,1,azul,1,['N_B'],865.0526204070001,865.0526204070001,865.0526204070001,865.0526204070001,867.0719588119999,867.0719588119999,867.0719588119999,867.0719588119999,867.0719588119999,867.0719588119999,867.0719588119999,867.0719588119999,869.0901378780001,869.0901378780001,869.0901378780001,869.0901378780001,,,,,,,,,,,,,,,,,,,,,,,,,,,,,,,,,,,,,,,10,008,2022-09-22_11h58.50.070,test2,2022.2.4,60.008164710886454,
0,0,0,0,48,0,48,0,869.0901378780001,869.0901378780001,869.0901378780001,869.0901378780001,869.0901378780001,869.0901378780001,869.0901378780001,-1,-1,rojo,1,['N_B'],871.0588317590001,871.0588317590001,871.0588317590001,871.0588317590001,873.0961038659999,873.0961038659999,873.0961038659999,873.0961038659999,873.0961038659999,873.0961038659999,873.0961038659999,873.0961038659999,875.113897119,875.113897119,875.113897119,875.113897119,,,,,,,,,,,,,,,,,,,,,,,,,,,,,,,,,,,,,,,10,008,2022-09-22_11h58.50.070,test2,2022.2.4,60.008164710886454,
0,0,0,0,49,0,49,0,875.113897119,875.113897119,875.113897119,875.113897119,875.113897119,875.113897119,875.113897119,1,-1,azul,1,['N_B'],876.6325883810001,876.6325883810001,876.6325883810001,876.6325883810001,878.651336176,878.651336176,878.651336176,878.651336176,878.651336176,878.651336176,878.651336176,878.651336176,880.6702915699999,880.6702915699999,880.6702915699999,880.6702915699999,,,,,,,,,,,,,,,,,,,,,,,,,,,,,,,,,,,,,,,10,008,2022-09-22_11h58.50.070,test2,2022.2.4,60.008164710886454,
0,0,0,0,50,0,50,0,880.6702915699999,880.6702915699999,880.6702915699999,880.6702915699999,880.6702915699999,880.6702915699999,880.6702915699999,1,1,azul,1,['N_B'],882.6225641100001,882.6225641100001,882.6225641100001,882.6225641100001,884.6419107329999,884.6419107329999,884.6419107329999,884.6419107329999,884.6419107329999,884.6419107329999,884.6419107329999,884.6419107329999,886.6600008720001,886.6600008720001,886.6600008720001,886.6600008720001,,,,,,,,,,,,,,,,,,,,,,,,,,,,,,,,,,,,,,,10,008,2022-09-22_11h58.50.070,test2,2022.2.4,60.008164710886454,
0,0,0,0,51,0,51,0,886.6600008720001,886.6600008720001,886.6600008720001,886.6600008720001,886.6600008720001,886.6600008720001,886.6600008720001,1,1,azul,1,['N_B'],888.1283000669999,888.1283000669999,888.1283000669999,888.1283000669999,890.146550347,890.146550347,890.146550347,890.146550347,890.146550347,890.146550347,890.146550347,890.146550347,892.1660009630001,892.1660009630001,892.1660009630001,892.1660009630001,,,,,,,,,,,,,,,,,,,,,,,,,,,,,,,,,,,,,,,10,008,2022-09-22_11h58.50.070,test2,2022.2.4,60.008164710886454,
0,0,0,0,52,0,52,0,892.1660009630001,892.1660009630001,892.1660009630001,892.1660009630001,892.1660009630001,892.1660009630001,892.1660009630001,-1,-1,rojo,1,['N_B'],893.60148978,893.60148978,893.60148978,893.60148978,895.619617772,895.619617772,895.619617772,895.619617772,895.619617772,895.619617772,895.619617772,895.619617772,897.6387545910001,897.6387545910001,897.6387545910001,897.6387545910001,,,,,,,,,,,,,,,,,,,,,,,,,,,,,,,,,,,,,,,10,008,2022-09-22_11h58.50.070,test2,2022.2.4,60.008164710886454,
0,0,0,0,53,0,53,0,897.6387545910001,897.6387545910001,897.6387545910001,897.6387545910001,897.6387545910001,897.6387545910001,897.6387545910001,1,1,azul,1,['N_B'],899.24069335,899.24069335,899.24069335,899.24069335,901.2602584540001,901.2602584540001,901.2602584540001,901.2602584540001,901.2602584540001,901.2602584540001,901.2602584540001,901.2602584540001,903.2785830660001,903.2785830660001,903.2785830660001,903.2785830660001,,,,,,,,,,,,,,,,,,,,,,,,,,,,,,,,,,,,,,,10,008,2022-09-22_11h58.50.070,test2,2022.2.4,60.008164710886454,
0,0,0,0,54,0,54,0,903.2785830660001,903.2785830660001,903.2785830660001,903.2785830660001,903.2785830660001,903.2785830660001,903.2785830660001,1,1,azul,0,['N_A'],907.0326846080001,907.0326846080001,907.0326846080001,907.0326846080001,909.050925394,909.050925394,909.050925394,909.050925394,909.050925394,909.050925394,909.050925394,909.050925394,911.070690167,911.070690167,911.070690167,911.070690167,,,,,,,,,,,,,,,,,,,,,,,,,,,,,,,,,,,,,,,10,008,2022-09-22_11h58.50.070,test2,2022.2.4,60.008164710886454,
0,0,0,0,55,0,55,0,911.070690167,911.070690167,911.070690167,911.070690167,911.070690167,911.070690167,911.070690167,1,-1,rojo,1,['N_A'],913.1894957190001,913.1894957190001,913.1894957190001,913.1894957190001,915.2255230100001,915.2255230100001,915.2255230100001,915.2255230100001,915.2255230100001,915.2255230100001,915.2255230100001,915.2255230100001,917.2440310999999,917.2440310999999,917.2440310999999,917.2440310999999,,,,,,,,,,,,,,,,,,,,,,,,,,,,,,,,,,,,,,,10,008,2022-09-22_11h58.50.070,test2,2022.2.4,60.008164710886454,
0,0,0,0,56,0,56,0,917.2440310999999,917.2440310999999,917.2440310999999,917.2440310999999,917.2440310999999,917.2440310999999,917.2440310999999,1,-1,rojo,1,['N_A'],919.062664658,919.062664658,919.062664658,919.062664658,921.0987171749999,921.0987171749999,921.0987171749999,921.0987171749999,921.0987171749999,921.0987171749999,921.0987171749999,921.0987171749999,923.1165295879999,923.1165295879999,923.1165295879999,923.1165295879999,,,,,,,,,,,,,,,,,,,,,,,,,,,,,,,,,,,,,,,10,008,2022-09-22_11h58.50.070,test2,2022.2.4,60.008164710886454,
0,0,0,0,57,0,57,0,923.1165295879999,923.1165295879999,923.1165295879999,923.1165295879999,923.1165295879999,923.1165295879999,923.1165295879999,1,-1,rojo,0,['N_B'],924.7182403360001,924.7182403360001,924.7182403360001,924.7182403360001,926.755005314,926.755005314,926.755005314,926.755005314,926.755005314,926.755005314,926.755005314,926.755005314,928.7725508530001,928.7725508530001,928.7725508530001,928.7725508530001,,,,,,,,,,,,,,,,,,,,,,,,,,,,,,,,,,,,,,,10,008,2022-09-22_11h58.50.070,test2,2022.2.4,60.008164710886454,
0,0,0,0,58,0,58,0,928.7725508530001,928.7725508530001,928.7725508530001,928.7725508530001,928.7725508530001,928.7725508530001,928.7725508530001,-1,-1,rojo,1,['N_B'],930.308321353,930.308321353,930.308321353,930.308321353,932.3445146550001,932.3445146550001,932.3445146550001,932.3445146550001,932.3445146550001,932.3445146550001,932.3445146550001,932.3445146550001,934.362123131,934.362123131,934.362123131,934.362123131,,,,,,,,,,,,,,,,,,,,,,,,,,,,,,,,,,,,,,,10,008,2022-09-22_11h58.50.070,test2,2022.2.4,60.008164710886454,
0,0,0,0,59,0,59,0,934.362123131,934.362123131,934.362123131,934.362123131,934.362123131,934.362123131,934.362123131,1,-1,azul,1,['N_B'],935.93037163,935.93037163,935.93037163,935.93037163,937.9671969130001,937.9671969130001,937.9671969130001,937.9671969130001,937.9671969130001,937.9671969130001,937.9671969130001,937.9671969130001,939.985060765,939.985060765,939.985060765,939.985060765,,,,,,,,,,,,,,,,,,,,,,,,,,,,,,,,,,,,,,,10,008,2022-09-22_11h58.50.070,test2,2022.2.4,60.008164710886454,
0,0,0,0,60,0,60,0,939.985060765,939.985060765,939.985060765,939.985060765,939.985060765,939.985060765,939.985060765,1,-1,azul,1,['N_B'],941.5875845300001,941.5875845300001,941.5875845300001,941.5875845300001,943.6233061070001,943.6233061070001,943.6233061070001,943.6233061070001,943.6233061070001,943.6233061070001,943.6233061070001,943.6233061070001,945.6413597259999,945.6413597259999,945.6413597259999,945.6413597259999,,,,,,,,,,,,,,,,,,,,,,,,,,,,,,,,,,,,,,,10,008,2022-09-22_11h58.50.070,test2,2022.2.4,60.008164710886454,
0,0,0,0,61,0,61,0,945.6413597259999,945.6413597259999,945.6413597259999,945.6413597259999,945.6413597259999,945.6413597259999,945.6413597259999,-1,-1,rojo,1,['N_B'],947.8275360189999,947.8275360189999,947.8275360189999,947.8275360189999,949.8461633430001,949.8461633430001,949.8461633430001,949.8461633430001,949.8461633430001,949.8461633430001,949.8461633430001,949.8461633430001,951.8655590019999,951.8655590019999,951.8655590019999,951.8655590019999,,,,,,,,,,,,,,,,,,,,,,,,,,,,,,,,,,,,,,,10,008,2022-09-22_11h58.50.070,test2,2022.2.4,60.008164710886454,
0,0,0,0,62,0,62,0,951.8655590019999,951.8655590019999,951.8655590019999,951.8655590019999,951.8655590019999,951.8655590019999,951.8655590019999,-1,1,rojo,1,['N_B'],953.26684253,953.26684253,953.26684253,953.26684253,955.2868969960001,955.2868969960001,955.2868969960001,955.2868969960001,955.2868969960001,955.2868969960001,955.2868969960001,955.2868969960001,957.3049688730001,957.3049688730001,957.3049688730001,957.3049688730001,,,,,,,,,,,,,,,,,,,,,,,,,,,,,,,,,,,,,,,10,008,2022-09-22_11h58.50.070,test2,2022.2.4,60.008164710886454,
0,0,0,0,63,0,63,0,957.3049688730001,957.3049688730001,957.3049688730001,957.3049688730001,957.3049688730001,957.3049688730001,957.3049688730001,1,1,azul,1,['N_B'],958.755695793,958.755695793,958.755695793,958.755695793,960.775237722,960.775237722,960.775237722,960.775237722,960.775237722,960.775237722,960.775237722,960.775237722,962.793885334,962.793885334,962.793885334,962.793885334,,,,,,,,,,,,,,,,,,,,,,,,,,,,,,,,,,,,,,,10,008,2022-09-22_11h58.50.070,test2,2022.2.4,60.008164710886454,
0,0,0,0,64,0,64,0,962.793885334,962.793885334,962.793885334,962.793885334,962.793885334,962.793885334,962.793885334,1,-1,azul,1,['N_B'],964.2959696460001,964.2959696460001,964.2959696460001,964.2959696460001,966.3319411690001,966.3319411690001,966.3319411690001,966.3319411690001,966.3319411690001,966.3319411690001,966.3319411690001,966.3319411690001,968.350378174,968.350378174,968.350378174,968.350378174,,,,,,,,,,,,,,,,,,,,,,,,,,,,,,,,,,,,,,,10,008,2022-09-22_11h58.50.070,test2,2022.2.4,60.008164710886454,
0,0,0,0,65,0,65,0,968.350378174,968.350378174,968.350378174,968.350378174,968.350378174,968.350378174,968.350378174,1,-1,azul,1,['N_B'],970.0187807020001,970.0187807020001,970.0187807020001,970.0187807020001,972.05436752,972.05436752,972.05436752,972.05436752,972.05436752,972.05436752,972.05436752,972.05436752,974.0724869449999,974.0724869449999,974.0724869449999,974.0724869449999,,,,,,,,,,,,,,,,,,,,,,,,,,,,,,,,,,,,,,,10,008,2022-09-22_11h58.50.070,test2,2022.2.4,60.008164710886454,
0,0,0,0,66,0,66,0,974.0724869449999,974.0724869449999,974.0724869449999,974.0724869449999,974.0724869449999,974.0724869449999,974.0724869449999,-1,-1,rojo,0,['N_A'],975.924592059,975.924592059,975.924592059,975.924592059,977.9608259340001,977.9608259340001,977.9608259340001,977.9608259340001,977.9608259340001,977.9608259340001,977.9608259340001,977.9608259340001,979.978899243,979.978899243,979.978899243,979.978899243,,,,,,,,,,,,,,,,,,,,,,,,,,,,,,,,,,,,,,,10,008,2022-09-22_11h58.50.070,test2,2022.2.4,60.008164710886454,
0,0,0,0,67,0,67,0,979.978899243,979.978899243,979.978899243,979.978899243,979.978899243,979.978899243,979.978899243,1,-1,rojo,1,['N_A'],981.898551524,981.898551524,981.898551524,981.898551524,983.9170427749999,983.9170427749999,983.9170427749999,983.9170427749999,983.9170427749999,983.9170427749999,983.9170427749999,983.9170427749999,985.9360630719999,985.9360630719999,985.9360630719999,985.9360630719999,,,,,,,,,,,,,,,,,,,,,,,,,,,,,,,,,,,,,,,10,008,2022-09-22_11h58.50.070,test2,2022.2.4,60.008164710886454,
0,0,0,0,68,0,68,0,985.9360630719999,985.9360630719999,985.9360630719999,985.9360630719999,985.9360630719999,985.9360630719999,985.9360630719999,-1,1,azul,0,['N_B'],988.155009343,988.155009343,988.155009343,988.155009343,990.17366319,990.17366319,990.17366319,990.17366319,990.17366319,990.17366319,990.17366319,990.17366319,992.19248501,992.19248501,992.19248501,992.19248501,,,,,,,,,,,,,,,,,,,,,,,,,,,,,,,,,,,,,,,10,008,2022-09-22_11h58.50.070,test2,2022.2.4,60.008164710886454,
0,0,0,0,69,0,69,0,992.19248501,992.19248501,992.19248501,992.19248501,992.19248501,992.19248501,992.19248501,-1,-1,rojo,1,['N_B'],993.6778476569999,993.6778476569999,993.6778476569999,993.6778476569999,995.714412036,995.714412036,995.714412036,995.714412036,995.714412036,995.714412036,995.714412036,995.714412036,997.7500454479999,997.7500454479999,997.7500454479999,997.7500454479999,,,,,,,,,,,,,,,,,,,,,,,,,,,,,,,,,,,,,,,10,008,2022-09-22_11h58.50.070,test2,2022.2.4,60.008164710886454,
0,0,0,0,70,0,70,0,997.7500454479999,997.7500454479999,997.7500454479999,997.7500454479999,997.7500454479999,997.7500454479999,997.7500454479999,1,-1,azul,0,['N_A'],1000.1347829350001,1000.1347829350001,1000.1347829350001,1000.1347829350001,1002.153657401,1002.153657401,1002.153657401,1002.153657401,1002.153657401,1002.153657401,1002.153657401,1002.153657401,1004.1723893070001,1004.1723893070001,1004.1723893070001,1004.1723893070001,,,,,,,,,,,,,,,,,,,,,,,,,,,,,,,,,,,,,,,10,008,2022-09-22_11h58.50.070,test2,2022.2.4,60.008164710886454,
0,0,0,0,71,0,71,0,1004.1723893070001,1004.1723893070001,1004.1723893070001,1004.1723893070001,1004.1723893070001,1004.1723893070001,1004.1723893070001,-1,1,azul,1,['N_A'],1005.8253258789999,1005.8253258789999,1005.8253258789999,1005.8253258789999,1007.8434687299999,1007.8434687299999,1007.8434687299999,1007.8434687299999,1007.8434687299999,1007.8434687299999,1007.8434687299999,1007.8434687299999,1009.862895416,1009.862895416,1009.862895416,1009.862895416,,,,,,,,,,,,,,,,,,,,,,,,,,,,,,,,,,,,,,,10,008,2022-09-22_11h58.50.070,test2,2022.2.4,60.008164710886454,
0,0,0,0,72,0,72,0,1009.862895416,1009.862895416,1009.862895416,1009.862895416,1009.862895416,1009.862895416,1009.862895416,1,-1,rojo,0,['N_B'],1011.965054034,1011.965054034,1011.965054034,1011.965054034,1014.001728458,1014.001728458,1014.001728458,1014.001728458,1014.001728458,1014.001728458,1014.001728458,1014.001728458,1016.0203177300001,1016.0203177300001,1016.0203177300001,1016.0203177300001,,,,,,,,,,,,,,,,,,,,,,,,,,,,,,,,,,,,,,,10,008,2022-09-22_11h58.50.070,test2,2022.2.4,60.008164710886454,
0,0,0,0,73,0,73,0,1016.0203177300001,1016.0203177300001,1016.0203177300001,1016.0203177300001,1016.0203177300001,1016.0203177300001,1016.0203177300001,-1,-1,rojo,1,['N_B'],1018.372575754,1018.372575754,1018.372575754,1018.372575754,1020.390183225,1020.390183225,1020.390183225,1020.390183225,1020.390183225,1020.390183225,1020.390183225,1020.390183225,1022.409087527,1022.409087527,1022.409087527,1022.409087527,,,,,,,,,,,,,,,,,,,,,,,,,,,,,,,,,,,,,,,10,008,2022-09-22_11h58.50.070,test2,2022.2.4,60.008164710886454,
0,0,0,0,74,0,74,0,1022.409087527,1022.409087527,1022.409087527,1022.409087527,1022.409087527,1022.409087527,1022.409087527,1,1,azul,1,['N_B'],1024.04421714,1024.04421714,1024.04421714,1024.04421714,1026.0641536040002,1026.0641536040002,1026.0641536040002,1026.0641536040002,1026.0641536040002,1026.0641536040002,1026.0641536040002,1026.0641536040002,1028.0826356420002,1028.0826356420002,1028.0826356420002,1028.0826356420002,,,,,,,,,,,,,,,,,,,,,,,,,,,,,,,,,,,,,,,10,008,2022-09-22_11h58.50.070,test2,2022.2.4,60.008164710886454,
0,0,0,0,75,0,75,0,1028.0826356420002,1028.0826356420002,1028.0826356420002,1028.0826356420002,1028.0826356420002,1028.0826356420002,1028.0826356420002,1,1,azul,1,['N_B'],1029.5669007770002,1029.5669007770002,1029.5669007770002,1029.5669007770002,1031.5863248209998,1031.5863248209998,1031.5863248209998,1031.5863248209998,1031.5863248209998,1031.5863248209998,1031.5863248209998,1031.5863248209998,1033.6057727490002,1033.6057727490002,1033.6057727490002,1033.6057727490002,,,,,,,,,,,,,,,,,,,,,,,,,,,,,,,,,,,,,,,10,008,2022-09-22_11h58.50.070,test2,2022.2.4,60.008164710886454,
0,0,0,0,76,0,76,0,1033.6057727490002,1033.6057727490002,1033.6057727490002,1033.6057727490002,1033.6057727490002,1033.6057727490002,1033.6057727490002,-1,-1,rojo,1,['N_B'],1035.4240621650001,1035.4240621650001,1035.4240621650001,1035.4240621650001,1037.46089906,1037.46089906,1037.46089906,1037.46089906,1037.46089906,1037.46089906,1037.46089906,1037.46089906,1039.4786535819999,1039.4786535819999,1039.4786535819999,1039.4786535819999,,,,,,,,,,,,,,,,,,,,,,,,,,,,,,,,,,,,,,,10,008,2022-09-22_11h58.50.070,test2,2022.2.4,60.008164710886454,
0,0,0,0,77,0,77,0,1039.4786535819999,1039.4786535819999,1039.4786535819999,1039.4786535819999,1039.4786535819999,1039.4786535819999,1039.4786535819999,1,-1,azul,1,['N_B'],1041.196591631,1041.196591631,1041.196591631,1041.196591631,1043.2164180539999,1043.2164180539999,1043.2164180539999,1043.2164180539999,1043.2164180539999,1043.2164180539999,1043.2164180539999,1043.2164180539999,1045.235055914,1045.235055914,1045.235055914,1045.235055914,,,,,,,,,,,,,,,,,,,,,,,,,,,,,,,,,,,,,,,10,008,2022-09-22_11h58.50.070,test2,2022.2.4,60.008164710886454,
0,0,0,0,78,0,78,0,1045.235055914,1045.235055914,1045.235055914,1045.235055914,1045.235055914,1045.235055914,1045.235055914,1,1,azul,1,['N_B'],1046.853493474,1046.853493474,1046.853493474,1046.853493474,1048.8730223809998,1048.8730223809998,1048.8730223809998,1048.8730223809998,1048.8730223809998,1048.8730223809998,1048.8730223809998,1048.8730223809998,1050.8912555430002,1050.8912555430002,1050.8912555430002,1050.8912555430002,,,,,,,,,,,,,,,,,,,,,,,,,,,,,,,,,,,,,,,10,008,2022-09-22_11h58.50.070,test2,2022.2.4,60.008164710886454,
0,0,0,0,79,0,79,0,1050.8912555430002,1050.8912555430002,1050.8912555430002,1050.8912555430002,1050.8912555430002,1050.8912555430002,1050.8912555430002,-1,1,rojo,1,['N_B'],1052.4927871690002,1052.4927871690002,1052.4927871690002,1052.4927871690002,1054.5110625349998,1054.5110625349998,1054.5110625349998,1054.5110625349998,1054.5110625349998,1054.5110625349998,1054.5110625349998,1054.5110625349998,1056.5308777660002,1056.5308777660002,1056.5308777660002,1056.5308777660002,,,,,,,,,,,,,,,,,,,,,,,,,,,,,,,,,,,,,,,10,008,2022-09-22_11h58.50.070,test2,2022.2.4,60.008164710886454,
0,0,0,0,80,0,80,0,1056.5308777660002,1056.5308777660002,1056.5308777660002,1056.5308777660002,1056.5308777660002,1056.5308777660002,1056.5308777660002,1,-1,azul,1,['N_B'],1058.165521637,1058.165521637,1058.165521637,1058.165521637,1060.201465221,1060.201465221,1060.201465221,1060.201465221,1060.201465221,1060.201465221,1060.201465221,1060.201465221,1062.2201379530002,1062.2201379530002,1062.2201379530002,1062.2201379530002,,,,,,,,,,,,,,,,,,,,,,,,,,,,,,,,,,,,,,,10,008,2022-09-22_11h58.50.070,test2,2022.2.4,60.008164710886454,
0,0,0,0,81,0,81,0,1062.2201379530002,1062.2201379530002,1062.2201379530002,1062.2201379530002,1062.2201379530002,1062.2201379530002,1062.2201379530002,-1,-1,rojo,0,['N_A'],1063.823104402,1063.823104402,1063.823104402,1063.823104402,1065.8583767670002,1065.8583767670002,1065.8583767670002,1065.8583767670002,1065.8583767670002,1065.8583767670002,1065.8583767670002,1065.8583767670002,1067.876248443,1067.876248443,1067.876248443,1067.876248443,,,,,,,,,,,,,,,,,,,,,,,,,,,,,,,,,,,,,,,10,008,2022-09-22_11h58.50.070,test2,2022.2.4,60.008164710886454,
0,0,0,0,82,0,82,0,1067.876248443,1067.876248443,1067.876248443,1067.876248443,1067.876248443,1067.876248443,1067.876248443,1,-1,rojo,1,['N_A'],1069.4448145430001,1069.4448145430001,1069.4448145430001,1069.4448145430001,1071.4809800409998,1071.4809800409998,1071.4809800409998,1071.4809800409998,1071.4809800409998,1071.4809800409998,1071.4809800409998,1071.4809800409998,1073.4991496040002,1073.4991496040002,1073.4991496040002,1073.4991496040002,,,,,,,,,,,,,,,,,,,,,,,,,,,,,,,,,,,,,,,10,008,2022-09-22_11h58.50.070,test2,2022.2.4,60.008164710886454,
0,0,0,0,83,0,83,0,1073.4991496040002,1073.4991496040002,1073.4991496040002,1073.4991496040002,1073.4991496040002,1073.4991496040002,1073.4991496040002,1,-1,rojo,0,['N_B'],1075.0178488830002,1075.0178488830002,1075.0178488830002,1075.0178488830002,1077.053790116,1077.053790116,1077.053790116,1077.053790116,1077.053790116,1077.053790116,1077.053790116,1077.053790116,1079.072560691,1079.072560691,1079.072560691,1079.072560691,,,,,,,,,,,,,,,,,,,,,,,,,,,,,,,,,,,,,,,10,008,2022-09-22_11h58.50.070,test2,2022.2.4,60.008164710886454,
0,0,0,0,84,0,84,0,1079.072560691,1079.072560691,1079.072560691,1079.072560691,1079.072560691,1079.072560691,1079.072560691,-1,-1,rojo,1,['N_B'],1080.557533568,1080.557533568,1080.557533568,1080.557533568,1082.5930954690002,1082.5930954690002,1082.5930954690002,1082.5930954690002,1082.5930954690002,1082.5930954690002,1082.5930954690002,1082.5930954690002,1084.6119900479998,1084.6119900479998,1084.6119900479998,1084.6119900479998,,,,,,,,,,,,,,,,,,,,,,,,,,,,,,,,,,,,,,,10,008,2022-09-22_11h58.50.070,test2,2022.2.4,60.008164710886454,
0,0,0,0,85,0,85,0,1084.6119900479998,1084.6119900479998,1084.6119900479998,1084.6119900479998,1084.6119900479998,1084.6119900479998,1084.6119900479998,-1,-1,rojo,1,['N_B'],1086.262764304,1086.262764304,1086.262764304,1086.262764304,1088.282422108,1088.282422108,1088.282422108,1088.282422108,1088.282422108,1088.282422108,1088.282422108,1088.282422108,1090.301254695,1090.301254695,1090.301254695,1090.301254695,,,,,,,,,,,,,,,,,,,,,,,,,,,,,,,,,,,,,,,10,008,2022-09-22_11h58.50.070,test2,2022.2.4,60.008164710886454,
0,0,0,0,86,0,86,0,1090.301254695,1090.301254695,1090.301254695,1090.301254695,1090.301254695,1090.301254695,1090.301254695,1,1,azul,1,['N_B'],1091.7855160990002,1091.7855160990002,1091.7855160990002,1091.7855160990002,1093.8050298530002,1093.8050298530002,1093.8050298530002,1093.8050298530002,1093.8050298530002,1093.8050298530002,1093.8050298530002,1093.8050298530002,1095.8246508840002,1095.8246508840002,1095.8246508840002,1095.8246508840002,,,,,,,,,,,,,,,,,,,,,,,,,,,,,,,,,,,,,,,10,008,2022-09-22_11h58.50.070,test2,2022.2.4,60.008164710886454,
0,0,0,0,87,0,87,0,1095.8246508840002,1095.8246508840002,1095.8246508840002,1095.8246508840002,1095.8246508840002,1095.8246508840002,1095.8246508840002,1,1,azul,1,['N_B'],1102.599702739,1102.599702739,1102.599702739,1102.599702739,1104.6174373079998,1104.6174373079998,1104.6174373079998,1104.6174373079998,1104.6174373079998,1104.6174373079998,1104.6174373079998,1104.6174373079998,1106.6360593059999,1106.6360593059999,1106.6360593059999,1106.6360593059999,,,,,,,,,,,,,,,,,,,,,,,,,,,,,,,,,,,,,,,10,008,2022-09-22_11h58.50.070,test2,2022.2.4,60.008164710886454,
0,0,0,0,88,0,88,0,1106.6360593059999,1106.6360593059999,1106.6360593059999,1106.6360593059999,1106.6360593059999,1106.6360593059999,1106.6360593059999,-1,-1,rojo,1,['N_B'],1108.7055796529999,1108.7055796529999,1108.7055796529999,1108.7055796529999,1110.740556784,1110.740556784,1110.740556784,1110.740556784,1110.740556784,1110.740556784,1110.740556784,1110.740556784,1112.759376553,1112.759376553,1112.759376553,1112.759376553,,,,,,,,,,,,,,,,,,,,,,,,,,,,,,,,,,,,,,,10,008,2022-09-22_11h58.50.070,test2,2022.2.4,60.008164710886454,
0,0,0,0,89,0,89,0,1112.759376553,1112.759376553,1112.759376553,1112.759376553,1112.759376553,1112.759376553,1112.759376553,1,-1,azul,1,['N_B'],1115.328644271,1115.328644271,1115.328644271,1115.328644271,1117.347506566,1117.347506566,1117.347506566,1117.347506566,1117.347506566,1117.347506566,1117.347506566,1117.347506566,1119.366069869,1119.366069869,1119.366069869,1119.366069869,,,,,,,,,,,,,,,,,,,,,,,,,,,,,,,,,,,,,,,10,008,2022-09-22_11h58.50.070,test2,2022.2.4,60.008164710886454,
0,0,0,0,90,0,90,0,1119.366069869,1119.366069869,1119.366069869,1119.366069869,1119.366069869,1119.366069869,1119.366069869,1,1,azul,1,['N_B'],1121.868870064,1121.868870064,1121.868870064,1121.868870064,1123.8879718100002,1123.8879718100002,1123.8879718100002,1123.8879718100002,1123.8879718100002,1123.8879718100002,1123.8879718100002,1123.8879718100002,1125.9075475630002,1125.9075475630002,1125.9075475630002,1125.9075475630002,,,,,,,,,,,,,,,,,,,,,,,,,,,,,,,,,,,,,,,10,008,2022-09-22_11h58.50.070,test2,2022.2.4,60.008164710886454,
0,0,0,0,91,0,91,0,1125.9075475630002,1125.9075475630002,1125.9075475630002,1125.9075475630002,1125.9075475630002,1125.9075475630002,1125.9075475630002,-1,-1,rojo,1,['N_B'],1128.292685043,1128.292685043,1128.292685043,1128.292685043,1130.329317409,1130.329317409,1130.329317409,1130.329317409,1130.329317409,1130.329317409,1130.329317409,1130.329317409,1132.3481054069998,1132.3481054069998,1132.3481054069998,1132.3481054069998,,,,,,,,,,,,,,,,,,,,,,,,,,,,,,,,,,,,,,,10,008,2022-09-22_11h58.50.070,test2,2022.2.4,60.008164710886454,
0,0,0,0,92,0,92,0,1132.3481054069998,1132.3481054069998,1132.3481054069998,1132.3481054069998,1132.3481054069998,1132.3481054069998,1132.3481054069998,-1,-1,rojo,1,['N_B'],1135.2683281569998,1135.2683281569998,1135.2683281569998,1135.2683281569998,1137.303834462,1137.303834462,1137.303834462,1137.303834462,1137.303834462,1137.303834462,1137.303834462,1137.303834462,1139.3235786320001,1139.3235786320001,1139.3235786320001,1139.3235786320001,,,,,,,,,,,,,,,,,,,,,,,,,,,,,,,,,,,,,,,10,008,2022-09-22_11h58.50.070,test2,2022.2.4,60.008164710886454,
0,0,0,0,93,0,93,0,1139.3235786320001,1139.3235786320001,1139.3235786320001,1139.3235786320001,1139.3235786320001,1139.3235786320001,1139.3235786320001,1,-1,azul,1,['N_B'],1141.908034782,1141.908034782,1141.908034782,1141.908034782,1143.926709289,1143.926709289,1143.926709289,1143.926709289,1143.926709289,1143.926709289,1143.926709289,1143.926709289,1145.946255793,1145.946255793,1145.946255793,1145.946255793,,,,,,,,,,,,,,,,,,,,,,,,,,,,,,,,,,,,,,,10,008,2022-09-22_11h58.50.070,test2,2022.2.4,60.008164710886454,
0,0,0,0,94,0,94,0,1145.946255793,1145.946255793,1145.946255793,1145.946255793,1145.946255793,1145.946255793,1145.946255793,1,1,azul,1,['N_B'],1148.349093282,1148.349093282,1148.349093282,1148.349093282,1150.3675096380002,1150.3675096380002,1150.3675096380002,1150.3675096380002,1150.3675096380002,1150.3675096380002,1150.3675096380002,1150.3675096380002,1152.386515274,1152.386515274,1152.386515274,1152.386515274,,,,,,,,,,,,,,,,,,,,,,,,,,,,,,,,,,,,,,,10,008,2022-09-22_11h58.50.070,test2,2022.2.4,60.008164710886454,
0,0,0,0,95,0,95,0,1152.386515274,1152.386515274,1152.386515274,1152.386515274,1152.386515274,1152.386515274,1152.386515274,-1,-1,rojo,0,['N_A'],1154.8551923240002,1154.8551923240002,1154.8551923240002,1154.8551923240002,1156.8923642139998,1156.8923642139998,1156.8923642139998,1156.8923642139998,1156.8923642139998,1156.8923642139998,1156.8923642139998,1156.8923642139998,1158.9099911009998,1158.9099911009998,1158.9099911009998,1158.9099911009998,,,,,,,,,,,,,,,,,,,,,,,,,,,,,,,,,,,,,,,10,008,2022-09-22_11h58.50.070,test2,2022.2.4,60.008164710886454,
0,0,0,0,96,0,96,0,1158.9099911009998,1158.9099911009998,1158.9099911009998,1158.9099911009998,1158.9099911009998,1158.9099911009998,1158.9099911009998,1,-1,rojo,1,['N_A'],1160.495485728,1160.495485728,1160.495485728,1160.495485728,1162.5138150020002,1162.5138150020002,1162.5138150020002,1162.5138150020002,1162.5138150020002,1162.5138150020002,1162.5138150020002,1162.5138150020002,1164.533395299,1164.533395299,1164.533395299,1164.533395299,,,,,,,,,,,,,,,,,,,,,,,,,,,,,,,,,,,,,,,10,008,2022-09-22_11h58.50.070,test2,2022.2.4,60.008164710886454,
0,0,0,0,97,0,97,0,1164.533395299,1164.533395299,1164.533395299,1164.533395299,1164.533395299,1164.533395299,1164.533395299,1,1,rojo,1,['N_A'],1166.2351085230002,1166.2351085230002,1166.2351085230002,1166.2351085230002,1168.254271806,1168.254271806,1168.254271806,1168.254271806,1168.254271806,1168.254271806,1168.254271806,1168.254271806,1170.2733338050002,1170.2733338050002,1170.2733338050002,1170.2733338050002,,,,,,,,,,,,,,,,,,,,,,,,,,,,,,,,,,,,,,,10,008,2022-09-22_11h58.50.070,test2,2022.2.4,60.008164710886454,
0,0,0,0,98,0,98,0,1170.2733338050002,1170.2733338050002,1170.2733338050002,1170.2733338050002,1170.2733338050002,1170.2733338050002,1170.2733338050002,1,-1,rojo,1,['N_A'],1172.49260069,1172.49260069,1172.49260069,1172.49260069,1174.527657003,1174.527657003,1174.527657003,1174.527657003,1174.527657003,1174.527657003,1174.527657003,1174.527657003,1176.5458499699998,1176.5458499699998,1176.5458499699998,1176.5458499699998,,,,,,,,,,,,,,,,,,,,,,,,,,,,,,,,,,,,,,,10,008,2022-09-22_11h58.50.070,test2,2022.2.4,60.008164710886454,
0,0,0,0,99,0,99,0,1176.5458499699998,1176.5458499699998,1176.5458499699998,1176.5458499699998,1176.5458499699998,1176.5458499699998,1176.5458499699998,1,-1,rojo,1,['N_A'],1178.565213581,1178.565213581,1178.565213581,1178.565213581,1180.6017178450002,1180.6017178450002,1180.6017178450002,1180.6017178450002,1180.6017178450002,1180.6017178450002,1180.6017178450002,1180.6017178450002,1182.619660941,1182.619660941,1182.619660941,1182.619660941,,,,,,,,,,,,,,,,,,,,,,,,,,,,,,,,,,,,,,,10,008,2022-09-22_11h58.50.070,test2,2022.2.4,60.008164710886454,
0,0,0,0,100,0,100,0,1182.619660941,1182.619660941,1182.619660941,1182.619660941,1182.619660941,1182.619660941,1182.619660941,1,-1,rojo,1,['N_A'],1184.5719702689998,1184.5719702689998,1184.5719702689998,1184.5719702689998,1186.6087631340001,1186.6087631340001,1186.6087631340001,1186.6087631340001,1186.6087631340001,1186.6087631340001,1186.6087631340001,1186.6087631340001,1188.62605187,1188.62605187,1188.62605187,1188.62605187,,,,,,,,,,,,,,,,,,,,,,,,,,,,,,,,,,,,,,,10,008,2022-09-22_11h58.50.070,test2,2022.2.4,60.008164710886454,
0,0,0,0,101,0,101,0,1188.62605187,1188.62605187,1188.62605187,1188.62605187,1188.62605187,1188.62605187,1188.62605187,-1,-1,azul,0,['N_B'],1191.5966674310002,1191.5966674310002,1191.5966674310002,1191.5966674310002,1193.6323594780001,1193.6323594780001,1193.6323594780001,1193.6323594780001,1193.6323594780001,1193.6323594780001,1193.6323594780001,1193.6323594780001,1195.6508634900001,1195.6508634900001,1195.6508634900001,1195.6508634900001,,,,,,,,,,,,,,,,,,,,,,,,,,,,,,,,,,,,,,,10,008,2022-09-22_11h58.50.070,test2,2022.2.4,60.008164710886454,
0,0,0,0,102,0,102,0,1195.6508634900001,1195.6508634900001,1195.6508634900001,1195.6508634900001,1195.6508634900001,1195.6508634900001,1195.6508634900001,-1,-1,rojo,1,['N_B'],1197.085437235,1197.085437235,1197.085437235,1197.085437235,1199.1220304500002,1199.1220304500002,1199.1220304500002,1199.1220304500002,1199.1220304500002,1199.1220304500002,1199.1220304500002,1199.1220304500002,1201.140108402,1201.140108402,1201.140108402,1201.140108402,,,,,,,,,,,,,,,,,,,,,,,,,,,,,,,,,,,,,,,10,008,2022-09-22_11h58.50.070,test2,2022.2.4,60.008164710886454,
0,0,0,0,103,0,103,0,1201.140108402,1201.140108402,1201.140108402,1201.140108402,1201.140108402,1201.140108402,1201.140108402,-1,-1,rojo,1,['N_B'],1202.5921814039998,1202.5921814039998,1202.5921814039998,1202.5921814039998,1204.6111047260001,1204.6111047260001,1204.6111047260001,1204.6111047260001,1204.6111047260001,1204.6111047260001,1204.6111047260001,1204.6111047260001,1206.629958163,1206.629958163,1206.629958163,1206.629958163,,,,,,,,,,,,,,,,,,,,,,,,,,,,,,,,,,,,,,,10,008,2022-09-22_11h58.50.070,test2,2022.2.4,60.008164710886454,
0,0,0,0,104,0,104,0,1206.629958163,1206.629958163,1206.629958163,1206.629958163,1206.629958163,1206.629958163,1206.629958163,-1,1,rojo,1,['N_B'],1208.198236837,1208.198236837,1208.198236837,1208.198236837,1210.216289073,1210.216289073,1210.216289073,1210.216289073,1210.216289073,1210.216289073,1210.216289073,1210.216289073,1212.2356172579998,1212.2356172579998,1212.2356172579998,1212.2356172579998,,,,,,,,,,,,,,,,,,,,,,,,,,,,,,,,,,,,,,,10,008,2022-09-22_11h58.50.070,test2,2022.2.4,60.008164710886454,
0,0,0,0,105,0,105,0,1212.2356172579998,1212.2356172579998,1212.2356172579998,1212.2356172579998,1212.2356172579998,1212.2356172579998,1212.2356172579998,-1,-1,rojo,0,['N_A'],1213.987056421,1213.987056421,1213.987056421,1213.987056421,1216.0238362220002,1216.0238362220002,1216.0238362220002,1216.0238362220002,1216.0238362220002,1216.0238362220002,1216.0238362220002,1216.0238362220002,1218.042088438,1218.042088438,1218.042088438,1218.042088438,,,,,,,,,,,,,,,,,,,,,,,,,,,,,,,,,,,,,,,10,008,2022-09-22_11h58.50.070,test2,2022.2.4,60.008164710886454,
0,0,0,0,106,0,106,0,1218.042088438,1218.042088438,1218.042088438,1218.042088438,1218.042088438,1218.042088438,1218.042088438,1,-1,rojo,1,['N_A'],1219.7937018349999,1219.7937018349999,1219.7937018349999,1219.7937018349999,1221.829915659,1221.829915659,1221.829915659,1221.829915659,1221.829915659,1221.829915659,1221.829915659,1221.829915659,1223.8484554400002,1223.8484554400002,1223.8484554400002,1223.8484554400002,,,,,,,,,,,,,,,,,,,,,,,,,,,,,,,,,,,,,,,10,008,2022-09-22_11h58.50.070,test2,2022.2.4,60.008164710886454,
0,0,0,0,107,0,107,0,1223.8484554400002,1223.8484554400002,1223.8484554400002,1223.8484554400002,1223.8484554400002,1223.8484554400002,1223.8484554400002,1,-1,rojo,0,['N_B'],1225.4676920299999,1225.4676920299999,1225.4676920299999,1225.4676920299999,1227.5030279100001,1227.5030279100001,1227.5030279100001,1227.5030279100001,1227.5030279100001,1227.5030279100001,1227.5030279100001,1227.5030279100001,1229.5211017679999,1229.5211017679999,1229.5211017679999,1229.5211017679999,,,,,,,,,,,,,,,,,,,,,,,,,,,,,,,,,,,,,,,10,008,2022-09-22_11h58.50.070,test2,2022.2.4,60.008164710886454,
0,0,0,0,108,0,108,0,1229.5211017679999,1229.5211017679999,1229.5211017679999,1229.5211017679999,1229.5211017679999,1229.5211017679999,1229.5211017679999,-1,-1,rojo,1,['N_B'],1231.156208506,1231.156208506,1231.156208506,1231.156208506,1233.192886192,1233.192886192,1233.192886192,1233.192886192,1233.192886192,1233.192886192,1233.192886192,1233.192886192,1235.211339545,1235.211339545,1235.211339545,1235.211339545,,,,,,,,,,,,,,,,,,,,,,,,,,,,,,,,,,,,,,,10,008,2022-09-22_11h58.50.070,test2,2022.2.4,60.008164710886454,
0,0,0,0,109,0,109,0,1235.211339545,1235.211339545,1235.211339545,1235.211339545,1235.211339545,1235.211339545,1235.211339545,-1,-1,rojo,1,['N_B'],1237.1793838550002,1237.1793838550002,1237.1793838550002,1237.1793838550002,1239.2162067160002,1239.2162067160002,1239.2162067160002,1239.2162067160002,1239.2162067160002,1239.2162067160002,1239.2162067160002,1239.2162067160002,1241.234013755,1241.234013755,1241.234013755,1241.234013755,,,,,,,,,,,,,,,,,,,,,,,,,,,,,,,,,,,,,,,10,008,2022-09-22_11h58.50.070,test2,2022.2.4,60.008164710886454,
0,0,0,0,110,0,110,0,1241.234013755,1241.234013755,1241.234013755,1241.234013755,1241.234013755,1241.234013755,1241.234013755,1,-1,azul,0,['N_A'],1243.319545762,1243.319545762,1243.319545762,1243.319545762,1245.3568779440002,1245.3568779440002,1245.3568779440002,1245.3568779440002,1245.3568779440002,1245.3568779440002,1245.3568779440002,1245.3568779440002,1247.3746463759999,1247.3746463759999,1247.3746463759999,1247.3746463759999,,,,,,,,,,,,,,,,,,,,,,,,,,,,,,,,,,,,,,,10,008,2022-09-22_11h58.50.070,test2,2022.2.4,60.008164710886454,
0,0,0,0,111,0,111,0,1247.3746463759999,1247.3746463759999,1247.3746463759999,1247.3746463759999,1247.3746463759999,1247.3746463759999,1247.3746463759999,1,-1,rojo,1,['N_A'],1249.092779771,1249.092779771,1249.092779771,1249.092779771,1251.1291199349998,1251.1291199349998,1251.1291199349998,1251.1291199349998,1251.1291199349998,1251.1291199349998,1251.1291199349998,1251.1291199349998,1253.1479960719998,1253.1479960719998,1253.1479960719998,1253.1479960719998,,,,,,,,,,,,,,,,,,,,,,,,,,,,,,,,,,,,,,,10,008,2022-09-22_11h58.50.070,test2,2022.2.4,60.008164710886454,
0,0,0,0,112,0,112,0,1253.1479960719998,1253.1479960719998,1253.1479960719998,1253.1479960719998,1253.1479960719998,1253.1479960719998,1253.1479960719998,1,-1,rojo,1,['N_A'],1254.8831012740002,1254.8831012740002,1254.8831012740002,1254.8831012740002,1256.91912805,1256.91912805,1256.91912805,1256.91912805,1256.91912805,1256.91912805,1256.91912805,1256.91912805,1258.937174404,1258.937174404,1258.937174404,1258.937174404,,,,,,,,,,,,,,,,,,,,,,,,,,,,,,,,,,,,,,,10,008,2022-09-22_11h58.50.070,test2,2022.2.4,60.008164710886454,
0,0,0,0,113,0,113,0,1258.937174404,1258.937174404,1258.937174404,1258.937174404,1258.937174404,1258.937174404,1258.937174404,-1,-1,azul,0,['N_B'],1263.925543324,1263.925543324,1263.925543324,1263.925543324,1265.944383517,1265.944383517,1265.944383517,1265.944383517,1265.944383517,1265.944383517,1265.944383517,1265.944383517,1267.9640537300002,1267.9640537300002,1267.9640537300002,1267.9640537300002,,,,,,,,,,,,,,,,,,,,,,,,,,,,,,,,,,,,,,,10,008,2022-09-22_11h58.50.070,test2,2022.2.4,60.008164710886454,
0,0,0,0,114,0,114,0,1267.9640537300002,1267.9640537300002,1267.9640537300002,1267.9640537300002,1267.9640537300002,1267.9640537300002,1267.9640537300002,1,1,azul,1,['N_B'],1270.5161982690001,1270.5161982690001,1270.5161982690001,1270.5161982690001,1272.5356371930002,1272.5356371930002,1272.5356371930002,1272.5356371930002,1272.5356371930002,1272.5356371930002,1272.5356371930002,1272.5356371930002,1274.554890897,1274.554890897,1274.554890897,1274.554890897,,,,,,,,,,,,,,,,,,,,,,,,,,,,,,,,,,,,,,,10,008,2022-09-22_11h58.50.070,test2,2022.2.4,60.008164710886454,
0,0,0,0,115,0,115,0,1274.554890897,1274.554890897,1274.554890897,1274.554890897,1274.554890897,1274.554890897,1274.554890897,-1,-1,rojo,1,['N_B'],1276.556780249,1276.556780249,1276.556780249,1276.556780249,1278.5753117119998,1278.5753117119998,1278.5753117119998,1278.5753117119998,1278.5753117119998,1278.5753117119998,1278.5753117119998,1278.5753117119998,1280.594247048,1280.594247048,1280.594247048,1280.594247048,,,,,,,,,,,,,,,,,,,,,,,,,,,,,,,,,,,,,,,10,008,2022-09-22_11h58.50.070,test2,2022.2.4,60.008164710886454,
0,0,0,0,116,0,116,0,1280.594247048,1280.594247048,1280.594247048,1280.594247048,1280.594247048,1280.594247048,1280.594247048,1,1,azul,1,['N_B'],1282.262725402,1282.262725402,1282.262725402,1282.262725402,1284.282416771,1284.282416771,1284.282416771,1284.282416771,1284.282416771,1284.282416771,1284.282416771,1284.282416771,1286.3001740720001,1286.3001740720001,1286.3001740720001,1286.3001740720001,,,,,,,,,,,,,,,,,,,,,,,,,,,,,,,,,,,,,,,10,008,2022-09-22_11h58.50.070,test2,2022.2.4,60.008164710886454,
0,0,0,0,117,0,117,0,1286.3001740720001,1286.3001740720001,1286.3001740720001,1286.3001740720001,1286.3001740720001,1286.3001740720001,1286.3001740720001,1,1,azul,1,['N_B'],1288.2189106350002,1288.2189106350002,1288.2189106350002,1288.2189106350002,1290.2387568119998,1290.2387568119998,1290.2387568119998,1290.2387568119998,1290.2387568119998,1290.2387568119998,1290.2387568119998,1290.2387568119998,1292.257742715,1292.257742715,1292.257742715,1292.257742715,,,,,,,,,,,,,,,,,,,,,,,,,,,,,,,,,,,,,,,10,008,2022-09-22_11h58.50.070,test2,2022.2.4,60.008164710886454,
0,0,0,0,118,0,118,0,1292.257742715,1292.257742715,1292.257742715,1292.257742715,1292.257742715,1292.257742715,1292.257742715,1,1,azul,1,['N_B'],1294.2927535110002,1294.2927535110002,1294.2927535110002,1294.2927535110002,1296.3129761260002,1296.3129761260002,1296.3129761260002,1296.3129761260002,1296.3129761260002,1296.3129761260002,1296.3129761260002,1296.3129761260002,1298.3312889160002,1298.3312889160002,1298.3312889160002,1298.3312889160002,,,,,,,,,,,,,,,,,,,,,,,,,,,,,,,,,,,,,,,10,008,2022-09-22_11h58.50.070,test2,2022.2.4,60.008164710886454,
0,0,0,0,119,0,119,0,1298.3312889160002,1298.3312889160002,1298.3312889160002,1298.3312889160002,1298.3312889160002,1298.3312889160002,1298.3312889160002,1,-1,azul,1,['N_B'],1300.048909057,1300.048909057,1300.048909057,1300.048909057,1302.067666985,1302.067666985,1302.067666985,1302.067666985,1302.067666985,1302.067666985,1302.067666985,1302.067666985,1304.086591103,1304.086591103,1304.086591103,1304.086591103,,,,,,,,,,,,,,,,,,,,,,,,,,,,,,,,,,,,,,,10,008,2022-09-22_11h58.50.070,test2,2022.2.4,60.008164710886454,
0,0,0,0,120,0,120,0,1304.086591103,1304.086591103,1304.086591103,1304.086591103,1304.086591103,1304.086591103,1304.086591103,1,1,azul,1,['N_B'],1307.974964126,1307.974964126,1307.974964126,1307.974964126,1309.9932676399999,1309.9932676399999,1309.9932676399999,1309.9932676399999,1309.9932676399999,1309.9932676399999,1309.9932676399999,1309.9932676399999,1312.012233757,1312.012233757,1312.012233757,1312.012233757,,,,,,,,,,,,,,,,,,,,,,,,,,,,,,,,,,,,,,,10,008,2022-09-22_11h58.50.070,test2,2022.2.4,60.008164710886454,
0,0,0,0,121,0,121,0,1312.012233757,1312.012233757,1312.012233757,1312.012233757,1312.012233757,1312.012233757,1312.012233757,-1,1,rojo,1,['N_B'],1313.464652439,1313.464652439,1313.464652439,1313.464652439,1315.483860935,1315.483860935,1315.483860935,1315.483860935,1315.483860935,1315.483860935,1315.483860935,1315.483860935,1317.5022955240001,1317.5022955240001,1317.5022955240001,1317.5022955240001,,,,,,,,,,,,,,,,,,,,,,,,,,,,,,,,,,,,,,,10,008,2022-09-22_11h58.50.070,test2,2022.2.4,60.008164710886454,
0,0,0,0,122,0,122,0,1317.5022955240001,1317.5022955240001,1317.5022955240001,1317.5022955240001,1317.5022955240001,1317.5022955240001,1317.5022955240001,1,1,azul,1,['N_B'],1319.3370100850002,1319.3370100850002,1319.3370100850002,1319.3370100850002,1321.357377101,1321.357377101,1321.357377101,1321.357377101,1321.357377101,1321.357377101,1321.357377101,1321.357377101,1323.37435453,1323.37435453,1323.37435453,1323.37435453,,,,,,,,,,,,,,,,,,,,,,,,,,,,,,,,,,,,,,,10,008,2022-09-22_11h58.50.070,test2,2022.2.4,60.008164710886454,
0,0,0,0,123,0,123,0,1323.37435453,1323.37435453,1323.37435453,1323.37435453,1323.37435453,1323.37435453,1323.37435453,1,1,azul,1,['N_B'],1325.143509771,1325.143509771,1325.143509771,1325.143509771,1327.1626388650002,1327.1626388650002,1327.1626388650002,1327.1626388650002,1327.1626388650002,1327.1626388650002,1327.1626388650002,1327.1626388650002,1329.181695846,1329.181695846,1329.181695846,1329.181695846,,,,,,,,,,,,,,,,,,,,,,,,,,,,,,,,,,,,,,,10,008,2022-09-22_11h58.50.070,test2,2022.2.4,60.008164710886454,
0,0,0,0,124,0,124,0,1329.181695846,1329.181695846,1329.181695846,1329.181695846,1329.181695846,1329.181695846,1329.181695846,1,1,azul,1,['N_B'],1331.7170990149998,1331.7170990149998,1331.7170990149998,1331.7170990149998,1333.736886092,1333.736886092,1333.736886092,1333.736886092,1333.736886092,1333.736886092,1333.736886092,1333.736886092,1335.7547343659999,1335.7547343659999,1335.7547343659999,1335.7547343659999,,,,,,,,,,,,,,,,,,,,,,,,,,,,,,,,,,,,,,,10,008,2022-09-22_11h58.50.070,test2,2022.2.4,60.008164710886454,
0,0,0,0,125,0,125,0,1335.7547343659999,1335.7547343659999,1335.7547343659999,1335.7547343659999,1335.7547343659999,1335.7547343659999,1335.7547343659999,1,1,azul,1,['N_B'],1338.0740793310001,1338.0740793310001,1338.0740793310001,1338.0740793310001,1340.094395858,1340.094395858,1340.094395858,1340.094395858,1340.094395858,1340.094395858,1340.094395858,1340.094395858,1342.112764214,1342.112764214,1342.112764214,1342.112764214,,,,,,,,,,,,,,,,,,,,,,,,,,,,,,,,,,,,,,,10,008,2022-09-22_11h58.50.070,test2,2022.2.4,60.008164710886454,
0,0,0,0,126,0,126,0,1342.112764214,1342.112764214,1342.112764214,1342.112764214,1342.112764214,1342.112764214,1342.112764214,1,-1,azul,1,['N_B'],1343.9645136059999,1343.9645136059999,1343.9645136059999,1343.9645136059999,1345.983812639,1345.983812639,1345.983812639,1345.983812639,1345.983812639,1345.983812639,1345.983812639,1345.983812639,1348.001810919,1348.001810919,1348.001810919,1348.001810919,,,,,,,,,,,,,,,,,,,,,,,,,,,,,,,,,,,,,,,10,008,2022-09-22_11h58.50.070,test2,2022.2.4,60.008164710886454,
0,0,0,0,127,0,127,0,1348.001810919,1348.001810919,1348.001810919,1348.001810919,1348.001810919,1348.001810919,1348.001810919,1,1,azul,1,['N_B'],1354.843023972,1354.843023972,1354.843023972,1354.843023972,1356.862307766,1356.862307766,1356.862307766,1356.862307766,1356.862307766,1356.862307766,1356.862307766,1356.862307766,1358.880155664,1358.880155664,1358.880155664,1358.880155664,,,,,,,,,,,,,,,,,,,,,,,,,,,,,,,,,,,,,,,10,008,2022-09-22_11h58.50.070,test2,2022.2.4,60.008164710886454,
0,0,0,0,128,0,128,0,1358.880155664,1358.880155664,1358.880155664,1358.880155664,1358.880155664,1358.880155664,1358.880155664,1,1,azul,1,['N_B'],1360.3486572739998,1360.3486572739998,1360.3486572739998,1360.3486572739998,1362.3685378760001,1362.3685378760001,1362.3685378760001,1362.3685378760001,1362.3685378760001,1362.3685378760001,1362.3685378760001,1362.3685378760001,1364.38814659,1364.38814659,1364.38814659,1364.38814659,,,,,,,,,,,,,,,,,,,,,,,,,,,,,,,,,,,,,,,10,008,2022-09-22_11h58.50.070,test2,2022.2.4,60.008164710886454,
0,0,0,0,129,0,129,0,1364.38814659,1364.38814659,1364.38814659,1364.38814659,1364.38814659,1364.38814659,1364.38814659,1,1,azul,1,['N_B'],1373.648015875,1373.648015875,1373.648015875,1373.648015875,1375.6656000510002,1375.6656000510002,1375.6656000510002,1375.6656000510002,1375.6656000510002,1375.6656000510002,1375.6656000510002,1375.6656000510002,1377.6854704930001,1377.6854704930001,1377.6854704930001,1377.6854704930001,,,,,,,,,,,,,,,,,,,,,,,,,,,,,,,,,,,,,,,10,008,2022-09-22_11h58.50.070,test2,2022.2.4,60.008164710886454,
0,0,0,0,130,0,130,0,1377.6854704930001,1377.6854704930001,1377.6854704930001,1377.6854704930001,1377.6854704930001,1377.6854704930001,1377.6854704930001,1,-1,azul,1,['N_B'],1379.1881567670002,1379.1881567670002,1379.1881567670002,1379.1881567670002,1381.2228314509998,1381.2228314509998,1381.2228314509998,1381.2228314509998,1381.2228314509998,1381.2228314509998,1381.2228314509998,1381.2228314509998,1383.2406054560001,1383.2406054560001,1383.2406054560001,1383.2406054560001,,,,,,,,,,,,,,,,,,,,,,,,,,,,,,,,,,,,,,,10,008,2022-09-22_11h58.50.070,test2,2022.2.4,60.008164710886454,
0,0,0,0,131,0,131,0,1383.2406054560001,1383.2406054560001,1383.2406054560001,1383.2406054560001,1383.2406054560001,1383.2406054560001,1383.2406054560001,-1,-1,rojo,1,['N_B'],1384.9436012639999,1384.9436012639999,1384.9436012639999,1384.9436012639999,1386.961881224,1386.961881224,1386.961881224,1386.961881224,1386.961881224,1386.961881224,1386.961881224,1386.961881224,1388.980986168,1388.980986168,1388.980986168,1388.980986168,,,,,,,,,,,,,,,,,,,,,,,,,,,,,,,,,,,,,,,10,008,2022-09-22_11h58.50.070,test2,2022.2.4,60.008164710886454,
0,0,0,0,132,0,132,0,1388.980986168,1388.980986168,1388.980986168,1388.980986168,1388.980986168,1388.980986168,1388.980986168,1,1,azul,1,['N_B'],1391.115751109,1391.115751109,1391.115751109,1391.115751109,1393.1361351770001,1393.1361351770001,1393.1361351770001,1393.1361351770001,1393.1361351770001,1393.1361351770001,1393.1361351770001,1393.1361351770001,1395.153721778,1395.153721778,1395.153721778,1395.153721778,,,,,,,,,,,,,,,,,,,,,,,,,,,,,,,,,,,,,,,10,008,2022-09-22_11h58.50.070,test2,2022.2.4,60.008164710886454,
0,0,0,0,133,0,133,0,1395.153721778,1395.153721778,1395.153721778,1395.153721778,1395.153721778,1395.153721778,1395.153721778,1,1,azul,1,['N_B'],1397.3902362190001,1397.3902362190001,1397.3902362190001,1397.3902362190001,1399.408409361,1399.408409361,1399.408409361,1399.408409361,1399.408409361,1399.408409361,1399.408409361,1399.408409361,1401.427406204,1401.427406204,1401.427406204,1401.427406204,,,,,,,,,,,,,,,,,,,,,,,,,,,,,,,,,,,,,,,10,008,2022-09-22_11h58.50.070,test2,2022.2.4,60.008164710886454,
0,0,0,0,134,0,134,0,1401.427406204,1401.427406204,1401.427406204,1401.427406204,1401.427406204,1401.427406204,1401.427406204,1,-1,azul,1,['N_B'],1403.596389148,1403.596389148,1403.596389148,1403.596389148,1405.6155191429998,1405.6155191429998,1405.6155191429998,1405.6155191429998,1405.6155191429998,1405.6155191429998,1405.6155191429998,1405.6155191429998,1407.635296035,1407.635296035,1407.635296035,1407.635296035,,,,,,,,,,,,,,,,,,,,,,,,,,,,,,,,,,,,,,,10,008,2022-09-22_11h58.50.070,test2,2022.2.4,60.008164710886454,
0,0,0,0,135,0,135,0,1407.635296035,1407.635296035,1407.635296035,1407.635296035,1407.635296035,1407.635296035,1407.635296035,1,1,azul,1,['N_B'],1409.486010342,1409.486010342,1409.486010342,1409.486010342,1411.505826443,1411.505826443,1411.505826443,1411.505826443,1411.505826443,1411.505826443,1411.505826443,1411.505826443,1413.524736288,1413.524736288,1413.524736288,1413.524736288,,,,,,,,,,,,,,,,,,,,,,,,,,,,,,,,,,,,,,,10,008,2022-09-22_11h58.50.070,test2,2022.2.4,60.008164710886454,
0,0,0,0,136,0,136,0,1413.524736288,1413.524736288,1413.524736288,1413.524736288,1413.524736288,1413.524736288,1413.524736288,1,1,azul,1,['N_B'],1416.2105991070002,1416.2105991070002,1416.2105991070002,1416.2105991070002,1418.2309605670002,1418.2309605670002,1418.2309605670002,1418.2309605670002,1418.2309605670002,1418.2309605670002,1418.2309605670002,1418.2309605670002,1420.248608988,1420.248608988,1420.248608988,1420.248608988,,,,,,,,,,,,,,,,,,,,,,,,,,,,,,,,,,,,,,,10,008,2022-09-22_11h58.50.070,test2,2022.2.4,60.008164710886454,
0,0,0,0,137,0,137,0,1420.248608988,1420.248608988,1420.248608988,1420.248608988,1420.248608988,1420.248608988,1420.248608988,1,1,azul,1,['N_B'],1421.732995031,1421.732995031,1421.732995031,1421.732995031,1423.752200077,1423.752200077,1423.752200077,1423.752200077,1423.752200077,1423.752200077,1423.752200077,1423.752200077,1425.7718684820002,1425.7718684820002,1425.7718684820002,1425.7718684820002,,,,,,,,,,,,,,,,,,,,,,,,,,,,,,,,,,,,,,,10,008,2022-09-22_11h58.50.070,test2,2022.2.4,60.008164710886454,
0,0,0,0,138,0,138,0,1425.7718684820002,1425.7718684820002,1425.7718684820002,1425.7718684820002,1425.7718684820002,1425.7718684820002,1425.7718684820002,-1,-1,rojo,1,['N_B'],1427.324336534,1427.324336534,1427.324336534,1427.324336534,1429.3421327279998,1429.3421327279998,1429.3421327279998,1429.3421327279998,1429.3421327279998,1429.3421327279998,1429.3421327279998,1429.3421327279998,1431.3788166620002,1431.3788166620002,1431.3788166620002,1431.3788166620002,,,,,,,,,,,,,,,,,,,,,,,,,,,,,,,,,,,,,,,10,008,2022-09-22_11h58.50.070,test2,2022.2.4,60.008164710886454,
0,0,0,0,139,0,139,0,1431.3788166620002,1431.3788166620002,1431.3788166620002,1431.3788166620002,1431.3788166620002,1431.3788166620002,1431.3788166620002,1,1,azul,1,['N_B'],1432.9790063290002,1432.9790063290002,1432.9790063290002,1432.9790063290002,1434.9974866010002,1434.9974866010002,1434.9974866010002,1434.9974866010002,1434.9974866010002,1434.9974866010002,1434.9974866010002,1434.9974866010002,1437.0172632960002,1437.0172632960002,1437.0172632960002,1437.0172632960002,,,,,,,,,,,,,,,,,,,,,,,,,,,,,,,,,,,,,,,10,008,2022-09-22_11h58.50.070,test2,2022.2.4,60.008164710886454,
0,0,0,0,140,0,140,0,1437.0172632960002,1437.0172632960002,1437.0172632960002,1437.0172632960002,1437.0172632960002,1437.0172632960002,1437.0172632960002,-1,-1,rojo,1,['N_B'],1439.002142976,1439.002142976,1439.002142976,1439.002142976,1441.0394545630002,1441.0394545630002,1441.0394545630002,1441.0394545630002,1441.0394545630002,1441.0394545630002,1441.0394545630002,1441.0394545630002,1443.0574931350002,1443.0574931350002,1443.0574931350002,1443.0574931350002,,,,,,,,,,,,,,,,,,,,,,,,,,,,,,,,,,,,,,,10,008,2022-09-22_11h58.50.070,test2,2022.2.4,60.008164710886454,
0,0,0,0,141,0,141,0,1443.0574931350002,1443.0574931350002,1443.0574931350002,1443.0574931350002,1443.0574931350002,1443.0574931350002,1443.0574931350002,-1,-1,rojo,1,['N_B'],1451.633947321,1451.633947321,1451.633947321,1451.633947321,1453.6693073000001,1453.6693073000001,1453.6693073000001,1453.6693073000001,1453.6693073000001,1453.6693073000001,1453.6693073000001,1453.6693073000001,1455.6880035150002,1455.6880035150002,1455.6880035150002,1455.6880035150002,,,,,,,,,,,,,,,,,,,,,,,,,,,,,,,,,,,,,,,10,008,2022-09-22_11h58.50.070,test2,2022.2.4,60.008164710886454,
0,0,0,0,142,0,142,0,1455.6880035150002,1455.6880035150002,1455.6880035150002,1455.6880035150002,1455.6880035150002,1455.6880035150002,1455.6880035150002,-1,-1,rojo,1,['N_B'],1467.066245223,1467.066245223,1467.066245223,1467.066245223,1469.085700999,1469.085700999,1469.085700999,1469.085700999,1469.085700999,1469.085700999,1469.085700999,1469.085700999,1471.1050251249999,1471.1050251249999,1471.1050251249999,1471.1050251249999,,,,,,,,,,,,,,,,,,,,,,,,,,,,,,,,,,,,,,,10,008,2022-09-22_11h58.50.070,test2,2022.2.4,60.008164710886454,
0,0,0,0,143,0,143,0,1471.1050251249999,1471.1050251249999,1471.1050251249999,1471.1050251249999,1471.1050251249999,1471.1050251249999,1471.1050251249999,1,1,azul,1,['N_B'],1472.6899263179998,1472.6899263179998,1472.6899263179998,1472.6899263179998,1474.7094504759998,1474.7094504759998,1474.7094504759998,1474.7094504759998,1474.7094504759998,1474.7094504759998,1474.7094504759998,1474.7094504759998,1476.727871776,1476.727871776,1476.727871776,1476.727871776,,,,,,,,,,,,,,,,,,,,,,,,,,,,,,,,,,,,,,,10,008,2022-09-22_11h58.50.070,test2,2022.2.4,60.008164710886454,
0,0,0,0,144,0,144,0,1476.727871776,1476.727871776,1476.727871776,1476.727871776,1476.727871776,1476.727871776,1476.727871776,1,1,azul,1,['N_B'],1478.596117182,1478.596117182,1478.596117182,1478.596117182,1480.6152442440002,1480.6152442440002,1480.6152442440002,1480.6152442440002,1480.6152442440002,1480.6152442440002,1480.6152442440002,1480.6152442440002,1482.634006962,1482.634006962,1482.634006962,1482.634006962,,,,,,,,,,,,,,,,,,,,,,,,,,,,,,,,,,,,,,,10,008,2022-09-22_11h58.50.070,test2,2022.2.4,60.008164710886454,
0,0,0,0,145,0,145,0,1482.634006962,1482.634006962,1482.634006962,1482.634006962,1482.634006962,1482.634006962,1482.634006962,1,-1,azul,1,['N_B'],1484.686286318,1484.686286318,1484.686286318,1484.686286318,1486.704591351,1486.704591351,1486.704591351,1486.704591351,1486.704591351,1486.704591351,1486.704591351,1486.704591351,1488.7245997129999,1488.7245997129999,1488.7245997129999,1488.7245997129999,,,,,,,,,,,,,,,,,,,,,,,,,,,,,,,,,,,,,,,10,008,2022-09-22_11h58.50.070,test2,2022.2.4,60.008164710886454,
0,0,0,0,146,0,146,0,1488.7245997129999,1488.7245997129999,1488.7245997129999,1488.7245997129999,1488.7245997129999,1488.7245997129999,1488.7245997129999,1,1,azul,1,['N_B'],1495.1310685600001,1495.1310685600001,1495.1310685600001,1495.1310685600001,1497.1512034040002,1497.1512034040002,1497.1512034040002,1497.1512034040002,1497.1512034040002,1497.1512034040002,1497.1512034040002,1497.1512034040002,1499.169371221,1499.169371221,1499.169371221,1499.169371221,,,,,,,,,,,,,,,,,,,,,,,,,,,,,,,,,,,,,,,10,008,2022-09-22_11h58.50.070,test2,2022.2.4,60.008164710886454,
0,0,0,0,147,0,147,0,1499.169371221,1499.169371221,1499.169371221,1499.169371221,1499.169371221,1499.169371221,1499.169371221,1,1,azul,1,['N_B'],1502.972624044,1502.972624044,1502.972624044,1502.972624044,1504.9934387920002,1504.9934387920002,1504.9934387920002,1504.9934387920002,1504.9934387920002,1504.9934387920002,1504.9934387920002,1504.9934387920002,1507.011373759,1507.011373759,1507.011373759,1507.011373759,,,,,,,,,,,,,,,,,,,,,,,,,,,,,,,,,,,,,,,10,008,2022-09-22_11h58.50.070,test2,2022.2.4,60.008164710886454,
0,0,0,0,148,0,148,0,1507.011373759,1507.011373759,1507.011373759,1507.011373759,1507.011373759,1507.011373759,1507.011373759,1,1,azul,1,['N_B'],1509.4631564299998,1509.4631564299998,1509.4631564299998,1509.4631564299998,1511.48285923,1511.48285923,1511.48285923,1511.48285923,1511.48285923,1511.48285923,1511.48285923,1511.48285923,1513.501216912,1513.501216912,1513.501216912,1513.501216912,,,,,,,,,,,,,,,,,,,,,,,,,,,,,,,,,,,,,,,10,008,2022-09-22_11h58.50.070,test2,2022.2.4,60.008164710886454,
0,0,0,0,149,0,149,0,1513.501216912,1513.501216912,1513.501216912,1513.501216912,1513.501216912,1513.501216912,1513.501216912,-1,1,rojo,1,['N_B'],1515.77124718,1515.77124718,1515.77124718,1515.77124718,1517.7904422380002,1517.7904422380002,1517.7904422380002,1517.7904422380002,1517.7904422380002,1517.7904422380002,1517.7904422380002,1517.7904422380002,1519.8088190889998,1519.8088190889998,1519.8088190889998,1519.8088190889998,,,,,,,,,,,,,,,,,,,,,,,,,,,,,,,,,,,,,,,10,008,2022-09-22_11h58.50.070,test2,2022.2.4,60.008164710886454,
0,0,0,0,150,0,150,0,1519.8088190889998,1519.8088190889998,1519.8088190889998,1519.8088190889998,1519.8088190889998,1519.8088190889998,1519.8088190889998,1,1,azul,1,['N_B'],1522.8279416260002,1522.8279416260002,1522.8279416260002,1522.8279416260002,1524.847938847,1524.847938847,1524.847938847,1524.847938847,1524.847938847,1524.847938847,1524.847938847,1524.847938847,1526.865550205,1526.865550205,1526.865550205,1526.865550205,,,,,,,,,,,,,,,,,,,,,,,,,,,,,,,,,,,,,,,10,008,2022-09-22_11h58.50.070,test2,2022.2.4,60.008164710886454,
0,0,0,0,151,0,151,0,1526.865550205,1526.865550205,1526.865550205,1526.865550205,1526.865550205,1526.865550205,1526.865550205,-1,-1,rojo,1,['N_B'],1528.3184305169998,1528.3184305169998,1528.3184305169998,1528.3184305169998,1530.3363012730001,1530.3363012730001,1530.3363012730001,1530.3363012730001,1530.3363012730001,1530.3363012730001,1530.3363012730001,1530.3363012730001,1532.35487723,1532.35487723,1532.35487723,1532.35487723,,,,,,,,,,,,,,,,,,,,,,,,,,,,,,,,,,,,,,,10,008,2022-09-22_11h58.50.070,test2,2022.2.4,60.008164710886454,
0,0,0,0,152,0,152,0,1532.35487723,1532.35487723,1532.35487723,1532.35487723,1532.35487723,1532.35487723,1532.35487723,1,1,azul,1,['N_B'],1537.46170329,1537.46170329,1537.46170329,1537.46170329,1539.481298667,1539.481298667,1539.481298667,1539.481298667,1539.481298667,1539.481298667,1539.481298667,1539.481298667,1541.50011877,1541.50011877,1541.50011877,1541.50011877,,,,,,,,,,,,,,,,,,,,,,,,,,,,,,,,,,,,,,,10,008,2022-09-22_11h58.50.070,test2,2022.2.4,60.008164710886454,
0,0,0,0,153,0,153,0,1541.50011877,1541.50011877,1541.50011877,1541.50011877,1541.50011877,1541.50011877,1541.50011877,1,1,azul,1,['N_B'],1543.0337243630001,1543.0337243630001,1543.0337243630001,1543.0337243630001,1545.053406377,1545.053406377,1545.053406377,1545.053406377,1545.053406377,1545.053406377,1545.053406377,1545.053406377,1547.071586776,1547.071586776,1547.071586776,1547.071586776,,,,,,,,,,,,,,,,,,,,,,,,,,,,,,,,,,,,,,,10,008,2022-09-22_11h58.50.070,test2,2022.2.4,60.008164710886454,
0,0,0,0,154,0,154,0,1547.071586776,1547.071586776,1547.071586776,1547.071586776,1547.071586776,1547.071586776,1547.071586776,-1,-1,rojo,1,['N_B'],1552.8448540190002,1552.8448540190002,1552.8448540190002,1552.8448540190002,1554.8634555120002,1554.8634555120002,1554.8634555120002,1554.8634555120002,1554.8634555120002,1554.8634555120002,1554.8634555120002,1554.8634555120002,1556.900254965,1556.900254965,1556.900254965,1556.900254965,,,,,,,,,,,,,,,,,,,,,,,,,,,,,,,,,,,,,,,10,008,2022-09-22_11h58.50.070,test2,2022.2.4,60.008164710886454,
0,0,0,0,155,0,155,0,1556.900254965,1556.900254965,1556.900254965,1556.900254965,1556.900254965,1556.900254965,1556.900254965,1,1,azul,1,['N_B'],1558.785239419,1558.785239419,1558.785239419,1558.785239419,1560.803803419,1560.803803419,1560.803803419,1560.803803419,1560.803803419,1560.803803419,1560.803803419,1560.803803419,1562.840038503,1562.840038503,1562.840038503,1562.840038503,,,,,,,,,,,,,,,,,,,,,,,,,,,,,,,,,,,,,,,10,008,2022-09-22_11h58.50.070,test2,2022.2.4,60.008164710886454,
0,0,0,0,156,0,156,0,1562.840038503,1562.840038503,1562.840038503,1562.840038503,1562.840038503,1562.840038503,1562.840038503,1,1,azul,1,['N_B'],1564.7413044579998,1564.7413044579998,1564.7413044579998,1564.7413044579998,1566.7602906840002,1566.7602906840002,1566.7602906840002,1566.7602906840002,1566.7602906840002,1566.7602906840002,1566.7602906840002,1566.7602906840002,1568.778757729,1568.778757729,1568.778757729,1568.778757729,,,,,,,,,,,,,,,,,,,,,,,,,,,,,,,,,,,,,,,10,008,2022-09-22_11h58.50.070,test2,2022.2.4,60.008164710886454,
0,0,0,0,157,0,157,0,1568.778757729,1568.778757729,1568.778757729,1568.778757729,1568.778757729,1568.778757729,1568.778757729,1,-1,azul,1,['N_B'],1570.864573593,1570.864573593,1570.864573593,1570.864573593,1572.900645362,1572.900645362,1572.900645362,1572.900645362,1572.900645362,1572.900645362,1572.900645362,1572.900645362,1574.919164858,1574.919164858,1574.919164858,1574.919164858,,,,,,,,,,,,,,,,,,,,,,,,,,,,,,,,,,,,,,,10,008,2022-09-22_11h58.50.070,test2,2022.2.4,60.008164710886454,
0,0,0,0,158,0,158,0,1574.919164858,1574.919164858,1574.919164858,1574.919164858,1574.919164858,1574.919164858,1574.919164858,-1,-1,rojo,1,['N_B'],1585.7979529559998,1585.7979529559998,1585.7979529559998,1585.7979529559998,1587.8337404879999,1587.8337404879999,1587.8337404879999,1587.8337404879999,1587.8337404879999,1587.8337404879999,1587.8337404879999,1587.8337404879999,1589.852696169,1589.852696169,1589.852696169,1589.852696169,,,,,,,,,,,,,,,,,,,,,,,,,,,,,,,,,,,,,,,10,008,2022-09-22_11h58.50.070,test2,2022.2.4,60.008164710886454,
0,0,0,0,159,0,159,0,1589.852696169,1589.852696169,1589.852696169,1589.852696169,1589.852696169,1589.852696169,1589.852696169,-1,-1,rojo,1,['N_B'],1591.4379030139999,1591.4379030139999,1591.4379030139999,1591.4379030139999,1593.4575055330001,1593.4575055330001,1593.4575055330001,1593.4575055330001,1593.4575055330001,1593.4575055330001,1593.4575055330001,1593.4575055330001,1595.474947405,1595.474947405,1595.474947405,1595.474947405,,,,,,,,,,,,,,,,,,,,,,,,,,,,,,,,,,,,,,,10,008,2022-09-22_11h58.50.070,test2,2022.2.4,60.008164710886454,
0,0,0,0,160,0,160,0,1595.474947405,1595.474947405,1595.474947405,1595.474947405,1595.474947405,1595.474947405,1595.474947405,1,1,azul,1,['N_B'],1597.2276078720001,1597.2276078720001,1597.2276078720001,1597.2276078720001,1599.247064734,1599.247064734,1599.247064734,1599.247064734,1599.247064734,1599.247064734,1599.247064734,1599.247064734,1601.264502379,1601.264502379,1601.264502379,1601.264502379,,,,,,,,,,,,,,,,,,,,,,,,,,,,,,,,,,,,,,,10,008,2022-09-22_11h58.50.070,test2,2022.2.4,60.008164710886454,
0,0,0,0,161,0,161,0,1601.264502379,1601.264502379,1601.264502379,1601.264502379,1601.264502379,1601.264502379,1601.264502379,1,1,azul,1,['N_B'],1602.7667986870001,1602.7667986870001,1602.7667986870001,1602.7667986870001,1604.785248536,1604.785248536,1604.785248536,1604.785248536,1604.785248536,1604.785248536,1604.785248536,1604.785248536,1606.8045595520002,1606.8045595520002,1606.8045595520002,1606.8045595520002,,,,,,,,,,,,,,,,,,,,,,,,,,,,,,,,,,,,,,,10,008,2022-09-22_11h58.50.070,test2,2022.2.4,60.008164710886454,
0,0,0,0,162,0,162,0,1606.8045595520002,1606.8045595520002,1606.8045595520002,1606.8045595520002,1606.8045595520002,1606.8045595520002,1606.8045595520002,1,-1,azul,1,['N_B'],1618.1830344999998,1618.1830344999998,1618.1830344999998,1618.1830344999998,1620.2022693540002,1620.2022693540002,1620.2022693540002,1620.2022693540002,1620.2022693540002,1620.2022693540002,1620.2022693540002,1620.2022693540002,1622.2207736209998,1622.2207736209998,1622.2207736209998,1622.2207736209998,,,,,,,,,,,,,,,,,,,,,,,,,,,,,,,,,,,,,,,10,008,2022-09-22_11h58.50.070,test2,2022.2.4,60.008164710886454,
0,0,0,0,163,0,163,0,1622.2207736209998,1622.2207736209998,1622.2207736209998,1622.2207736209998,1622.2207736209998,1622.2207736209998,1622.2207736209998,1,1,azul,1,['N_B'],1625.007309402,1625.007309402,1625.007309402,1625.007309402,1627.0270622009998,1627.0270622009998,1627.0270622009998,1627.0270622009998,1627.0270622009998,1627.0270622009998,1627.0270622009998,1627.0270622009998,1629.0453168190002,1629.0453168190002,1629.0453168190002,1629.0453168190002,,,,,,,,,,,,,,,,,,,,,,,,,,,,,,,,,,,,,,,10,008,2022-09-22_11h58.50.070,test2,2022.2.4,60.008164710886454,
0,0,0,0,164,0,164,0,1629.0453168190002,1629.0453168190002,1629.0453168190002,1629.0453168190002,1629.0453168190002,1629.0453168190002,1629.0453168190002,-1,-1,rojo,1,['N_B'],1630.4635578819998,1630.4635578819998,1630.4635578819998,1630.4635578819998,1632.482804888,1632.482804888,1632.482804888,1632.482804888,1632.482804888,1632.482804888,1632.482804888,1632.482804888,1634.5018859030001,1634.5018859030001,1634.5018859030001,1634.5018859030001,,,,,,,,,,,,,,,,,,,,,,,,,,,,,,,,,,,,,,,10,008,2022-09-22_11h58.50.070,test2,2022.2.4,60.008164710886454,
0,0,0,0,165,0,165,0,1634.5018859030001,1634.5018859030001,1634.5018859030001,1634.5018859030001,1634.5018859030001,1634.5018859030001,1634.5018859030001,1,1,azul,1,['N_B'],1636.0862500009998,1636.0862500009998,1636.0862500009998,1636.0862500009998,1638.105403053,1638.105403053,1638.105403053,1638.105403053,1638.105403053,1638.105403053,1638.105403053,1638.105403053,1640.1246694850001,1640.1246694850001,1640.1246694850001,1640.1246694850001,,,,,,,,,,,,,,,,,,,,,,,,,,,,,,,,,,,,,,,10,008,2022-09-22_11h58.50.070,test2,2022.2.4,60.008164710886454,
0,0,0,0,166,0,166,0,1640.1246694850001,1640.1246694850001,1640.1246694850001,1640.1246694850001,1640.1246694850001,1640.1246694850001,1640.1246694850001,-1,-1,rojo,1,['N_B'],1642.0440716449998,1642.0440716449998,1642.0440716449998,1642.0440716449998,1644.0794435050002,1644.0794435050002,1644.0794435050002,1644.0794435050002,1644.0794435050002,1644.0794435050002,1644.0794435050002,1644.0794435050002,1646.0979400669999,1646.0979400669999,1646.0979400669999,1646.0979400669999,,,,,,,,,,,,,,,,,,,,,,,,,,,,,,,,,,,,,,,10,008,2022-09-22_11h58.50.070,test2,2022.2.4,60.008164710886454,
0,0,0,0,167,0,167,0,1646.0979400669999,1646.0979400669999,1646.0979400669999,1646.0979400669999,1646.0979400669999,1646.0979400669999,1646.0979400669999,1,-1,azul,1,['N_B'],1654.190855078,1654.190855078,1654.190855078,1654.190855078,1656.2085772680002,1656.2085772680002,1656.2085772680002,1656.2085772680002,1656.2085772680002,1656.2085772680002,1656.2085772680002,1656.2085772680002,1658.227642891,1658.227642891,1658.227642891,1658.227642891,,,,,,,,,,,,,,,,,,,,,,,,,,,,,,,,,,,,,,,10,008,2022-09-22_11h58.50.070,test2,2022.2.4,60.008164710886454,
0,0,0,0,168,0,168,0,1658.227642891,1658.227642891,1658.227642891,1658.227642891,1658.227642891,1658.227642891,1658.227642891,1,1,azul,1,['N_B'],1665.468938596,1665.468938596,1665.468938596,1665.468938596,1667.4876801250002,1667.4876801250002,1667.4876801250002,1667.4876801250002,1667.4876801250002,1667.4876801250002,1667.4876801250002,1667.4876801250002,1669.50659764,1669.50659764,1669.50659764,1669.50659764,,,,,,,,,,,,,,,,,,,,,,,,,,,,,,,,,,,,,,,10,008,2022-09-22_11h58.50.070,test2,2022.2.4,60.008164710886454,
0,0,0,0,169,0,169,0,1669.50659764,1669.50659764,1669.50659764,1669.50659764,1669.50659764,1669.50659764,1669.50659764,-1,-1,rojo,1,['N_B'],1677.8498974659997,1677.8498974659997,1677.8498974659997,1677.8498974659997,1679.867927148,1679.867927148,1679.867927148,1679.867927148,1679.867927148,1679.867927148,1679.867927148,1679.867927148,1681.9034058070001,1681.9034058070001,1681.9034058070001,1681.9034058070001,,,,,,,,,,,,,,,,,,,,,,,,,,,,,,,,,,,,,,,10,008,2022-09-22_11h58.50.070,test2,2022.2.4,60.008164710886454,
0,0,0,0,170,0,170,0,1681.9034058070001,1681.9034058070001,1681.9034058070001,1681.9034058070001,1681.9034058070001,1681.9034058070001,1681.9034058070001,1,1,azul,1,['N_B'],1684.0064119419999,1684.0064119419999,1684.0064119419999,1684.0064119419999,1686.024841345,1686.024841345,1686.024841345,1686.024841345,1686.024841345,1686.024841345,1686.024841345,1686.024841345,1688.043365941,1688.043365941,1688.043365941,1688.043365941,,,,,,,,,,,,,,,,,,,,,,,,,,,,,,,,,,,,,,,10,008,2022-09-22_11h58.50.070,test2,2022.2.4,60.008164710886454,
0,0,0,0,171,0,171,0,1688.043365941,1688.043365941,1688.043365941,1688.043365941,1688.043365941,1688.043365941,1688.043365941,1,1,azul,1,['N_B'],1690.729899889,1690.729899889,1690.729899889,1690.729899889,1692.7485968809997,1692.7485968809997,1692.7485968809997,1692.7485968809997,1692.7485968809997,1692.7485968809997,1692.7485968809997,1692.7485968809997,1694.767790381,1694.767790381,1694.767790381,1694.767790381,,,,,,,,,,,,,,,,,,,,,,,,,,,,,,,,,,,,,,,10,008,2022-09-22_11h58.50.070,test2,2022.2.4,60.008164710886454,
0,0,0,0,172,0,172,0,1694.767790381,1694.767790381,1694.767790381,1694.767790381,1694.767790381,1694.767790381,1694.767790381,-1,-1,rojo,1,['N_B'],1696.1859726359999,1696.1859726359999,1696.1859726359999,1696.1859726359999,1698.204688973,1698.204688973,1698.204688973,1698.204688973,1698.204688973,1698.204688973,1698.204688973,1698.204688973,1700.2238480709998,1700.2238480709998,1700.2238480709998,1700.2238480709998,,,,,,,,,,,,,,,,,,,,,,,,,,,,,,,,,,,,,,,10,008,2022-09-22_11h58.50.070,test2,2022.2.4,60.008164710886454,
0,0,0,0,173,0,173,0,1700.2238480709998,1700.2238480709998,1700.2238480709998,1700.2238480709998,1700.2238480709998,1700.2238480709998,1700.2238480709998,1,1,azul,1,['N_B'],1701.6586455269999,1701.6586455269999,1701.6586455269999,1701.6586455269999,1703.679148958,1703.679148958,1703.679148958,1703.679148958,1703.679148958,1703.679148958,1703.679148958,1703.679148958,1705.697076846,1705.697076846,1705.697076846,1705.697076846,,,,,,,,,,,,,,,,,,,,,,,,,,,,,,,,,,,,,,,10,008,2022-09-22_11h58.50.070,test2,2022.2.4,60.008164710886454,
0,0,0,0,174,0,174,0,1705.697076846,1705.697076846,1705.697076846,1705.697076846,1705.697076846,1705.697076846,1705.697076846,1,1,azul,1,['N_B'],1707.3323147249998,1707.3323147249998,1707.3323147249998,1707.3323147249998,1709.351036736,1709.351036736,1709.351036736,1709.351036736,1709.351036736,1709.351036736,1709.351036736,1709.351036736,1711.369932139,1711.369932139,1711.369932139,1711.369932139,,,,,,,,,,,,,,,,,,,,,,,,,,,,,,,,,,,,,,,10,008,2022-09-22_11h58.50.070,test2,2022.2.4,60.008164710886454,
0,0,0,0,175,0,175,0,1711.369932139,1711.369932139,1711.369932139,1711.369932139,1711.369932139,1711.369932139,1711.369932139,-1,-1,rojo,1,['N_B'],1712.837943609,1712.837943609,1712.837943609,1712.837943609,1714.874630547,1714.874630547,1714.874630547,1714.874630547,1714.874630547,1714.874630547,1714.874630547,1714.874630547,1716.891963653,1716.891963653,1716.891963653,1716.891963653,,,,,,,,,,,,,,,,,,,,,,,,,,,,,,,,,,,,,,,10,008,2022-09-22_11h58.50.070,test2,2022.2.4,60.008164710886454,
0,0,0,0,176,0,176,0,1716.891963653,1716.891963653,1716.891963653,1716.891963653,1716.891963653,1716.891963653,1716.891963653,1,-1,azul,1,['N_B'],1718.277425705,1718.277425705,1718.277425705,1718.277425705,1720.296968877,1720.296968877,1720.296968877,1720.296968877,1720.296968877,1720.296968877,1720.296968877,1720.296968877,1722.3153424039997,1722.3153424039997,1722.3153424039997,1722.3153424039997,,,,,,,,,,,,,,,,,,,,,,,,,,,,,,,,,,,,,,,10,008,2022-09-22_11h58.50.070,test2,2022.2.4,60.008164710886454,
0,0,0,0,177,0,177,0,1722.3153424039997,1722.3153424039997,1722.3153424039997,1722.3153424039997,1722.3153424039997,1722.3153424039997,1722.3153424039997,1,1,azul,1,['N_B'],1724.100559203,1724.100559203,1724.100559203,1724.100559203,1726.118952967,1726.118952967,1726.118952967,1726.118952967,1726.118952967,1726.118952967,1726.118952967,1726.118952967,1728.155503721,1728.155503721,1728.155503721,1728.155503721,,,,,,,,,,,,,,,,,,,,,,,,,,,,,,,,,,,,,,,10,008,2022-09-22_11h58.50.070,test2,2022.2.4,60.008164710886454,
0,0,0,0,178,0,178,0,1728.155503721,1728.155503721,1728.155503721,1728.155503721,1728.155503721,1728.155503721,1728.155503721,1,-1,azul,1,['N_B'],1729.6732804129997,1729.6732804129997,1729.6732804129997,1729.6732804129997,1731.709762436,1731.709762436,1731.709762436,1731.709762436,1731.709762436,1731.709762436,1731.709762436,1731.709762436,1733.72800538,1733.72800538,1733.72800538,1733.72800538,,,,,,,,,,,,,,,,,,,,,,,,,,,,,,,,,,,,,,,10,008,2022-09-22_11h58.50.070,test2,2022.2.4,60.008164710886454,
0,0,0,0,179,0,179,0,1733.72800538,1733.72800538,1733.72800538,1733.72800538,1733.72800538,1733.72800538,1733.72800538,-1,-1,rojo,1,['N_B'],1735.4456685330001,1735.4456685330001,1735.4456685330001,1735.4456685330001,1737.465083914,1737.465083914,1737.465083914,1737.465083914,1737.465083914,1737.465083914,1737.465083914,1737.465083914,1739.483787442,1739.483787442,1739.483787442,1739.483787442,,,,,,,,,,,,,,,,,,,,,,,,,,,,,,,,,,,,,,,10,008,2022-09-22_11h58.50.070,test2,2022.2.4,60.008164710886454,
0,0,0,0,180,0,180,0,1739.483787442,1739.483787442,1739.483787442,1739.483787442,1739.483787442,1739.483787442,1739.483787442,1,1,azul,1,['N_B'],1741.502977578,1741.502977578,1741.502977578,1741.502977578,1743.521285207,1743.521285207,1743.521285207,1743.521285207,1743.521285207,1743.521285207,1743.521285207,1743.521285207,1745.5406035379997,1745.5406035379997,1745.5406035379997,1745.5406035379997,,,,,,,,,,,,,,,,,,,,,,,,,,,,,,,,,,,,,,,10,008,2022-09-22_11h58.50.070,test2,2022.2.4,60.008164710886454,
0,0,0,0,181,0,181,0,1745.5406035379997,1745.5406035379997,1745.5406035379997,1745.5406035379997,1745.5406035379997,1745.5406035379997,1745.5406035379997,-1,-1,rojo,1,['N_B'],1747.092110168,1747.092110168,1747.092110168,1747.092110168,1749.112372049,1749.112372049,1749.112372049,1749.112372049,1749.112372049,1749.112372049,1749.112372049,1749.112372049,1751.1297766929997,1751.1297766929997,1751.1297766929997,1751.1297766929997,,,,,,,,,,,,,,,,,,,,,,,,,,,,,,,,,,,,,,,10,008,2022-09-22_11h58.50.070,test2,2022.2.4,60.008164710886454,
0,0,0,0,182,0,182,0,1751.1297766929997,1751.1297766929997,1751.1297766929997,1751.1297766929997,1751.1297766929997,1751.1297766929997,1751.1297766929997,1,1,azul,1,['N_B'],1752.598044279,1752.598044279,1752.598044279,1752.598044279,1754.6180616829997,1754.6180616829997,1754.6180616829997,1754.6180616829997,1754.6180616829997,1754.6180616829997,1754.6180616829997,1754.6180616829997,1756.636689802,1756.636689802,1756.636689802,1756.636689802,,,,,,,,,,,,,,,,,,,,,,,,,,,,,,,,,,,,,,,10,008,2022-09-22_11h58.50.070,test2,2022.2.4,60.008164710886454,
0,0,0,0,183,0,183,0,1756.636689802,1756.636689802,1756.636689802,1756.636689802,1756.636689802,1756.636689802,1756.636689802,-1,-1,rojo,1,['N_B'],1758.08835413,1758.08835413,1758.08835413,1758.08835413,1760.107028333,1760.107028333,1760.107028333,1760.107028333,1760.107028333,1760.107028333,1760.107028333,1760.107028333,1762.126231878,1762.126231878,1762.126231878,1762.126231878,,,,,,,,,,,,,,,,,,,,,,,,,,,,,,,,,,,,,,,10,008,2022-09-22_11h58.50.070,test2,2022.2.4,60.008164710886454,
0,0,0,0,184,0,184,0,1762.126231878,1762.126231878,1762.126231878,1762.126231878,1762.126231878,1762.126231878,1762.126231878,1,1,azul,1,['N_B'],1763.5782383719998,1763.5782383719998,1763.5782383719998,1763.5782383719998,1765.5965071719997,1765.5965071719997,1765.5965071719997,1765.5965071719997,1765.5965071719997,1765.5965071719997,1765.5965071719997,1765.5965071719997,1767.6144520779999,1767.6144520779999,1767.6144520779999,1767.6144520779999,,,,,,,,,,,,,,,,,,,,,,,,,,,,,,,,,,,,,,,10,008,2022-09-22_11h58.50.070,test2,2022.2.4,60.008164710886454,
0,0,0,0,185,0,185,0,1767.6144520779999,1767.6144520779999,1767.6144520779999,1767.6144520779999,1767.6144520779999,1767.6144520779999,1767.6144520779999,-1,-1,rojo,1,['N_B'],1769.183525326,1769.183525326,1769.183525326,1769.183525326,1771.202101507,1771.202101507,1771.202101507,1771.202101507,1771.202101507,1771.202101507,1771.202101507,1771.202101507,1773.2219447019997,1773.2219447019997,1773.2219447019997,1773.2219447019997,,,,,,,,,,,,,,,,,,,,,,,,,,,,,,,,,,,,,,,10,008,2022-09-22_11h58.50.070,test2,2022.2.4,60.008164710886454,
0,0,0,0,186,0,186,0,1773.2219447019997,1773.2219447019997,1773.2219447019997,1773.2219447019997,1773.2219447019997,1773.2219447019997,1773.2219447019997,1,1,azul,1,['N_B'],1774.6398743119998,1774.6398743119998,1774.6398743119998,1774.6398743119998,1776.6589406809999,1776.6589406809999,1776.6589406809999,1776.6589406809999,1776.6589406809999,1776.6589406809999,1776.6589406809999,1776.6589406809999,1778.67778124,1778.67778124,1778.67778124,1778.67778124,,,,,,,,,,,,,,,,,,,,,,,,,,,,,,,,,,,,,,,10,008,2022-09-22_11h58.50.070,test2,2022.2.4,60.008164710886454,
0,0,0,0,187,0,187,0,1778.67778124,1778.67778124,1778.67778124,1778.67778124,1778.67778124,1778.67778124,1778.67778124,1,1,azul,1,['N_B'],1780.4125535529997,1780.4125535529997,1780.4125535529997,1780.4125535529997,1782.432819139,1782.432819139,1782.432819139,1782.432819139,1782.432819139,1782.432819139,1782.432819139,1782.432819139,1784.4510995619999,1784.4510995619999,1784.4510995619999,1784.4510995619999,,,,,,,,,,,,,,,,,,,,,,,,,,,,,,,,,,,,,,,10,008,2022-09-22_11h58.50.070,test2,2022.2.4,60.008164710886454,
