trials_2.thisRepN,trials_2.thisTrialN,trials_2.thisN,trials_2.thisIndex,trials.thisRepN,trials.thisTrialN,trials.thisN,trials.thisIndex,Instrucción2.started,N_A_4.started,N_B_4.started,Exitos_3.started,Dias_3.started,Stimuli_1.started,Stimuli_2.started,Transitions,Rewards,Mode,Stay,Neighbour,Stimuli_3.started,Modo.started,Dias2.started,Exitos2.started,Stimuli_3.stopped,Modo.stopped,Dias2.stopped,Exitos2.stopped,Reward.started,Stimuli_reward.started,Exitos3.started,Dias3.started,Reward.stopped,Stimuli_reward.stopped,Exitos3.stopped,Dias3.stopped,Cue_text.started,Stimuli_4.started,Exitos4.started,Dias4.started,Stimuli_3_3.started,Stimuli_2_3.started,Instrucción.started,N_A.started,N_B.started,N_C.started,Exitos_2.started,Dias_2.started,Stimuli_1_3.started,Resp_final_1,Modo2.started,Modo1.started,Pregunta_4.started,Modo3.started,Exitos7.started,Dias6.started,Resp_final_2,Modo1_2.started,Pregunta_3.started,Modo2_2.started,Exitos8.started,Dias7.started,Resp_final_3,Mensaje_Final2.started,Exitos6.started,participant,session,date,expName,psychopyVersion,frameRate,
0,0,0,0,0,0,0,0,326.928581698,326.928581698,326.928581698,326.928581698,326.928581698,326.928581698,326.928581698,0,0,0,0,['N_A'],338.40743194400056,338.40743194400056,338.40743194400056,338.40743194400056,340.44240771800014,340.44240771800014,340.44240771800014,340.44240771800014,340.44240771800014,340.44240771800014,340.44240771800014,340.44240771800014,342.4778614280003,342.4778614280003,342.4778614280003,342.4778614280003,,,,,,,,,,,,,,,,,,,,,,,,,,,,,,10,006,2022-09-23_11h44.52.616,test2,2022.2.4,59.90048803808728,
0,0,0,0,1,0,1,0,342.4778614280003,342.4778614280003,342.4778614280003,342.4778614280003,342.4778614280003,342.4778614280003,342.4778614280003,1,-1,rojo,0,['N_B'],364.083965414,364.083965414,364.083965414,364.083965414,366.12081403400043,366.12081403400043,366.12081403400043,366.12081403400043,366.12081403400043,366.12081403400043,366.12081403400043,366.12081403400043,368.15583975200025,368.15583975200025,368.15583975200025,368.15583975200025,,,,,,,,,,,,,,,,,,,,,,,,,,,,,,10,006,2022-09-23_11h44.52.616,test2,2022.2.4,59.90048803808728,
0,0,0,0,2,0,2,0,368.15583975200025,368.15583975200025,368.15583975200025,368.15583975200025,368.15583975200025,368.15583975200025,368.15583975200025,1,-1,azul,1,['N_B'],372.2765106330007,372.2765106330007,372.2765106330007,372.2765106330007,374.31360321600005,374.31360321600005,374.31360321600005,374.31360321600005,374.31360321600005,374.31360321600005,374.31360321600005,374.31360321600005,376.3487000160003,376.3487000160003,376.3487000160003,376.3487000160003,,,,,,,,,,,,,,,,,,,,,,,,,,,,,,10,006,2022-09-23_11h44.52.616,test2,2022.2.4,59.90048803808728,
0,0,0,0,3,0,3,0,376.3487000160003,376.3487000160003,376.3487000160003,376.3487000160003,376.3487000160003,376.3487000160003,376.3487000160003,1,-1,azul,0,['N_A'],379.0173954890006,379.0173954890006,379.0173954890006,379.0173954890006,381.054332318,381.054332318,381.054332318,381.054332318,381.054332318,381.054332318,381.054332318,381.054332318,383.08929533100036,383.08929533100036,383.08929533100036,383.08929533100036,,,,,,,,,,,,,,,,,,,,,,,,,,,,,,10,006,2022-09-23_11h44.52.616,test2,2022.2.4,59.90048803808728,
0,0,0,0,4,0,4,0,383.08929533100036,383.08929533100036,383.08929533100036,383.08929533100036,383.08929533100036,383.08929533100036,383.08929533100036,1,1,rojo,1,['N_A'],384.52338689499993,384.52338689499993,384.52338689499993,384.52338689499993,386.5421836630003,386.5421836630003,386.5421836630003,386.5421836630003,386.5421836630003,386.5421836630003,386.5421836630003,386.5421836630003,388.5793538710004,388.5793538710004,388.5793538710004,388.5793538710004,,,,,,,,,,,,,,,,,,,,,,,,,,,,,,10,006,2022-09-23_11h44.52.616,test2,2022.2.4,59.90048803808728,
0,0,0,0,5,0,5,0,388.5793538710004,388.5793538710004,388.5793538710004,388.5793538710004,388.5793538710004,388.5793538710004,388.5793538710004,1,1,rojo,1,['N_A'],390.0804287860001,390.0804287860001,390.0804287860001,390.0804287860001,392.0993266180003,392.0993266180003,392.0993266180003,392.0993266180003,392.0993266180003,392.0993266180003,392.0993266180003,392.0993266180003,394.13447765,394.13447765,394.13447765,394.13447765,,,,,,,,,,,,,,,,,,,,,,,,,,,,,,10,006,2022-09-23_11h44.52.616,test2,2022.2.4,59.90048803808728,
0,0,0,0,6,0,6,0,394.13447765,394.13447765,394.13447765,394.13447765,394.13447765,394.13447765,394.13447765,1,-1,rojo,1,['N_A'],395.6696761830008,395.6696761830008,395.6696761830008,395.6696761830008,397.7055750970003,397.7055750970003,397.7055750970003,397.7055750970003,397.7055750970003,397.7055750970003,397.7055750970003,397.7055750970003,399.7412231779999,399.7412231779999,399.7412231779999,399.7412231779999,,,,,,,,,,,,,,,,,,,,,,,,,,,,,,10,006,2022-09-23_11h44.52.616,test2,2022.2.4,59.90048803808728,
0,0,0,0,7,0,7,0,399.7412231779999,399.7412231779999,399.7412231779999,399.7412231779999,399.7412231779999,399.7412231779999,399.7412231779999,1,-1,rojo,1,['N_A'],401.9267493140005,401.9267493140005,401.9267493140005,401.9267493140005,403.96213472,403.96213472,403.96213472,403.96213472,403.96213472,403.96213472,403.96213472,403.96213472,405.9981402200001,405.9981402200001,405.9981402200001,405.9981402200001,,,,,,,,,,,,,,,,,,,,,,,,,,,,,,10,006,2022-09-23_11h44.52.616,test2,2022.2.4,59.90048803808728,
0,0,0,0,8,0,8,0,405.9981402200001,405.9981402200001,405.9981402200001,405.9981402200001,405.9981402200001,405.9981402200001,405.9981402200001,1,-1,rojo,0,['N_B'],407.916286914,407.916286914,407.916286914,407.916286914,409.9520175450007,409.9520175450007,409.9520175450007,409.9520175450007,409.9520175450007,409.9520175450007,409.9520175450007,409.9520175450007,411.9709358350001,411.9709358350001,411.9709358350001,411.9709358350001,,,,,,,,,,,,,,,,,,,,,,,,,,,,,,10,006,2022-09-23_11h44.52.616,test2,2022.2.4,59.90048803808728,
0,0,0,0,9,0,9,0,411.9709358350001,411.9709358350001,411.9709358350001,411.9709358350001,411.9709358350001,411.9709358350001,411.9709358350001,1,-1,azul,1,['N_B'],414.3068112260007,414.3068112260007,414.3068112260007,414.3068112260007,416.34324392000053,416.34324392000053,416.34324392000053,416.34324392000053,416.34324392000053,416.34324392000053,416.34324392000053,416.34324392000053,418.3605287580003,418.3605287580003,418.3605287580003,418.3605287580003,,,,,,,,,,,,,,,,,,,,,,,,,,,,,,10,006,2022-09-23_11h44.52.616,test2,2022.2.4,59.90048803808728,
0,0,0,0,10,0,10,0,418.3605287580003,418.3605287580003,418.3605287580003,418.3605287580003,418.3605287580003,418.3605287580003,418.3605287580003,1,-1,azul,0,['N_A'],422.01498392900066,422.01498392900066,422.01498392900066,422.01498392900066,424.0508052760006,424.0508052760006,424.0508052760006,424.0508052760006,424.0508052760006,424.0508052760006,424.0508052760006,424.0508052760006,426.0700196330008,426.0700196330008,426.0700196330008,426.0700196330008,,,,,,,,,,,,,,,,,,,,,,,,,,,,,,10,006,2022-09-23_11h44.52.616,test2,2022.2.4,59.90048803808728,
0,0,0,0,11,0,11,0,426.0700196330008,426.0700196330008,426.0700196330008,426.0700196330008,426.0700196330008,426.0700196330008,426.0700196330008,1,-1,rojo,1,['N_A'],427.53795342800004,427.53795342800004,427.53795342800004,427.53795342800004,429.55622352299997,429.55622352299997,429.55622352299997,429.55622352299997,429.55622352299997,429.55622352299997,429.55622352299997,429.55622352299997,431.5756298230008,431.5756298230008,431.5756298230008,431.5756298230008,,,,,,,,,,,,,,,,,,,,,,,,,,,,,,10,006,2022-09-23_11h44.52.616,test2,2022.2.4,59.90048803808728,
0,0,0,0,12,0,12,0,431.5756298230008,431.5756298230008,431.5756298230008,431.5756298230008,431.5756298230008,431.5756298230008,431.5756298230008,1,1,rojo,1,['N_A'],433.17760330300007,433.17760330300007,433.17760330300007,433.17760330300007,435.1966685390007,435.1966685390007,435.1966685390007,435.1966685390007,435.1966685390007,435.1966685390007,435.1966685390007,435.1966685390007,437.21503448600015,437.21503448600015,437.21503448600015,437.21503448600015,,,,,,,,,,,,,,,,,,,,,,,,,,,,,,10,006,2022-09-23_11h44.52.616,test2,2022.2.4,59.90048803808728,
0,0,0,0,13,0,13,0,437.21503448600015,437.21503448600015,437.21503448600015,437.21503448600015,437.21503448600015,437.21503448600015,437.21503448600015,1,1,rojo,1,['N_A'],438.666596731,438.666596731,438.666596731,438.666596731,440.686385514,440.686385514,440.686385514,440.686385514,440.686385514,440.686385514,440.686385514,440.686385514,442.7043065830003,442.7043065830003,442.7043065830003,442.7043065830003,,,,,,,,,,,,,,,,,,,,,,,,,,,,,,10,006,2022-09-23_11h44.52.616,test2,2022.2.4,59.90048803808728,
0,0,0,0,14,0,14,0,442.7043065830003,442.7043065830003,442.7043065830003,442.7043065830003,442.7043065830003,442.7043065830003,442.7043065830003,1,1,rojo,0,['N_B'],444.20553132200075,444.20553132200075,444.20553132200075,444.20553132200075,446.22524980400067,446.22524980400067,446.22524980400067,446.22524980400067,446.22524980400067,446.22524980400067,446.22524980400067,446.22524980400067,448.243568719,448.243568719,448.243568719,448.243568719,,,,,,,,,,,,,,,,,,,,,,,,,,,,,,10,006,2022-09-23_11h44.52.616,test2,2022.2.4,59.90048803808728,
0,0,0,0,15,0,15,0,448.243568719,448.243568719,448.243568719,448.243568719,448.243568719,448.243568719,448.243568719,1,-1,azul,1,['N_B'],450.21279121099997,450.21279121099997,450.21279121099997,450.21279121099997,452.23241400999996,452.23241400999996,452.23241400999996,452.23241400999996,452.23241400999996,452.23241400999996,452.23241400999996,452.23241400999996,454.25088122300076,454.25088122300076,454.25088122300076,454.25088122300076,,,,,,,,,,,,,,,,,,,,,,,,,,,,,,10,006,2022-09-23_11h44.52.616,test2,2022.2.4,59.90048803808728,
0,0,0,0,16,0,16,0,454.25088122300076,454.25088122300076,454.25088122300076,454.25088122300076,454.25088122300076,454.25088122300076,454.25088122300076,1,1,azul,1,['N_B'],455.63591128200005,455.63591128200005,455.63591128200005,455.63591128200005,457.6545814730007,457.6545814730007,457.6545814730007,457.6545814730007,457.6545814730007,457.6545814730007,457.6545814730007,457.6545814730007,459.6732669990006,459.6732669990006,459.6732669990006,459.6732669990006,,,,,,,,,,,,,,,,,,,,,,,,,,,,,,10,006,2022-09-23_11h44.52.616,test2,2022.2.4,59.90048803808728,
0,0,0,0,17,0,17,0,459.6732669990006,459.6732669990006,459.6732669990006,459.6732669990006,459.6732669990006,459.6732669990006,459.6732669990006,1,-1,azul,1,['N_B'],461.04146357800073,461.04146357800073,461.04146357800073,461.04146357800073,463.0777681870004,463.0777681870004,463.0777681870004,463.0777681870004,463.0777681870004,463.0777681870004,463.0777681870004,463.0777681870004,465.0964046200006,465.0964046200006,465.0964046200006,465.0964046200006,,,,,,,,,,,,,,,,,,,,,,,,,,,,,,10,006,2022-09-23_11h44.52.616,test2,2022.2.4,59.90048803808728,
0,0,0,0,18,0,18,0,465.0964046200006,465.0964046200006,465.0964046200006,465.0964046200006,465.0964046200006,465.0964046200006,465.0964046200006,1,-1,azul,1,['N_B'],466.43139858199993,466.43139858199993,466.43139858199993,466.43139858199993,468.46677607700076,468.46677607700076,468.46677607700076,468.46677607700076,468.46677607700076,468.46677607700076,468.46677607700076,468.46677607700076,470.4846747780002,470.4846747780002,470.4846747780002,470.4846747780002,,,,,,,,,,,,,,,,,,,,,,,,,,,,,,10,006,2022-09-23_11h44.52.616,test2,2022.2.4,59.90048803808728,
0,0,0,0,19,0,19,0,470.4846747780002,470.4846747780002,470.4846747780002,470.4846747780002,470.4846747780002,470.4846747780002,470.4846747780002,1,-1,azul,0,['N_A'],472.1205084110006,472.1205084110006,472.1205084110006,472.1205084110006,474.1564709660006,474.1564709660006,474.1564709660006,474.1564709660006,474.1564709660006,474.1564709660006,474.1564709660006,474.1564709660006,476.17433313700076,476.17433313700076,476.17433313700076,476.17433313700076,,,,,,,,,,,,,,,,,,,,,,,,,,,,,,10,006,2022-09-23_11h44.52.616,test2,2022.2.4,59.90048803808728,
0,0,0,0,20,0,20,0,476.17433313700076,476.17433313700076,476.17433313700076,476.17433313700076,476.17433313700076,476.17433313700076,476.17433313700076,1,-1,rojo,1,['N_A'],477.2095245790006,477.2095245790006,477.2095245790006,477.2095245790006,479.2275339960006,479.2275339960006,479.2275339960006,479.2275339960006,479.2275339960006,479.2275339960006,479.2275339960006,479.2275339960006,481.2475251420001,481.2475251420001,481.2475251420001,481.2475251420001,,,,,,,,,,,,,,,,,,,,,,,,,,,,,,10,006,2022-09-23_11h44.52.616,test2,2022.2.4,59.90048803808728,
0,0,0,0,21,0,21,0,481.2475251420001,481.2475251420001,481.2475251420001,481.2475251420001,481.2475251420001,481.2475251420001,481.2475251420001,1,1,rojo,1,['N_A'],482.63184685300075,482.63184685300075,482.63184685300075,482.63184685300075,484.65059069900053,484.65059069900053,484.65059069900053,484.65059069900053,484.65059069900053,484.65059069900053,484.65059069900053,484.65059069900053,486.68691465100073,486.68691465100073,486.68691465100073,486.68691465100073,,,,,,,,,,,,,,,,,,,,,,,,,,,,,,10,006,2022-09-23_11h44.52.616,test2,2022.2.4,59.90048803808728,
0,0,0,0,22,0,22,0,486.68691465100073,486.68691465100073,486.68691465100073,486.68691465100073,486.68691465100073,486.68691465100073,486.68691465100073,1,-1,rojo,1,['N_A'],487.6870905530004,487.6870905530004,487.6870905530004,487.6870905530004,489.723515701,489.723515701,489.723515701,489.723515701,489.723515701,489.723515701,489.723515701,489.723515701,491.7422762650003,491.7422762650003,491.7422762650003,491.7422762650003,,,,,,,,,,,,,,,,,,,,,,,,,,,,,,10,006,2022-09-23_11h44.52.616,test2,2022.2.4,59.90048803808728,
0,0,0,0,23,0,23,0,491.7422762650003,491.7422762650003,491.7422762650003,491.7422762650003,491.7422762650003,491.7422762650003,491.7422762650003,-1,-1,azul,1,['N_A'],493.24379218600006,493.24379218600006,493.24379218600006,493.24379218600006,495.27980919700076,495.27980919700076,495.27980919700076,495.27980919700076,495.27980919700076,495.27980919700076,495.27980919700076,495.27980919700076,497.2988635190004,497.2988635190004,497.2988635190004,497.2988635190004,,,,,,,,,,,,,,,,,,,,,,,,,,,,,,10,006,2022-09-23_11h44.52.616,test2,2022.2.4,59.90048803808728,
0,0,0,0,24,0,24,0,497.2988635190004,497.2988635190004,497.2988635190004,497.2988635190004,497.2988635190004,497.2988635190004,497.2988635190004,1,-1,rojo,1,['N_A'],498.7998444500008,498.7998444500008,498.7998444500008,498.7998444500008,500.8180592490007,500.8180592490007,500.8180592490007,500.8180592490007,500.8180592490007,500.8180592490007,500.8180592490007,500.8180592490007,502.8375008340008,502.8375008340008,502.8375008340008,502.8375008340008,,,,,,,,,,,,,,,,,,,,,,,,,,,,,,10,006,2022-09-23_11h44.52.616,test2,2022.2.4,59.90048803808728,
0,0,0,0,25,0,25,0,502.8375008340008,502.8375008340008,502.8375008340008,502.8375008340008,502.8375008340008,502.8375008340008,502.8375008340008,1,1,rojo,1,['N_A'],504.45630671900017,504.45630671900017,504.45630671900017,504.45630671900017,506.4753351850004,506.4753351850004,506.4753351850004,506.4753351850004,506.4753351850004,506.4753351850004,506.4753351850004,506.4753351850004,508.493559171,508.493559171,508.493559171,508.493559171,,,,,,,,,,,,,,,,,,,,,,,,,,,,,,10,006,2022-09-23_11h44.52.616,test2,2022.2.4,59.90048803808728,
0,0,0,0,26,0,26,0,508.493559171,508.493559171,508.493559171,508.493559171,508.493559171,508.493559171,508.493559171,1,-1,rojo,1,['N_A'],509.662079318,509.662079318,509.662079318,509.662079318,511.6809487650007,511.6809487650007,511.6809487650007,511.6809487650007,511.6809487650007,511.6809487650007,511.6809487650007,511.6809487650007,513.7003222350004,513.7003222350004,513.7003222350004,513.7003222350004,,,,,,,,,,,,,,,,,,,,,,,,,,,,,,10,006,2022-09-23_11h44.52.616,test2,2022.2.4,59.90048803808728,
0,0,0,0,27,0,27,0,513.7003222350004,513.7003222350004,513.7003222350004,513.7003222350004,513.7003222350004,513.7003222350004,513.7003222350004,-1,1,azul,1,['N_A'],515.1338932770004,515.1338932770004,515.1338932770004,515.1338932770004,517.1540430320001,517.1540430320001,517.1540430320001,517.1540430320001,517.1540430320001,517.1540430320001,517.1540430320001,517.1540430320001,519.1731717390003,519.1731717390003,519.1731717390003,519.1731717390003,,,,,,,,,,,,,,,,,,,,,,,,,,,,,,10,006,2022-09-23_11h44.52.616,test2,2022.2.4,59.90048803808728,
0,0,0,0,28,0,28,0,519.1731717390003,519.1731717390003,519.1731717390003,519.1731717390003,519.1731717390003,519.1731717390003,519.1731717390003,-1,1,azul,1,['N_A'],520.5405176880004,520.5405176880004,520.5405176880004,520.5405176880004,522.5595254530008,522.5595254530008,522.5595254530008,522.5595254530008,522.5595254530008,522.5595254530008,522.5595254530008,522.5595254530008,524.5792817840002,524.5792817840002,524.5792817840002,524.5792817840002,,,,,,,,,,,,,,,,,,,,,,,,,,,,,,10,006,2022-09-23_11h44.52.616,test2,2022.2.4,59.90048803808728,
0,0,0,0,29,0,29,0,524.5792817840002,524.5792817840002,524.5792817840002,524.5792817840002,524.5792817840002,524.5792817840002,524.5792817840002,-1,1,azul,1,['N_A'],526.380043229,526.380043229,526.380043229,526.380043229,528.399705027,528.399705027,528.399705027,528.399705027,528.399705027,528.399705027,528.399705027,528.399705027,530.4179328610007,530.4179328610007,530.4179328610007,530.4179328610007,,,,,,,,,,,,,,,,,,,,,,,,,,,,,,10,006,2022-09-23_11h44.52.616,test2,2022.2.4,59.90048803808728,
0,0,0,0,30,0,30,0,530.4179328610007,530.4179328610007,530.4179328610007,530.4179328610007,530.4179328610007,530.4179328610007,530.4179328610007,1,1,rojo,1,['N_A'],531.9194183110003,531.9194183110003,531.9194183110003,531.9194183110003,533.9387370920003,533.9387370920003,533.9387370920003,533.9387370920003,533.9387370920003,533.9387370920003,533.9387370920003,533.9387370920003,535.9577821470002,535.9577821470002,535.9577821470002,535.9577821470002,,,,,,,,,,,,,,,,,,,,,,,,,,,,,,10,006,2022-09-23_11h44.52.616,test2,2022.2.4,59.90048803808728,
0,0,0,0,31,0,31,0,535.9577821470002,535.9577821470002,535.9577821470002,535.9577821470002,535.9577821470002,535.9577821470002,535.9577821470002,1,-1,rojo,1,['N_A'],537.4585816220006,537.4585816220006,537.4585816220006,537.4585816220006,539.4785987730002,539.4785987730002,539.4785987730002,539.4785987730002,539.4785987730002,539.4785987730002,539.4785987730002,539.4785987730002,541.4967097860008,541.4967097860008,541.4967097860008,541.4967097860008,,,,,,,,,,,,,,,,,,,,,,,,,,,,,,10,006,2022-09-23_11h44.52.616,test2,2022.2.4,59.90048803808728,
0,0,0,0,32,0,32,0,541.4967097860008,541.4967097860008,541.4967097860008,541.4967097860008,541.4967097860008,541.4967097860008,541.4967097860008,-1,1,azul,1,['N_A'],542.9311815400006,542.9311815400006,542.9311815400006,542.9311815400006,544.9504748710006,544.9504748710006,544.9504748710006,544.9504748710006,544.9504748710006,544.9504748710006,544.9504748710006,544.9504748710006,546.9692424560008,546.9692424560008,546.9692424560008,546.9692424560008,,,,,,,,,,,,,,,,,,,,,,,,,,,,,,10,006,2022-09-23_11h44.52.616,test2,2022.2.4,59.90048803808728,
0,0,0,0,33,0,33,0,546.9692424560008,546.9692424560008,546.9692424560008,546.9692424560008,546.9692424560008,546.9692424560008,546.9692424560008,1,-1,rojo,0,['N_B'],548.4709442230005,548.4709442230005,548.4709442230005,548.4709442230005,550.4911898640003,550.4911898640003,550.4911898640003,550.4911898640003,550.4911898640003,550.4911898640003,550.4911898640003,550.4911898640003,552.508848513,552.508848513,552.508848513,552.508848513,,,,,,,,,,,,,,,,,,,,,,,,,,,,,,10,006,2022-09-23_11h44.52.616,test2,2022.2.4,59.90048803808728,
0,0,0,0,34,0,34,0,552.508848513,552.508848513,552.508848513,552.508848513,552.508848513,552.508848513,552.508848513,-1,1,rojo,1,['N_B'],553.8938503600002,553.8938503600002,553.8938503600002,553.8938503600002,555.913208637,555.913208637,555.913208637,555.913208637,555.913208637,555.913208637,555.913208637,555.913208637,557.9317082420002,557.9317082420002,557.9317082420002,557.9317082420002,,,,,,,,,,,,,,,,,,,,,,,,,,,,,,10,006,2022-09-23_11h44.52.616,test2,2022.2.4,59.90048803808728,
0,0,0,0,35,0,35,0,557.9317082420002,557.9317082420002,557.9317082420002,557.9317082420002,557.9317082420002,557.9317082420002,557.9317082420002,1,1,azul,1,['N_B'],559.5835282329999,559.5835282329999,559.5835282329999,559.5835282329999,561.6033833310003,561.6033833310003,561.6033833310003,561.6033833310003,561.6033833310003,561.6033833310003,561.6033833310003,561.6033833310003,563.6215534510002,563.6215534510002,563.6215534510002,563.6215534510002,,,,,,,,,,,,,,,,,,,,,,,,,,,,,,10,006,2022-09-23_11h44.52.616,test2,2022.2.4,59.90048803808728,
0,0,0,0,36,0,36,0,563.6215534510002,563.6215534510002,563.6215534510002,563.6215534510002,563.6215534510002,563.6215534510002,563.6215534510002,-1,-1,rojo,1,['N_B'],565.1066602930005,565.1066602930005,565.1066602930005,565.1066602930005,567.1259625370003,567.1259625370003,567.1259625370003,567.1259625370003,567.1259625370003,567.1259625370003,567.1259625370003,567.1259625370003,569.1434511550005,569.1434511550005,569.1434511550005,569.1434511550005,,,,,,,,,,,,,,,,,,,,,,,,,,,,,,10,006,2022-09-23_11h44.52.616,test2,2022.2.4,59.90048803808728,
0,0,0,0,37,0,37,0,569.1434511550005,569.1434511550005,569.1434511550005,569.1434511550005,569.1434511550005,569.1434511550005,569.1434511550005,1,1,azul,1,['N_B'],570.8620542170001,570.8620542170001,570.8620542170001,570.8620542170001,572.8819418930007,572.8819418930007,572.8819418930007,572.8819418930007,572.8819418930007,572.8819418930007,572.8819418930007,572.8819418930007,574.89967815,574.89967815,574.89967815,574.89967815,,,,,,,,,,,,,,,,,,,,,,,,,,,,,,10,006,2022-09-23_11h44.52.616,test2,2022.2.4,59.90048803808728,
0,0,0,0,38,0,38,0,574.89967815,574.89967815,574.89967815,574.89967815,574.89967815,574.89967815,574.89967815,1,1,azul,1,['N_B'],576.5354666380008,576.5354666380008,576.5354666380008,576.5354666380008,578.5546374220003,578.5546374220003,578.5546374220003,578.5546374220003,578.5546374220003,578.5546374220003,578.5546374220003,578.5546374220003,580.573849243,580.573849243,580.573849243,580.573849243,,,,,,,,,,,,,,,,,,,,,,,,,,,,,,10,006,2022-09-23_11h44.52.616,test2,2022.2.4,59.90048803808728,
0,0,0,0,39,0,39,0,580.573849243,580.573849243,580.573849243,580.573849243,580.573849243,580.573849243,580.573849243,1,-1,azul,1,['N_B'],582.2254354660008,582.2254354660008,582.2254354660008,582.2254354660008,584.2447156280004,584.2447156280004,584.2447156280004,584.2447156280004,584.2447156280004,584.2447156280004,584.2447156280004,584.2447156280004,586.2635748570001,586.2635748570001,586.2635748570001,586.2635748570001,,,,,,,,,,,,,,,,,,,,,,,,,,,,,,10,006,2022-09-23_11h44.52.616,test2,2022.2.4,59.90048803808728,
0,0,0,0,40,0,40,0,586.2635748570001,586.2635748570001,586.2635748570001,586.2635748570001,586.2635748570001,586.2635748570001,586.2635748570001,1,1,azul,1,['N_B'],587.6809346280006,587.6809346280006,587.6809346280006,587.6809346280006,589.700868809,589.700868809,589.700868809,589.700868809,589.700868809,589.700868809,589.700868809,589.700868809,591.7191145080005,591.7191145080005,591.7191145080005,591.7191145080005,,,,,,,,,,,,,,,,,,,,,,,,,,,,,,10,006,2022-09-23_11h44.52.616,test2,2022.2.4,59.90048803808728,
0,0,0,0,41,0,41,0,591.7191145080005,591.7191145080005,591.7191145080005,591.7191145080005,591.7191145080005,591.7191145080005,591.7191145080005,1,-1,azul,0,['N_A'],593.3203722730004,593.3203722730004,593.3203722730004,593.3203722730004,595.3571735770001,595.3571735770001,595.3571735770001,595.3571735770001,595.3571735770001,595.3571735770001,595.3571735770001,595.3571735770001,597.3750220380007,597.3750220380007,597.3750220380007,597.3750220380007,,,,,,,,,,,,,,,,,,,,,,,,,,,,,,10,006,2022-09-23_11h44.52.616,test2,2022.2.4,59.90048803808728,
0,0,0,0,42,0,42,0,597.3750220380007,597.3750220380007,597.3750220380007,597.3750220380007,597.3750220380007,597.3750220380007,597.3750220380007,1,-1,rojo,1,['N_A'],599.3773721160005,599.3773721160005,599.3773721160005,599.3773721160005,601.4136448790005,601.4136448790005,601.4136448790005,601.4136448790005,601.4136448790005,601.4136448790005,601.4136448790005,601.4136448790005,603.4322046679999,603.4322046679999,603.4322046679999,603.4322046679999,,,,,,,,,,,,,,,,,,,,,,,,,,,,,,10,006,2022-09-23_11h44.52.616,test2,2022.2.4,59.90048803808728,
0,0,0,0,43,0,43,0,603.4322046679999,603.4322046679999,603.4322046679999,603.4322046679999,603.4322046679999,603.4322046679999,603.4322046679999,1,-1,rojo,1,['N_A'],604.9004029760008,604.9004029760008,604.9004029760008,604.9004029760008,606.9188932690004,606.9188932690004,606.9188932690004,606.9188932690004,606.9188932690004,606.9188932690004,606.9188932690004,606.9188932690004,608.9384531080004,608.9384531080004,608.9384531080004,608.9384531080004,,,,,,,,,,,,,,,,,,,,,,,,,,,,,,10,006,2022-09-23_11h44.52.616,test2,2022.2.4,59.90048803808728,
0,0,0,0,44,0,44,0,608.9384531080004,608.9384531080004,608.9384531080004,608.9384531080004,608.9384531080004,608.9384531080004,608.9384531080004,-1,1,azul,1,['N_A'],610.7565049260002,610.7565049260002,610.7565049260002,610.7565049260002,612.7757529640003,612.7757529640003,612.7757529640003,612.7757529640003,612.7757529640003,612.7757529640003,612.7757529640003,612.7757529640003,614.7938321650008,614.7938321650008,614.7938321650008,614.7938321650008,,,,,,,,,,,,,,,,,,,,,,,,,,,,,,10,006,2022-09-23_11h44.52.616,test2,2022.2.4,59.90048803808728,
0,0,0,0,45,0,45,0,614.7938321650008,614.7938321650008,614.7938321650008,614.7938321650008,614.7938321650008,614.7938321650008,614.7938321650008,-1,-1,azul,1,['N_A'],616.7638653540007,616.7638653540007,616.7638653540007,616.7638653540007,618.7997256170001,618.7997256170001,618.7997256170001,618.7997256170001,618.7997256170001,618.7997256170001,618.7997256170001,618.7997256170001,620.8172086590002,620.8172086590002,620.8172086590002,620.8172086590002,,,,,,,,,,,,,,,,,,,,,,,,,,,,,,10,006,2022-09-23_11h44.52.616,test2,2022.2.4,59.90048803808728,
0,0,0,0,46,0,46,0,620.8172086590002,620.8172086590002,620.8172086590002,620.8172086590002,620.8172086590002,620.8172086590002,620.8172086590002,1,-1,rojo,1,['N_A'],622.9704415250008,622.9704415250008,622.9704415250008,622.9704415250008,625.0061442310007,625.0061442310007,625.0061442310007,625.0061442310007,625.0061442310007,625.0061442310007,625.0061442310007,625.0061442310007,627.023912437,627.023912437,627.023912437,627.023912437,,,,,,,,,,,,,,,,,,,,,,,,,,,,,,10,006,2022-09-23_11h44.52.616,test2,2022.2.4,59.90048803808728,
0,0,0,0,47,0,47,0,627.023912437,627.023912437,627.023912437,627.023912437,627.023912437,627.023912437,627.023912437,-1,-1,azul,1,['N_A'],628.7261673010007,628.7261673010007,628.7261673010007,628.7261673010007,630.7627346950003,630.7627346950003,630.7627346950003,630.7627346950003,630.7627346950003,630.7627346950003,630.7627346950003,630.7627346950003,632.78109296,632.78109296,632.78109296,632.78109296,,,,,,,,,,,,,,,,,,,,,,,,,,,,,,10,006,2022-09-23_11h44.52.616,test2,2022.2.4,59.90048803808728,
0,0,0,0,48,0,48,0,632.78109296,632.78109296,632.78109296,632.78109296,632.78109296,632.78109296,632.78109296,1,-1,rojo,0,['N_B'],634.5658257220002,634.5658257220002,634.5658257220002,634.5658257220002,636.5848177540001,636.5848177540001,636.5848177540001,636.5848177540001,636.5848177540001,636.5848177540001,636.5848177540001,636.5848177540001,638.6038820830008,638.6038820830008,638.6038820830008,638.6038820830008,,,,,,,,,,,,,,,,,,,,,,,,,,,,,,10,006,2022-09-23_11h44.52.616,test2,2022.2.4,59.90048803808728,
0,0,0,0,49,0,49,0,638.6038820830008,638.6038820830008,638.6038820830008,638.6038820830008,638.6038820830008,638.6038820830008,638.6038820830008,1,1,azul,1,['N_B'],640.6896895,640.6896895,640.6896895,640.6896895,642.7082247820008,642.7082247820008,642.7082247820008,642.7082247820008,642.7082247820008,642.7082247820008,642.7082247820008,642.7082247820008,644.7271881160004,644.7271881160004,644.7271881160004,644.7271881160004,,,,,,,,,,,,,,,,,,,,,,,,,,,,,,10,006,2022-09-23_11h44.52.616,test2,2022.2.4,59.90048803808728,
0,0,0,0,50,0,50,0,644.7271881160004,644.7271881160004,644.7271881160004,644.7271881160004,644.7271881160004,644.7271881160004,644.7271881160004,1,-1,azul,1,['N_B'],646.3126822849999,646.3126822849999,646.3126822849999,646.3126822849999,648.3486727260006,648.3486727260006,648.3486727260006,648.3486727260006,648.3486727260006,648.3486727260006,648.3486727260006,648.3486727260006,650.3671315430001,650.3671315430001,650.3671315430001,650.3671315430001,,,,,,,,,,,,,,,,,,,,,,,,,,,,,,10,006,2022-09-23_11h44.52.616,test2,2022.2.4,59.90048803808728,
0,0,0,0,51,0,51,0,650.3671315430001,650.3671315430001,650.3671315430001,650.3671315430001,650.3671315430001,650.3671315430001,650.3671315430001,1,-1,azul,1,['N_B'],652.3022803530002,652.3022803530002,652.3022803530002,652.3022803530002,654.3386915950005,654.3386915950005,654.3386915950005,654.3386915950005,654.3386915950005,654.3386915950005,654.3386915950005,654.3386915950005,656.3573240240003,656.3573240240003,656.3573240240003,656.3573240240003,,,,,,,,,,,,,,,,,,,,,,,,,,,,,,10,006,2022-09-23_11h44.52.616,test2,2022.2.4,59.90048803808728,
0,0,0,0,52,0,52,0,656.3573240240003,656.3573240240003,656.3573240240003,656.3573240240003,656.3573240240003,656.3573240240003,656.3573240240003,1,-1,azul,1,['N_B'],659.744346939,659.744346939,659.744346939,659.744346939,661.7801451390005,661.7801451390005,661.7801451390005,661.7801451390005,661.7801451390005,661.7801451390005,661.7801451390005,661.7801451390005,663.7991033990002,663.7991033990002,663.7991033990002,663.7991033990002,,,,,,,,,,,,,,,,,,,,,,,,,,,,,,10,006,2022-09-23_11h44.52.616,test2,2022.2.4,59.90048803808728,
0,0,0,0,53,0,53,0,663.7991033990002,663.7991033990002,663.7991033990002,663.7991033990002,663.7991033990002,663.7991033990002,663.7991033990002,-1,-1,rojo,0,['N_A'],665.9009963930002,665.9009963930002,665.9009963930002,665.9009963930002,667.9190401260003,667.9190401260003,667.9190401260003,667.9190401260003,667.9190401260003,667.9190401260003,667.9190401260003,667.9190401260003,669.9396043410006,669.9396043410006,669.9396043410006,669.9396043410006,,,,,,,,,,,,,,,,,,,,,,,,,,,,,,10,006,2022-09-23_11h44.52.616,test2,2022.2.4,59.90048803808728,
0,0,0,0,54,0,54,0,669.9396043410006,669.9396043410006,669.9396043410006,669.9396043410006,669.9396043410006,669.9396043410006,669.9396043410006,1,1,rojo,1,['N_A'],671.4065261700007,671.4065261700007,671.4065261700007,671.4065261700007,673.4262400840007,673.4262400840007,673.4262400840007,673.4262400840007,673.4262400840007,673.4262400840007,673.4262400840007,673.4262400840007,675.4440439610007,675.4440439610007,675.4440439610007,675.4440439610007,,,,,,,,,,,,,,,,,,,,,,,,,,,,,,10,006,2022-09-23_11h44.52.616,test2,2022.2.4,59.90048803808728,
0,0,0,0,55,0,55,0,675.4440439610007,675.4440439610007,675.4440439610007,675.4440439610007,675.4440439610007,675.4440439610007,675.4440439610007,1,-1,rojo,1,['N_A'],676.8965825290006,676.8965825290006,676.8965825290006,676.8965825290006,678.9324256750006,678.9324256750006,678.9324256750006,678.9324256750006,678.9324256750006,678.9324256750006,678.9324256750006,678.9324256750006,680.950129328,680.950129328,680.950129328,680.950129328,,,,,,,,,,,,,,,,,,,,,,,,,,,,,,10,006,2022-09-23_11h44.52.616,test2,2022.2.4,59.90048803808728,
0,0,0,0,56,0,56,0,680.950129328,680.950129328,680.950129328,680.950129328,680.950129328,680.950129328,680.950129328,1,-1,rojo,1,['N_A'],682.1187558670008,682.1187558670008,682.1187558670008,682.1187558670008,684.1377901920005,684.1377901920005,684.1377901920005,684.1377901920005,684.1377901920005,684.1377901920005,684.1377901920005,684.1377901920005,686.1568240690003,686.1568240690003,686.1568240690003,686.1568240690003,,,,,,,,,,,,,,,,,,,,,,,,,,,,,,10,006,2022-09-23_11h44.52.616,test2,2022.2.4,59.90048803808728,
0,0,0,0,57,0,57,0,686.1568240690003,686.1568240690003,686.1568240690003,686.1568240690003,686.1568240690003,686.1568240690003,686.1568240690003,1,1,rojo,1,['N_A'],687.6919752950007,687.6919752950007,687.6919752950007,687.6919752950007,689.7105215670008,689.7105215670008,689.7105215670008,689.7105215670008,689.7105215670008,689.7105215670008,689.7105215670008,689.7105215670008,691.7286129910008,691.7286129910008,691.7286129910008,691.7286129910008,,,,,,,,,,,,,,,,,,,,,,,,,,,,,,10,006,2022-09-23_11h44.52.616,test2,2022.2.4,59.90048803808728,
0,0,0,0,58,0,58,0,691.7286129910008,691.7286129910008,691.7286129910008,691.7286129910008,691.7286129910008,691.7286129910008,691.7286129910008,-1,-1,azul,1,['N_A'],693.6646482530005,693.6646482530005,693.6646482530005,693.6646482530005,695.7009604260002,695.7009604260002,695.7009604260002,695.7009604260002,695.7009604260002,695.7009604260002,695.7009604260002,695.7009604260002,697.7192804550004,697.7192804550004,697.7192804550004,697.7192804550004,,,,,,,,,,,,,,,,,,,,,,,,,,,,,,10,006,2022-09-23_11h44.52.616,test2,2022.2.4,59.90048803808728,
0,0,0,0,59,0,59,0,697.7192804550004,697.7192804550004,697.7192804550004,697.7192804550004,697.7192804550004,697.7192804550004,697.7192804550004,1,-1,rojo,0,['N_B'],699.5384372860008,699.5384372860008,699.5384372860008,699.5384372860008,701.5744786920004,701.5744786920004,701.5744786920004,701.5744786920004,701.5744786920004,701.5744786920004,701.5744786920004,701.5744786920004,703.5918489620008,703.5918489620008,703.5918489620008,703.5918489620008,,,,,,,,,,,,,,,,,,,,,,,,,,,,,,10,006,2022-09-23_11h44.52.616,test2,2022.2.4,59.90048803808728,
0,0,0,0,60,0,60,0,703.5918489620008,703.5918489620008,703.5918489620008,703.5918489620008,703.5918489620008,703.5918489620008,703.5918489620008,1,-1,azul,1,['N_B'],705.2777104730003,705.2777104730003,705.2777104730003,705.2777104730003,707.2958616240003,707.2958616240003,707.2958616240003,707.2958616240003,707.2958616240003,707.2958616240003,707.2958616240003,707.2958616240003,709.3155760200007,709.3155760200007,709.3155760200007,709.3155760200007,,,,,,,,,,,,,,,,,,,,,,,,,,,,,,10,006,2022-09-23_11h44.52.616,test2,2022.2.4,59.90048803808728,
0,0,0,0,61,0,61,0,709.3155760200007,709.3155760200007,709.3155760200007,709.3155760200007,709.3155760200007,709.3155760200007,709.3155760200007,1,1,azul,1,['N_B'],710.9345904270003,710.9345904270003,710.9345904270003,710.9345904270003,712.953252364,712.953252364,712.953252364,712.953252364,712.953252364,712.953252364,712.953252364,712.953252364,714.9711312740001,714.9711312740001,714.9711312740001,714.9711312740001,,,,,,,,,,,,,,,,,,,,,,,,,,,,,,10,006,2022-09-23_11h44.52.616,test2,2022.2.4,59.90048803808728,
0,0,0,0,62,0,62,0,714.9711312740001,714.9711312740001,714.9711312740001,714.9711312740001,714.9711312740001,714.9711312740001,714.9711312740001,1,1,azul,1,['N_B'],716.5066141770003,716.5066141770003,716.5066141770003,716.5066141770003,718.5255196380003,718.5255196380003,718.5255196380003,718.5255196380003,718.5255196380003,718.5255196380003,718.5255196380003,718.5255196380003,720.5438506420005,720.5438506420005,720.5438506420005,720.5438506420005,,,,,,,,,,,,,,,,,,,,,,,,,,,,,,10,006,2022-09-23_11h44.52.616,test2,2022.2.4,59.90048803808728,
0,0,0,0,63,0,63,0,720.5438506420005,720.5438506420005,720.5438506420005,720.5438506420005,720.5438506420005,720.5438506420005,720.5438506420005,1,-1,azul,1,['N_B'],722.830414778,722.830414778,722.830414778,722.830414778,724.8666137910004,724.8666137910004,724.8666137910004,724.8666137910004,724.8666137910004,724.8666137910004,724.8666137910004,724.8666137910004,726.8848738850002,726.8848738850002,726.8848738850002,726.8848738850002,,,,,,,,,,,,,,,,,,,,,,,,,,,,,,10,006,2022-09-23_11h44.52.616,test2,2022.2.4,59.90048803808728,
0,0,0,0,64,0,64,0,726.8848738850002,726.8848738850002,726.8848738850002,726.8848738850002,726.8848738850002,726.8848738850002,726.8848738850002,1,-1,azul,1,['N_B'],728.7374797870007,728.7374797870007,728.7374797870007,728.7374797870007,730.7551017920005,730.7551017920005,730.7551017920005,730.7551017920005,730.7551017920005,730.7551017920005,730.7551017920005,730.7551017920005,732.7747388390007,732.7747388390007,732.7747388390007,732.7747388390007,,,,,,,,,,,,,,,,,,,,,,,,,,,,,,10,006,2022-09-23_11h44.52.616,test2,2022.2.4,59.90048803808728,
0,0,0,0,65,0,65,0,732.7747388390007,732.7747388390007,732.7747388390007,732.7747388390007,732.7747388390007,732.7747388390007,732.7747388390007,1,1,azul,1,['N_B'],734.3766104000006,734.3766104000006,734.3766104000006,734.3766104000006,736.39566234,736.39566234,736.39566234,736.39566234,736.39566234,736.39566234,736.39566234,736.39566234,738.4141284130001,738.4141284130001,738.4141284130001,738.4141284130001,,,,,,,,,,,,,,,,,,,,,,,,,,,,,,10,006,2022-09-23_11h44.52.616,test2,2022.2.4,59.90048803808728,
0,0,0,0,66,0,66,0,738.4141284130001,738.4141284130001,738.4141284130001,738.4141284130001,738.4141284130001,738.4141284130001,738.4141284130001,1,-1,azul,1,['N_B'],740.3167525020008,740.3167525020008,740.3167525020008,740.3167525020008,742.3524500620006,742.3524500620006,742.3524500620006,742.3524500620006,742.3524500620006,742.3524500620006,742.3524500620006,742.3524500620006,744.3707983700006,744.3707983700006,744.3707983700006,744.3707983700006,,,,,,,,,,,,,,,,,,,,,,,,,,,,,,10,006,2022-09-23_11h44.52.616,test2,2022.2.4,59.90048803808728,
0,0,0,0,67,0,67,0,744.3707983700006,744.3707983700006,744.3707983700006,744.3707983700006,744.3707983700006,744.3707983700006,744.3707983700006,1,-1,azul,1,['N_B'],745.8060318380003,745.8060318380003,745.8060318380003,745.8060318380003,747.841928414,747.841928414,747.841928414,747.841928414,747.841928414,747.841928414,747.841928414,747.841928414,749.860012356,749.860012356,749.860012356,749.860012356,,,,,,,,,,,,,,,,,,,,,,,,,,,,,,10,006,2022-09-23_11h44.52.616,test2,2022.2.4,59.90048803808728,
0,0,0,0,68,0,68,0,749.860012356,749.860012356,749.860012356,749.860012356,749.860012356,749.860012356,749.860012356,1,-1,azul,1,['N_B'],751.3450682850007,751.3450682850007,751.3450682850007,751.3450682850007,753.381679782,753.381679782,753.381679782,753.381679782,753.381679782,753.381679782,753.381679782,753.381679782,755.4004305800008,755.4004305800008,755.4004305800008,755.4004305800008,,,,,,,,,,,,,,,,,,,,,,,,,,,,,,10,006,2022-09-23_11h44.52.616,test2,2022.2.4,59.90048803808728,
0,0,0,0,69,0,69,0,755.4004305800008,755.4004305800008,755.4004305800008,755.4004305800008,755.4004305800008,755.4004305800008,755.4004305800008,1,-1,azul,0,['N_A'],757.4512205830006,757.4512205830006,757.4512205830006,757.4512205830006,759.4877952240004,759.4877952240004,759.4877952240004,759.4877952240004,759.4877952240004,759.4877952240004,759.4877952240004,759.4877952240004,761.5065038560006,761.5065038560006,761.5065038560006,761.5065038560006,,,,,,,,,,,,,,,,,,,,,,,,,,,,,,10,006,2022-09-23_11h44.52.616,test2,2022.2.4,59.90048803808728,
0,0,0,0,70,0,70,0,761.5065038560006,761.5065038560006,761.5065038560006,761.5065038560006,761.5065038560006,761.5065038560006,761.5065038560006,1,-1,rojo,1,['N_A'],763.258835695,763.258835695,763.258835695,763.258835695,765.2943188850004,765.2943188850004,765.2943188850004,765.2943188850004,765.2943188850004,765.2943188850004,765.2943188850004,765.2943188850004,767.3131020850005,767.3131020850005,767.3131020850005,767.3131020850005,,,,,,,,,,,,,,,,,,,,,,,,,,,,,,10,006,2022-09-23_11h44.52.616,test2,2022.2.4,59.90048803808728,
0,0,0,0,71,0,71,0,767.3131020850005,767.3131020850005,767.3131020850005,767.3131020850005,767.3131020850005,767.3131020850005,767.3131020850005,1,-1,rojo,1,['N_A'],768.7980094660006,768.7980094660006,768.7980094660006,768.7980094660006,770.8170589250003,770.8170589250003,770.8170589250003,770.8170589250003,770.8170589250003,770.8170589250003,770.8170589250003,770.8170589250003,772.8523140130001,772.8523140130001,772.8523140130001,772.8523140130001,,,,,,,,,,,,,,,,,,,,,,,,,,,,,,10,006,2022-09-23_11h44.52.616,test2,2022.2.4,59.90048803808728,
0,0,0,0,72,0,72,0,772.8523140130001,772.8523140130001,772.8523140130001,772.8523140130001,772.8523140130001,772.8523140130001,772.8523140130001,-1,1,azul,1,['N_A'],773.8527154050007,773.8527154050007,773.8527154050007,773.8527154050007,775.8720668260003,775.8720668260003,775.8720668260003,775.8720668260003,775.8720668260003,775.8720668260003,775.8720668260003,775.8720668260003,777.8913358400005,777.8913358400005,777.8913358400005,777.8913358400005,,,,,,,,,,,,,,,,,,,,,,,,,,,,,,10,006,2022-09-23_11h44.52.616,test2,2022.2.4,59.90048803808728,
0,0,0,0,73,0,73,0,777.8913358400005,777.8913358400005,777.8913358400005,777.8913358400005,777.8913358400005,777.8913358400005,777.8913358400005,-1,-1,azul,1,['N_A'],779.4921497150008,779.4921497150008,779.4921497150008,779.4921497150008,781.5293901270006,781.5293901270006,781.5293901270006,781.5293901270006,781.5293901270006,781.5293901270006,781.5293901270006,781.5293901270006,783.547464188,783.547464188,783.547464188,783.547464188,,,,,,,,,,,,,,,,,,,,,,,,,,,,,,10,006,2022-09-23_11h44.52.616,test2,2022.2.4,59.90048803808728,
0,0,0,0,74,0,74,0,783.547464188,783.547464188,783.547464188,783.547464188,783.547464188,783.547464188,783.547464188,1,-1,rojo,1,['N_A'],785.8491805620006,785.8491805620006,785.8491805620006,785.8491805620006,787.8861370570003,787.8861370570003,787.8861370570003,787.8861370570003,787.8861370570003,787.8861370570003,787.8861370570003,787.8861370570003,789.9042457430005,789.9042457430005,789.9042457430005,789.9042457430005,,,,,,,,,,,,,,,,,,,,,,,,,,,,,,10,006,2022-09-23_11h44.52.616,test2,2022.2.4,59.90048803808728,
0,0,0,0,75,0,75,0,789.9042457430005,789.9042457430005,789.9042457430005,789.9042457430005,789.9042457430005,789.9042457430005,789.9042457430005,-1,-1,azul,1,['N_A'],791.1550571930002,791.1550571930002,791.1550571930002,791.1550571930002,793.1740238120001,793.1740238120001,793.1740238120001,793.1740238120001,793.1740238120001,793.1740238120001,793.1740238120001,793.1740238120001,795.1938352280004,795.1938352280004,795.1938352280004,795.1938352280004,,,,,,,,,,,,,,,,,,,,,,,,,,,,,,10,006,2022-09-23_11h44.52.616,test2,2022.2.4,59.90048803808728,
0,0,0,0,76,0,76,0,795.1938352280004,795.1938352280004,795.1938352280004,795.1938352280004,795.1938352280004,795.1938352280004,795.1938352280004,1,1,rojo,1,['N_A'],796.946270636,796.946270636,796.946270636,796.946270636,798.9640636930008,798.9640636930008,798.9640636930008,798.9640636930008,798.9640636930008,798.9640636930008,798.9640636930008,798.9640636930008,800.9836441030002,800.9836441030002,800.9836441030002,800.9836441030002,,,,,,,,,,,,,,,,,,,,,,,,,,,,,,10,006,2022-09-23_11h44.52.616,test2,2022.2.4,59.90048803808728,
0,0,0,0,77,0,77,0,800.9836441030002,800.9836441030002,800.9836441030002,800.9836441030002,800.9836441030002,800.9836441030002,800.9836441030002,-1,1,azul,1,['N_A'],802.4844634370002,802.4844634370002,802.4844634370002,802.4844634370002,804.5029845460003,804.5029845460003,804.5029845460003,804.5029845460003,804.5029845460003,804.5029845460003,804.5029845460003,804.5029845460003,806.5228866510006,806.5228866510006,806.5228866510006,806.5228866510006,,,,,,,,,,,,,,,,,,,,,,,,,,,,,,10,006,2022-09-23_11h44.52.616,test2,2022.2.4,59.90048803808728,
0,0,0,0,78,0,78,0,806.5228866510006,806.5228866510006,806.5228866510006,806.5228866510006,806.5228866510006,806.5228866510006,806.5228866510006,1,-1,rojo,1,['N_A'],807.5899542880006,807.5899542880006,807.5899542880006,807.5899542880006,809.6265992140006,809.6265992140006,809.6265992140006,809.6265992140006,809.6265992140006,809.6265992140006,809.6265992140006,809.6265992140006,811.6623285940004,811.6623285940004,811.6623285940004,811.6623285940004,,,,,,,,,,,,,,,,,,,,,,,,,,,,,,10,006,2022-09-23_11h44.52.616,test2,2022.2.4,59.90048803808728,
0,0,0,0,79,0,79,0,811.6623285940004,811.6623285940004,811.6623285940004,811.6623285940004,811.6623285940004,811.6623285940004,811.6623285940004,1,-1,rojo,1,['N_A'],812.6630740400005,812.6630740400005,812.6630740400005,812.6630740400005,814.6993525160005,814.6993525160005,814.6993525160005,814.6993525160005,814.6993525160005,814.6993525160005,814.6993525160005,814.6993525160005,816.7177816970006,816.7177816970006,816.7177816970006,816.7177816970006,,,,,,,,,,,,,,,,,,,,,,,,,,,,,,10,006,2022-09-23_11h44.52.616,test2,2022.2.4,59.90048803808728,
0,0,0,0,80,0,80,0,816.7177816970006,816.7177816970006,816.7177816970006,816.7177816970006,816.7177816970006,816.7177816970006,816.7177816970006,1,-1,rojo,1,['N_A'],818.068086833,818.068086833,818.068086833,818.068086833,820.1050768180003,820.1050768180003,820.1050768180003,820.1050768180003,820.1050768180003,820.1050768180003,820.1050768180003,820.1050768180003,822.1226403640003,822.1226403640003,822.1226403640003,822.1226403640003,,,,,,,,,,,,,,,,,,,,,,,,,,,,,,10,006,2022-09-23_11h44.52.616,test2,2022.2.4,59.90048803808728,
0,0,0,0,81,0,81,0,822.1226403640003,822.1226403640003,822.1226403640003,822.1226403640003,822.1226403640003,822.1226403640003,822.1226403640003,1,-1,rojo,1,['N_A'],823.5913002790003,823.5913002790003,823.5913002790003,823.5913002790003,825.6278539160003,825.6278539160003,825.6278539160003,825.6278539160003,825.6278539160003,825.6278539160003,825.6278539160003,825.6278539160003,827.6460118000005,827.6460118000005,827.6460118000005,827.6460118000005,,,,,,,,,,,,,,,,,,,,,,,,,,,,,,10,006,2022-09-23_11h44.52.616,test2,2022.2.4,59.90048803808728,
0,0,0,0,82,0,82,0,827.6460118000005,827.6460118000005,827.6460118000005,827.6460118000005,827.6460118000005,827.6460118000005,827.6460118000005,-1,-1,azul,0,['N_B'],830.298661412,830.298661412,830.298661412,830.298661412,832.3352218960008,832.3352218960008,832.3352218960008,832.3352218960008,832.3352218960008,832.3352218960008,832.3352218960008,832.3352218960008,834.3536263660008,834.3536263660008,834.3536263660008,834.3536263660008,,,,,,,,,,,,,,,,,,,,,,,,,,,,,,10,006,2022-09-23_11h44.52.616,test2,2022.2.4,59.90048803808728,
0,0,0,0,83,0,83,0,834.3536263660008,834.3536263660008,834.3536263660008,834.3536263660008,834.3536263660008,834.3536263660008,834.3536263660008,1,-1,azul,1,['N_B'],835.8211567660001,835.8211567660001,835.8211567660001,835.8211567660001,837.840485789,837.840485789,837.840485789,837.840485789,837.840485789,837.840485789,837.840485789,837.840485789,839.8589108380002,839.8589108380002,839.8589108380002,839.8589108380002,,,,,,,,,,,,,,,,,,,,,,,,,,,,,,10,006,2022-09-23_11h44.52.616,test2,2022.2.4,59.90048803808728,
0,0,0,0,84,0,84,0,839.8589108380002,839.8589108380002,839.8589108380002,839.8589108380002,839.8589108380002,839.8589108380002,839.8589108380002,1,1,azul,1,['N_B'],841.2774113610003,841.2774113610003,841.2774113610003,841.2774113610003,843.2967631220008,843.2967631220008,843.2967631220008,843.2967631220008,843.2967631220008,843.2967631220008,843.2967631220008,843.2967631220008,845.3155327210006,845.3155327210006,845.3155327210006,845.3155327210006,,,,,,,,,,,,,,,,,,,,,,,,,,,,,,10,006,2022-09-23_11h44.52.616,test2,2022.2.4,59.90048803808728,
0,0,0,0,85,0,85,0,845.3155327210006,845.3155327210006,845.3155327210006,845.3155327210006,845.3155327210006,845.3155327210006,845.3155327210006,1,-1,azul,1,['N_B'],847.000705126,847.000705126,847.000705126,847.000705126,849.0371000160003,849.0371000160003,849.0371000160003,849.0371000160003,849.0371000160003,849.0371000160003,849.0371000160003,849.0371000160003,851.0547894970005,851.0547894970005,851.0547894970005,851.0547894970005,,,,,,,,,,,,,,,,,,,,,,,,,,,,,,10,006,2022-09-23_11h44.52.616,test2,2022.2.4,59.90048803808728,
0,0,0,0,86,0,86,0,851.0547894970005,851.0547894970005,851.0547894970005,851.0547894970005,851.0547894970005,851.0547894970005,851.0547894970005,1,-1,azul,1,['N_B'],852.6236665050001,852.6236665050001,852.6236665050001,852.6236665050001,854.6593732850006,854.6593732850006,854.6593732850006,854.6593732850006,854.6593732850006,854.6593732850006,854.6593732850006,854.6593732850006,856.678007085,856.678007085,856.678007085,856.678007085,,,,,,,,,,,,,,,,,,,,,,,,,,,,,,10,006,2022-09-23_11h44.52.616,test2,2022.2.4,59.90048803808728,
0,0,0,0,87,0,87,0,856.678007085,856.678007085,856.678007085,856.678007085,856.678007085,856.678007085,856.678007085,-1,-1,rojo,1,['N_B'],858.730278944,858.730278944,858.730278944,858.730278944,860.7666595370001,860.7666595370001,860.7666595370001,860.7666595370001,860.7666595370001,860.7666595370001,860.7666595370001,860.7666595370001,862.7846099970002,862.7846099970002,862.7846099970002,862.7846099970002,,,,,,,,,,,,,,,,,,,,,,,,,,,,,,10,006,2022-09-23_11h44.52.616,test2,2022.2.4,59.90048803808728,
0,0,0,0,88,0,88,0,862.7846099970002,862.7846099970002,862.7846099970002,862.7846099970002,862.7846099970002,862.7846099970002,862.7846099970002,1,-1,azul,1,['N_B'],864.703876345,864.703876345,864.703876345,864.703876345,866.72195336,866.72195336,866.72195336,866.72195336,866.72195336,866.72195336,866.72195336,866.72195336,868.7415501340001,868.7415501340001,868.7415501340001,868.7415501340001,,,,,,,,,,,,,,,,,,,,,,,,,,,,,,10,006,2022-09-23_11h44.52.616,test2,2022.2.4,59.90048803808728,
0,0,0,0,89,0,89,0,868.7415501340001,868.7415501340001,868.7415501340001,868.7415501340001,868.7415501340001,868.7415501340001,868.7415501340001,1,1,azul,0,['N_A'],870.9604075710004,870.9604075710004,870.9604075710004,870.9604075710004,872.979127998,872.979127998,872.979127998,872.979127998,872.979127998,872.979127998,872.979127998,872.979127998,874.9983632140002,874.9983632140002,874.9983632140002,874.9983632140002,,,,,,,,,,,,,,,,,,,,,,,,,,,,,,10,006,2022-09-23_11h44.52.616,test2,2022.2.4,59.90048803808728,
0,0,0,0,90,0,90,0,874.9983632140002,874.9983632140002,874.9983632140002,874.9983632140002,874.9983632140002,874.9983632140002,874.9983632140002,1,-1,rojo,1,['N_A'],877.6006108730007,877.6006108730007,877.6006108730007,877.6006108730007,879.6373379860006,879.6373379860006,879.6373379860006,879.6373379860006,879.6373379860006,879.6373379860006,879.6373379860006,879.6373379860006,881.6552215360007,881.6552215360007,881.6552215360007,881.6552215360007,,,,,,,,,,,,,,,,,,,,,,,,,,,,,,10,006,2022-09-23_11h44.52.616,test2,2022.2.4,59.90048803808728,
0,0,0,0,91,0,91,0,881.6552215360007,881.6552215360007,881.6552215360007,881.6552215360007,881.6552215360007,881.6552215360007,881.6552215360007,1,-1,rojo,1,['N_A'],883.3073441310007,883.3073441310007,883.3073441310007,883.3073441310007,885.3431280260002,885.3431280260002,885.3431280260002,885.3431280260002,885.3431280260002,885.3431280260002,885.3431280260002,885.3431280260002,887.3791911560002,887.3791911560002,887.3791911560002,887.3791911560002,,,,,,,,,,,,,,,,,,,,,,,,,,,,,,10,006,2022-09-23_11h44.52.616,test2,2022.2.4,59.90048803808728,
0,0,0,0,92,0,92,0,887.3791911560002,887.3791911560002,887.3791911560002,887.3791911560002,887.3791911560002,887.3791911560002,887.3791911560002,1,-1,rojo,1,['N_A'],888.379360551,888.379360551,888.379360551,888.379360551,890.4160025280007,890.4160025280007,890.4160025280007,890.4160025280007,890.4160025280007,890.4160025280007,890.4160025280007,890.4160025280007,892.4333926010004,892.4333926010004,892.4333926010004,892.4333926010004,,,,,,,,,,,,,,,,,,,,,,,,,,,,,,10,006,2022-09-23_11h44.52.616,test2,2022.2.4,59.90048803808728,
0,0,0,0,93,0,93,0,892.4333926010004,892.4333926010004,892.4333926010004,892.4333926010004,892.4333926010004,892.4333926010004,892.4333926010004,1,-1,rojo,1,['N_A'],893.9358751610007,893.9358751610007,893.9358751610007,893.9358751610007,895.9714156110003,895.9714156110003,895.9714156110003,895.9714156110003,895.9714156110003,895.9714156110003,895.9714156110003,895.9714156110003,897.9898288170007,897.9898288170007,897.9898288170007,897.9898288170007,,,,,,,,,,,,,,,,,,,,,,,,,,,,,,10,006,2022-09-23_11h44.52.616,test2,2022.2.4,59.90048803808728,
0,0,0,0,94,0,94,0,897.9898288170007,897.9898288170007,897.9898288170007,897.9898288170007,897.9898288170007,897.9898288170007,897.9898288170007,1,-1,rojo,1,['N_A'],899.5579283740008,899.5579283740008,899.5579283740008,899.5579283740008,901.5945235770005,901.5945235770005,901.5945235770005,901.5945235770005,901.5945235770005,901.5945235770005,901.5945235770005,901.5945235770005,903.612432895,903.612432895,903.612432895,903.612432895,,,,,,,,,,,,,,,,,,,,,,,,,,,,,,10,006,2022-09-23_11h44.52.616,test2,2022.2.4,59.90048803808728,
0,0,0,0,95,0,95,0,903.612432895,903.612432895,903.612432895,903.612432895,903.612432895,903.612432895,903.612432895,-1,-1,azul,1,['N_A'],905.2317857200005,905.2317857200005,905.2317857200005,905.2317857200005,907.2673806290004,907.2673806290004,907.2673806290004,907.2673806290004,907.2673806290004,907.2673806290004,907.2673806290004,907.2673806290004,909.2854533980008,909.2854533980008,909.2854533980008,909.2854533980008,,,,,,,,,,,,,,,,,,,,,,,,,,,,,,10,006,2022-09-23_11h44.52.616,test2,2022.2.4,59.90048803808728,
0,0,0,0,96,0,96,0,909.2854533980008,909.2854533980008,909.2854533980008,909.2854533980008,909.2854533980008,909.2854533980008,909.2854533980008,1,-1,rojo,1,['N_A'],910.7546578470001,910.7546578470001,910.7546578470001,910.7546578470001,912.7906557190008,912.7906557190008,912.7906557190008,912.7906557190008,912.7906557190008,912.7906557190008,912.7906557190008,912.7906557190008,914.8086794580004,914.8086794580004,914.8086794580004,914.8086794580004,,,,,,,,,,,,,,,,,,,,,,,,,,,,,,10,006,2022-09-23_11h44.52.616,test2,2022.2.4,59.90048803808728,
0,0,0,0,97,0,97,0,914.8086794580004,914.8086794580004,914.8086794580004,914.8086794580004,914.8086794580004,914.8086794580004,914.8086794580004,1,-1,rojo,1,['N_A'],916.2766012900001,916.2766012900001,916.2766012900001,916.2766012900001,918.2960519950002,918.2960519950002,918.2960519950002,918.2960519950002,918.2960519950002,918.2960519950002,918.2960519950002,918.2960519950002,920.3157441769999,920.3157441769999,920.3157441769999,920.3157441769999,,,,,,,,,,,,,,,,,,,,,,,,,,,,,,10,006,2022-09-23_11h44.52.616,test2,2022.2.4,59.90048803808728,
0,0,0,0,98,0,98,0,920.3157441769999,920.3157441769999,920.3157441769999,920.3157441769999,920.3157441769999,920.3157441769999,920.3157441769999,1,1,rojo,1,['N_A'],921.716941056,921.716941056,921.716941056,921.716941056,923.7356256500007,923.7356256500007,923.7356256500007,923.7356256500007,923.7356256500007,923.7356256500007,923.7356256500007,923.7356256500007,925.7543340620005,925.7543340620005,925.7543340620005,925.7543340620005,,,,,,,,,,,,,,,,,,,,,,,,,,,,,,10,006,2022-09-23_11h44.52.616,test2,2022.2.4,59.90048803808728,
0,0,0,0,99,0,99,0,925.7543340620005,925.7543340620005,925.7543340620005,925.7543340620005,925.7543340620005,925.7543340620005,925.7543340620005,1,1,rojo,0,['N_B'],927.6059805280001,927.6059805280001,927.6059805280001,927.6059805280001,929.6265713410003,929.6265713410003,929.6265713410003,929.6265713410003,929.6265713410003,929.6265713410003,929.6265713410003,929.6265713410003,931.6444795060006,931.6444795060006,931.6444795060006,931.6444795060006,,,,,,,,,,,,,,,,,,,,,,,,,,,,,,10,006,2022-09-23_11h44.52.616,test2,2022.2.4,59.90048803808728,
0,0,0,0,100,0,100,0,931.6444795060006,931.6444795060006,931.6444795060006,931.6444795060006,931.6444795060006,931.6444795060006,931.6444795060006,1,1,azul,1,['N_B'],933.2956365050004,933.2956365050004,933.2956365050004,933.2956365050004,935.3149552950008,935.3149552950008,935.3149552950008,935.3149552950008,935.3149552950008,935.3149552950008,935.3149552950008,935.3149552950008,937.3339792870001,937.3339792870001,937.3339792870001,937.3339792870001,,,,,,,,,,,,,,,,,,,,,,,,,,,,,,10,006,2022-09-23_11h44.52.616,test2,2022.2.4,59.90048803808728,
0,0,0,0,101,0,101,0,937.3339792870001,937.3339792870001,937.3339792870001,937.3339792870001,937.3339792870001,937.3339792870001,937.3339792870001,1,1,azul,1,['N_B'],938.7021057320007,938.7021057320007,938.7021057320007,938.7021057320007,940.720683218,940.720683218,940.720683218,940.720683218,940.720683218,940.720683218,940.720683218,940.720683218,942.7396901790007,942.7396901790007,942.7396901790007,942.7396901790007,,,,,,,,,,,,,,,,,,,,,,,,,,,,,,10,006,2022-09-23_11h44.52.616,test2,2022.2.4,59.90048803808728,
0,0,0,0,102,0,102,0,942.7396901790007,942.7396901790007,942.7396901790007,942.7396901790007,942.7396901790007,942.7396901790007,942.7396901790007,1,-1,azul,1,['N_B'],944.1738966480007,944.1738966480007,944.1738966480007,944.1738966480007,946.2102166570003,946.2102166570003,946.2102166570003,946.2102166570003,946.2102166570003,946.2102166570003,946.2102166570003,946.2102166570003,948.22831683,948.22831683,948.22831683,948.22831683,,,,,,,,,,,,,,,,,,,,,,,,,,,,,,10,006,2022-09-23_11h44.52.616,test2,2022.2.4,59.90048803808728,
0,0,0,0,103,0,103,0,948.22831683,948.22831683,948.22831683,948.22831683,948.22831683,948.22831683,948.22831683,1,-1,azul,1,['N_B'],949.5474511120001,949.5474511120001,949.5474511120001,949.5474511120001,951.5836295580002,951.5836295580002,951.5836295580002,951.5836295580002,951.5836295580002,951.5836295580002,951.5836295580002,951.5836295580002,953.6018135430004,953.6018135430004,953.6018135430004,953.6018135430004,,,,,,,,,,,,,,,,,,,,,,,,,,,,,,10,006,2022-09-23_11h44.52.616,test2,2022.2.4,59.90048803808728,
0,0,0,0,104,0,104,0,953.6018135430004,953.6018135430004,953.6018135430004,953.6018135430004,953.6018135430004,953.6018135430004,953.6018135430004,1,-1,azul,1,['N_B'],954.969661907,954.969661907,954.969661907,954.969661907,956.9879412930004,956.9879412930004,956.9879412930004,956.9879412930004,956.9879412930004,956.9879412930004,956.9879412930004,956.9879412930004,959.0084078440004,959.0084078440004,959.0084078440004,959.0084078440004,,,,,,,,,,,,,,,,,,,,,,,,,,,,,,10,006,2022-09-23_11h44.52.616,test2,2022.2.4,59.90048803808728,
0,0,0,0,105,0,105,0,959.0084078440004,959.0084078440004,959.0084078440004,959.0084078440004,959.0084078440004,959.0084078440004,959.0084078440004,1,1,azul,1,['N_B'],960.8922540460007,960.8922540460007,960.8922540460007,960.8922540460007,962.9125942730006,962.9125942730006,962.9125942730006,962.9125942730006,962.9125942730006,962.9125942730006,962.9125942730006,962.9125942730006,964.9306302800005,964.9306302800005,964.9306302800005,964.9306302800005,,,,,,,,,,,,,,,,,,,,,,,,,,,,,,10,006,2022-09-23_11h44.52.616,test2,2022.2.4,59.90048803808728,
0,0,0,0,106,0,106,0,964.9306302800005,964.9306302800005,964.9306302800005,964.9306302800005,964.9306302800005,964.9306302800005,964.9306302800005,-1,-1,rojo,1,['N_B'],966.332426815,966.332426815,966.332426815,966.332426815,968.3686581910006,968.3686581910006,968.3686581910006,968.3686581910006,968.3686581910006,968.3686581910006,968.3686581910006,968.3686581910006,970.3869343940005,970.3869343940005,970.3869343940005,970.3869343940005,,,,,,,,,,,,,,,,,,,,,,,,,,,,,,10,006,2022-09-23_11h44.52.616,test2,2022.2.4,59.90048803808728,
0,0,0,0,107,0,107,0,970.3869343940005,970.3869343940005,970.3869343940005,970.3869343940005,970.3869343940005,970.3869343940005,970.3869343940005,1,-1,azul,1,['N_B'],971.7719931440006,971.7719931440006,971.7719931440006,971.7719931440006,973.78986368,973.78986368,973.78986368,973.78986368,973.78986368,973.78986368,973.78986368,973.78986368,975.8088284130008,975.8088284130008,975.8088284130008,975.8088284130008,,,,,,,,,,,,,,,,,,,,,,,,,,,,,,10,006,2022-09-23_11h44.52.616,test2,2022.2.4,59.90048803808728,
0,0,0,0,108,0,108,0,975.8088284130008,975.8088284130008,975.8088284130008,975.8088284130008,975.8088284130008,975.8088284130008,975.8088284130008,1,1,azul,1,['N_B'],977.1938324729999,977.1938324729999,977.1938324729999,977.1938324729999,979.2138772750004,979.2138772750004,979.2138772750004,979.2138772750004,979.2138772750004,979.2138772750004,979.2138772750004,979.2138772750004,981.2323787820005,981.2323787820005,981.2323787820005,981.2323787820005,,,,,,,,,,,,,,,,,,,,,,,,,,,,,,10,006,2022-09-23_11h44.52.616,test2,2022.2.4,59.90048803808728,
0,0,0,0,109,0,109,0,981.2323787820005,981.2323787820005,981.2323787820005,981.2323787820005,981.2323787820005,981.2323787820005,981.2323787820005,1,-1,azul,0,['N_A'],986.8878323280005,986.8878323280005,986.8878323280005,986.8878323280005,988.9245721280004,988.9245721280004,988.9245721280004,988.9245721280004,988.9245721280004,988.9245721280004,988.9245721280004,988.9245721280004,990.9422999480003,990.9422999480003,990.9422999480003,990.9422999480003,,,,,,,,,,,,,,,,,,,,,,,,,,,,,,10,006,2022-09-23_11h44.52.616,test2,2022.2.4,59.90048803808728,
0,0,0,0,110,0,110,0,990.9422999480003,990.9422999480003,990.9422999480003,990.9422999480003,990.9422999480003,990.9422999480003,990.9422999480003,1,-1,rojo,1,['N_A'],992.3436917020008,992.3436917020008,992.3436917020008,992.3436917020008,994.3629270740003,994.3629270740003,994.3629270740003,994.3629270740003,994.3629270740003,994.3629270740003,994.3629270740003,994.3629270740003,996.3990729910001,996.3990729910001,996.3990729910001,996.3990729910001,,,,,,,,,,,,,,,,,,,,,,,,,,,,,,10,006,2022-09-23_11h44.52.616,test2,2022.2.4,59.90048803808728,
0,0,0,0,111,0,111,0,996.3990729910001,996.3990729910001,996.3990729910001,996.3990729910001,996.3990729910001,996.3990729910001,996.3990729910001,1,1,rojo,1,['N_A'],997.8174133430002,997.8174133430002,997.8174133430002,997.8174133430002,999.8358315290006,999.8358315290006,999.8358315290006,999.8358315290006,999.8358315290006,999.8358315290006,999.8358315290006,999.8358315290006,1001.8542465160008,1001.8542465160008,1001.8542465160008,1001.8542465160008,,,,,,,,,,,,,,,,,,,,,,,,,,,,,,10,006,2022-09-23_11h44.52.616,test2,2022.2.4,59.90048803808728,
0,0,0,0,112,0,112,0,1001.8542465160008,1001.8542465160008,1001.8542465160008,1001.8542465160008,1001.8542465160008,1001.8542465160008,1001.8542465160008,1,-1,rojo,1,['N_A'],1003.9408016130001,1003.9408016130001,1003.9408016130001,1003.9408016130001,1005.9762822350003,1005.9762822350003,1005.9762822350003,1005.9762822350003,1005.9762822350003,1005.9762822350003,1005.9762822350003,1005.9762822350003,1007.9951256370005,1007.9951256370005,1007.9951256370005,1007.9951256370005,,,,,,,,,,,,,,,,,,,,,,,,,,,,,,10,006,2022-09-23_11h44.52.616,test2,2022.2.4,59.90048803808728,
0,0,0,0,113,0,113,0,1007.9951256370005,1007.9951256370005,1007.9951256370005,1007.9951256370005,1007.9951256370005,1007.9951256370005,1007.9951256370005,-1,-1,azul,1,['N_A'],1009.3967523630008,1009.3967523630008,1009.3967523630008,1009.3967523630008,1011.4324549390003,1011.4324549390003,1011.4324549390003,1011.4324549390003,1011.4324549390003,1011.4324549390003,1011.4324549390003,1011.4324549390003,1013.4513047280007,1013.4513047280007,1013.4513047280007,1013.4513047280007,,,,,,,,,,,,,,,,,,,,,,,,,,,,,,10,006,2022-09-23_11h44.52.616,test2,2022.2.4,59.90048803808728,
0,0,0,0,114,0,114,0,1013.4513047280007,1013.4513047280007,1013.4513047280007,1013.4513047280007,1013.4513047280007,1013.4513047280007,1013.4513047280007,-1,-1,azul,1,['N_A'],1014.7862966910006,1014.7862966910006,1014.7862966910006,1014.7862966910006,1016.8048200740004,1016.8048200740004,1016.8048200740004,1016.8048200740004,1016.8048200740004,1016.8048200740004,1016.8048200740004,1016.8048200740004,1018.823693026,1018.823693026,1018.823693026,1018.823693026,,,,,,,,,,,,,,,,,,,,,,,,,,,,,,10,006,2022-09-23_11h44.52.616,test2,2022.2.4,59.90048803808728,
0,0,0,0,115,0,115,0,1018.823693026,1018.823693026,1018.823693026,1018.823693026,1018.823693026,1018.823693026,1018.823693026,1,1,rojo,1,['N_A'],1020.2416662400001,1020.2416662400001,1020.2416662400001,1020.2416662400001,1022.260500028,1022.260500028,1022.260500028,1022.260500028,1022.260500028,1022.260500028,1022.260500028,1022.260500028,1024.279920475,1024.279920475,1024.279920475,1024.279920475,,,,,,,,,,,,,,,,,,,,,,,,,,,,,,10,006,2022-09-23_11h44.52.616,test2,2022.2.4,59.90048803808728,
0,0,0,0,116,0,116,0,1024.279920475,1024.279920475,1024.279920475,1024.279920475,1024.279920475,1024.279920475,1024.279920475,1,-1,rojo,0,['N_B'],1025.664802706,1025.664802706,1025.664802706,1025.664802706,1027.682636906,1027.682636906,1027.682636906,1027.682636906,1027.682636906,1027.682636906,1027.682636906,1027.682636906,1029.7022886260002,1029.7022886260002,1029.7022886260002,1029.7022886260002,,,,,,,,,,,,,,,,,,,,,,,,,,,,,,10,006,2022-09-23_11h44.52.616,test2,2022.2.4,59.90048803808728,
0,0,0,0,117,0,117,0,1029.7022886260002,1029.7022886260002,1029.7022886260002,1029.7022886260002,1029.7022886260002,1029.7022886260002,1029.7022886260002,1,1,azul,1,['N_B'],1031.5035575970005,1031.5035575970005,1031.5035575970005,1031.5035575970005,1033.52349934,1033.52349934,1033.52349934,1033.52349934,1033.52349934,1033.52349934,1033.52349934,1033.52349934,1035.5416642290002,1035.5416642290002,1035.5416642290002,1035.5416642290002,,,,,,,,,,,,,,,,,,,,,,,,,,,,,,10,006,2022-09-23_11h44.52.616,test2,2022.2.4,59.90048803808728,
0,0,0,0,118,0,118,0,1035.5416642290002,1035.5416642290002,1035.5416642290002,1035.5416642290002,1035.5416642290002,1035.5416642290002,1035.5416642290002,-1,1,rojo,0,['N_A'],1037.377286326,1037.377286326,1037.377286326,1037.377286326,1039.3956222240004,1039.3956222240004,1039.3956222240004,1039.3956222240004,1039.3956222240004,1039.3956222240004,1039.3956222240004,1039.3956222240004,1041.4158253300002,1041.4158253300002,1041.4158253300002,1041.4158253300002,,,,,,,,,,,,,,,,,,,,,,,,,,,,,,10,006,2022-09-23_11h44.52.616,test2,2022.2.4,59.90048803808728,
0,0,0,0,119,0,119,0,1041.4158253300002,1041.4158253300002,1041.4158253300002,1041.4158253300002,1041.4158253300002,1041.4158253300002,1041.4158253300002,-1,-1,azul,0,['N_B'],1042.9994929210006,1042.9994929210006,1042.9994929210006,1042.9994929210006,1045.019235969,1045.019235969,1045.019235969,1045.019235969,1045.019235969,1045.019235969,1045.019235969,1045.019235969,1047.0377804150003,1047.0377804150003,1047.0377804150003,1047.0377804150003,,,,,,,,,,,,,,,,,,,,,,,,,,,,,,10,006,2022-09-23_11h44.52.616,test2,2022.2.4,59.90048803808728,
0,0,0,0,120,0,120,0,1047.0377804150003,1047.0377804150003,1047.0377804150003,1047.0377804150003,1047.0377804150003,1047.0377804150003,1047.0377804150003,1,1,azul,1,['N_B'],1048.656460348,1048.656460348,1048.656460348,1048.656460348,1050.674779043,1050.674779043,1050.674779043,1050.674779043,1050.674779043,1050.674779043,1050.674779043,1050.674779043,1052.6941785940007,1052.6941785940007,1052.6941785940007,1052.6941785940007,,,,,,,,,,,,,,,,,,,,,,,,,,,,,,10,006,2022-09-23_11h44.52.616,test2,2022.2.4,59.90048803808728,
0,0,0,0,121,0,121,0,1052.6941785940007,1052.6941785940007,1052.6941785940007,1052.6941785940007,1052.6941785940007,1052.6941785940007,1052.6941785940007,-1,-1,rojo,0,['N_A'],1054.1958686080006,1054.1958686080006,1054.1958686080006,1054.1958686080006,1056.2315171320006,1056.2315171320006,1056.2315171320006,1056.2315171320006,1056.2315171320006,1056.2315171320006,1056.2315171320006,1056.2315171320006,1058.250098435,1058.250098435,1058.250098435,1058.250098435,,,,,,,,,,,,,,,,,,,,,,,,,,,,,,10,006,2022-09-23_11h44.52.616,test2,2022.2.4,59.90048803808728,
0,0,0,0,122,0,122,0,1058.250098435,1058.250098435,1058.250098435,1058.250098435,1058.250098435,1058.250098435,1058.250098435,1,-1,rojo,1,['N_A'],1059.6513785530005,1059.6513785530005,1059.6513785530005,1059.6513785530005,1061.670137092,1061.670137092,1061.670137092,1061.670137092,1061.670137092,1061.670137092,1061.670137092,1061.670137092,1063.690021714,1063.690021714,1063.690021714,1063.690021714,,,,,,,,,,,,,,,,,,,,,,,,,,,,,,10,006,2022-09-23_11h44.52.616,test2,2022.2.4,59.90048803808728,
0,0,0,0,123,0,123,0,1063.690021714,1063.690021714,1063.690021714,1063.690021714,1063.690021714,1063.690021714,1063.690021714,-1,1,azul,1,['N_A'],1065.1417893100006,1065.1417893100006,1065.1417893100006,1065.1417893100006,1067.1595052460007,1067.1595052460007,1067.1595052460007,1067.1595052460007,1067.1595052460007,1067.1595052460007,1067.1595052460007,1067.1595052460007,1069.178794378,1069.178794378,1069.178794378,1069.178794378,,,,,,,,,,,,,,,,,,,,,,,,,,,,,,10,006,2022-09-23_11h44.52.616,test2,2022.2.4,59.90048803808728,
0,0,0,0,124,0,124,0,1069.178794378,1069.178794378,1069.178794378,1069.178794378,1069.178794378,1069.178794378,1069.178794378,1,-1,rojo,0,['N_B'],1070.596816151,1070.596816151,1070.596816151,1070.596816151,1072.6334156290004,1072.6334156290004,1072.6334156290004,1072.6334156290004,1072.6334156290004,1072.6334156290004,1072.6334156290004,1072.6334156290004,1074.6520952460005,1074.6520952460005,1074.6520952460005,1074.6520952460005,,,,,,,,,,,,,,,,,,,,,,,,,,,,,,10,006,2022-09-23_11h44.52.616,test2,2022.2.4,59.90048803808728,
0,0,0,0,125,0,125,0,1074.6520952460005,1074.6520952460005,1074.6520952460005,1074.6520952460005,1074.6520952460005,1074.6520952460005,1074.6520952460005,-1,-1,rojo,1,['N_B'],1076.020430644,1076.020430644,1076.020430644,1076.020430644,1078.0559935500005,1078.0559935500005,1078.0559935500005,1078.0559935500005,1078.0559935500005,1078.0559935500005,1078.0559935500005,1078.0559935500005,1080.0744897670002,1080.0744897670002,1080.0744897670002,1080.0744897670002,,,,,,,,,,,,,,,,,,,,,,,,,,,,,,10,006,2022-09-23_11h44.52.616,test2,2022.2.4,59.90048803808728,
0,0,0,0,126,0,126,0,1080.0744897670002,1080.0744897670002,1080.0744897670002,1080.0744897670002,1080.0744897670002,1080.0744897670002,1080.0744897670002,-1,-1,rojo,0,['N_A'],1081.2422796280007,1081.2422796280007,1081.2422796280007,1081.2422796280007,1083.2607160550006,1083.2607160550006,1083.2607160550006,1083.2607160550006,1083.2607160550006,1083.2607160550006,1083.2607160550006,1083.2607160550006,1085.279521806,1085.279521806,1085.279521806,1085.279521806,,,,,,,,,,,,,,,,,,,,,,,,,,,,,,10,006,2022-09-23_11h44.52.616,test2,2022.2.4,59.90048803808728,
0,0,0,0,127,0,127,0,1085.279521806,1085.279521806,1085.279521806,1085.279521806,1085.279521806,1085.279521806,1085.279521806,1,1,rojo,1,['N_A'],1086.6312542080004,1086.6312542080004,1086.6312542080004,1086.6312542080004,1088.6504874940001,1088.6504874940001,1088.6504874940001,1088.6504874940001,1088.6504874940001,1088.6504874940001,1088.6504874940001,1088.6504874940001,1090.6693273370001,1090.6693273370001,1090.6693273370001,1090.6693273370001,,,,,,,,,,,,,,,,,,,,,,,,,,,,,,10,006,2022-09-23_11h44.52.616,test2,2022.2.4,59.90048803808728,
0,0,0,0,128,0,128,0,1090.6693273370001,1090.6693273370001,1090.6693273370001,1090.6693273370001,1090.6693273370001,1090.6693273370001,1090.6693273370001,-1,-1,azul,1,['N_A'],1092.2040216860005,1092.2040216860005,1092.2040216860005,1092.2040216860005,1094.2402601880003,1094.2402601880003,1094.2402601880003,1094.2402601880003,1094.2402601880003,1094.2402601880003,1094.2402601880003,1094.2402601880003,1096.2593338660008,1096.2593338660008,1096.2593338660008,1096.2593338660008,,,,,,,,,,,,,,,,,,,,,,,,,,,,,,10,006,2022-09-23_11h44.52.616,test2,2022.2.4,59.90048803808728,
0,0,0,0,129,0,129,0,1096.2593338660008,1096.2593338660008,1096.2593338660008,1096.2593338660008,1096.2593338660008,1096.2593338660008,1096.2593338660008,-1,-1,azul,0,['N_B'],1098.695007198,1098.695007198,1098.695007198,1098.695007198,1100.7139705360005,1100.7139705360005,1100.7139705360005,1100.7139705360005,1100.7139705360005,1100.7139705360005,1100.7139705360005,1100.7139705360005,1102.7331994220003,1102.7331994220003,1102.7331994220003,1102.7331994220003,,,,,,,,,,,,,,,,,,,,,,,,,,,,,,10,006,2022-09-23_11h44.52.616,test2,2022.2.4,59.90048803808728,
0,0,0,0,130,0,130,0,1102.7331994220003,1102.7331994220003,1102.7331994220003,1102.7331994220003,1102.7331994220003,1102.7331994220003,1102.7331994220003,1,1,azul,1,['N_B'],1104.1013629980007,1104.1013629980007,1104.1013629980007,1104.1013629980007,1106.1193279490008,1106.1193279490008,1106.1193279490008,1106.1193279490008,1106.1193279490008,1106.1193279490008,1106.1193279490008,1106.1193279490008,1108.1381547180008,1108.1381547180008,1108.1381547180008,1108.1381547180008,,,,,,,,,,,,,,,,,,,,,,,,,,,,,,10,006,2022-09-23_11h44.52.616,test2,2022.2.4,59.90048803808728,
0,0,0,0,131,0,131,0,1108.1381547180008,1108.1381547180008,1108.1381547180008,1108.1381547180008,1108.1381547180008,1108.1381547180008,1108.1381547180008,-1,-1,rojo,1,['N_B'],1109.490532412,1109.490532412,1109.490532412,1109.490532412,1111.526677146,1111.526677146,1111.526677146,1111.526677146,1111.526677146,1111.526677146,1111.526677146,1111.526677146,1113.5451564240002,1113.5451564240002,1113.5451564240002,1113.5451564240002,,,,,,,,,,,,,,,,,,,,,,,,,,,,,,10,006,2022-09-23_11h44.52.616,test2,2022.2.4,59.90048803808728,
0,0,0,0,132,0,132,0,1113.5451564240002,1113.5451564240002,1113.5451564240002,1113.5451564240002,1113.5451564240002,1113.5451564240002,1113.5451564240002,1,-1,azul,0,['N_A'],1114.9465983730006,1114.9465983730006,1114.9465983730006,1114.9465983730006,1116.9834701030004,1116.9834701030004,1116.9834701030004,1116.9834701030004,1116.9834701030004,1116.9834701030004,1116.9834701030004,1116.9834701030004,1119.00078321,1119.00078321,1119.00078321,1119.00078321,,,,,,,,,,,,,,,,,,,,,,,,,,,,,,10,006,2022-09-23_11h44.52.616,test2,2022.2.4,59.90048803808728,
0,0,0,0,133,0,133,0,1119.00078321,1119.00078321,1119.00078321,1119.00078321,1119.00078321,1119.00078321,1119.00078321,1,-1,rojo,1,['N_A'],1120.4022435890001,1120.4022435890001,1120.4022435890001,1120.4022435890001,1122.4380293470003,1122.4380293470003,1122.4380293470003,1122.4380293470003,1122.4380293470003,1122.4380293470003,1122.4380293470003,1122.4380293470003,1124.457405903,1124.457405903,1124.457405903,1124.457405903,,,,,,,,,,,,,,,,,,,,,,,,,,,,,,10,006,2022-09-23_11h44.52.616,test2,2022.2.4,59.90048803808728,
0,0,0,0,134,0,134,0,1124.457405903,1124.457405903,1124.457405903,1124.457405903,1124.457405903,1124.457405903,1124.457405903,-1,-1,azul,1,['N_A'],1125.9920119450007,1125.9920119450007,1125.9920119450007,1125.9920119450007,1128.0274775390008,1128.0274775390008,1128.0274775390008,1128.0274775390008,1128.0274775390008,1128.0274775390008,1128.0274775390008,1128.0274775390008,1130.0455543860007,1130.0455543860007,1130.0455543860007,1130.0455543860007,,,,,,,,,,,,,,,,,,,,,,,,,,,,,,10,006,2022-09-23_11h44.52.616,test2,2022.2.4,59.90048803808728,
0,0,0,0,135,0,135,0,1130.0455543860007,1130.0455543860007,1130.0455543860007,1130.0455543860007,1130.0455543860007,1130.0455543860007,1130.0455543860007,-1,-1,azul,0,['N_B'],1131.6650756110002,1131.6650756110002,1131.6650756110002,1131.6650756110002,1133.6829784190004,1133.6829784190004,1133.6829784190004,1133.6829784190004,1133.6829784190004,1133.6829784190004,1133.6829784190004,1133.6829784190004,1135.7027943920002,1135.7027943920002,1135.7027943920002,1135.7027943920002,,,,,,,,,,,,,,,,,,,,,,,,,,,,,,10,006,2022-09-23_11h44.52.616,test2,2022.2.4,59.90048803808728,
0,0,0,0,136,0,136,0,1135.7027943920002,1135.7027943920002,1135.7027943920002,1135.7027943920002,1135.7027943920002,1135.7027943920002,1135.7027943920002,1,1,azul,1,['N_B'],1137.1546388720008,1137.1546388720008,1137.1546388720008,1137.1546388720008,1139.1733997970005,1139.1733997970005,1139.1733997970005,1139.1733997970005,1139.1733997970005,1139.1733997970005,1139.1733997970005,1139.1733997970005,1141.1922821410008,1141.1922821410008,1141.1922821410008,1141.1922821410008,,,,,,,,,,,,,,,,,,,,,,,,,,,,,,10,006,2022-09-23_11h44.52.616,test2,2022.2.4,59.90048803808728,
0,0,0,0,137,0,137,0,1141.1922821410008,1141.1922821410008,1141.1922821410008,1141.1922821410008,1141.1922821410008,1141.1922821410008,1141.1922821410008,-1,-1,rojo,1,['N_B'],1142.543075484,1142.543075484,1142.543075484,1142.543075484,1144.5617768690008,1144.5617768690008,1144.5617768690008,1144.5617768690008,1144.5617768690008,1144.5617768690008,1144.5617768690008,1144.5617768690008,1146.581469105,1146.581469105,1146.581469105,1146.581469105,,,,,,,,,,,,,,,,,,,,,,,,,,,,,,10,006,2022-09-23_11h44.52.616,test2,2022.2.4,59.90048803808728,
0,0,0,0,138,0,138,0,1146.581469105,1146.581469105,1146.581469105,1146.581469105,1146.581469105,1146.581469105,1146.581469105,1,1,azul,1,['N_B'],1148.0164286900008,1148.0164286900008,1148.0164286900008,1148.0164286900008,1150.0354491060007,1150.0354491060007,1150.0354491060007,1150.0354491060007,1150.0354491060007,1150.0354491060007,1150.0354491060007,1150.0354491060007,1152.0540487960006,1152.0540487960006,1152.0540487960006,1152.0540487960006,,,,,,,,,,,,,,,,,,,,,,,,,,,,,,10,006,2022-09-23_11h44.52.616,test2,2022.2.4,59.90048803808728,
0,0,0,0,139,0,139,0,1152.0540487960006,1152.0540487960006,1152.0540487960006,1152.0540487960006,1152.0540487960006,1152.0540487960006,1152.0540487960006,1,1,azul,1,['N_B'],1153.4046841530007,1153.4046841530007,1153.4046841530007,1153.4046841530007,1155.424136652,1155.424136652,1155.424136652,1155.424136652,1155.424136652,1155.424136652,1155.424136652,1155.424136652,1157.4424900970007,1157.4424900970007,1157.4424900970007,1157.4424900970007,,,,,,,,,,,,,,,,,,,,,,,,,,,,,,10,006,2022-09-23_11h44.52.616,test2,2022.2.4,59.90048803808728,
0,0,0,0,140,0,140,0,1157.4424900970007,1157.4424900970007,1157.4424900970007,1157.4424900970007,1157.4424900970007,1157.4424900970007,1157.4424900970007,1,-1,azul,0,['N_A'],1158.795117828,1158.795117828,1158.795117828,1158.795117828,1160.8140422720007,1160.8140422720007,1160.8140422720007,1160.8140422720007,1160.8140422720007,1160.8140422720007,1160.8140422720007,1160.8140422720007,1162.8329724230007,1162.8329724230007,1162.8329724230007,1162.8329724230007,,,,,,,,,,,,,,,,,,,,,,,,,,,,,,10,006,2022-09-23_11h44.52.616,test2,2022.2.4,59.90048803808728,
0,0,0,0,141,0,141,0,1162.8329724230007,1162.8329724230007,1162.8329724230007,1162.8329724230007,1162.8329724230007,1162.8329724230007,1162.8329724230007,-1,1,azul,0,['N_B'],1164.2004380360004,1164.2004380360004,1164.2004380360004,1164.2004380360004,1166.2194814450004,1166.2194814450004,1166.2194814450004,1166.2194814450004,1166.2194814450004,1166.2194814450004,1166.2194814450004,1166.2194814450004,1168.2387548900006,1168.2387548900006,1168.2387548900006,1168.2387548900006,,,,,,,,,,,,,,,,,,,,,,,,,,,,,,10,006,2022-09-23_11h44.52.616,test2,2022.2.4,59.90048803808728,
0,0,0,0,142,0,142,0,1168.2387548900006,1168.2387548900006,1168.2387548900006,1168.2387548900006,1168.2387548900006,1168.2387548900006,1168.2387548900006,1,1,azul,1,['N_B'],1169.806948843,1169.806948843,1169.806948843,1169.806948843,1171.825506827,1171.825506827,1171.825506827,1171.825506827,1171.825506827,1171.825506827,1171.825506827,1171.825506827,1173.8443869420007,1173.8443869420007,1173.8443869420007,1173.8443869420007,,,,,,,,,,,,,,,,,,,,,,,,,,,,,,10,006,2022-09-23_11h44.52.616,test2,2022.2.4,59.90048803808728,
0,0,0,0,143,0,143,0,1173.8443869420007,1173.8443869420007,1173.8443869420007,1173.8443869420007,1173.8443869420007,1173.8443869420007,1173.8443869420007,-1,-1,rojo,0,['N_A'],1175.2127921710007,1175.2127921710007,1175.2127921710007,1175.2127921710007,1177.2488142270004,1177.2488142270004,1177.2488142270004,1177.2488142270004,1177.2488142270004,1177.2488142270004,1177.2488142270004,1177.2488142270004,1179.2679249400007,1179.2679249400007,1179.2679249400007,1179.2679249400007,,,,,,,,,,,,,,,,,,,,,,,,,,,,,,10,006,2022-09-23_11h44.52.616,test2,2022.2.4,59.90048803808728,
0,0,0,0,144,0,144,0,1179.2679249400007,1179.2679249400007,1179.2679249400007,1179.2679249400007,1179.2679249400007,1179.2679249400007,1179.2679249400007,-1,-1,azul,0,['N_B'],1180.6847621800007,1180.6847621800007,1180.6847621800007,1180.6847621800007,1182.7216866080007,1182.7216866080007,1182.7216866080007,1182.7216866080007,1182.7216866080007,1182.7216866080007,1182.7216866080007,1182.7216866080007,1184.7402524730005,1184.7402524730005,1184.7402524730005,1184.7402524730005,,,,,,,,,,,,,,,,,,,,,,,,,,,,,,10,006,2022-09-23_11h44.52.616,test2,2022.2.4,59.90048803808728,
0,0,0,0,145,0,145,0,1184.7402524730005,1184.7402524730005,1184.7402524730005,1184.7402524730005,1184.7402524730005,1184.7402524730005,1184.7402524730005,-1,-1,rojo,1,['N_B'],1186.091062896,1186.091062896,1186.091062896,1186.091062896,1188.1099087960001,1188.1099087960001,1188.1099087960001,1188.1099087960001,1188.1099087960001,1188.1099087960001,1188.1099087960001,1188.1099087960001,1190.1294000750004,1190.1294000750004,1190.1294000750004,1190.1294000750004,,,,,,,,,,,,,,,,,,,,,,,,,,,,,,10,006,2022-09-23_11h44.52.616,test2,2022.2.4,59.90048803808728,
0,0,0,0,146,0,146,0,1190.1294000750004,1190.1294000750004,1190.1294000750004,1190.1294000750004,1190.1294000750004,1190.1294000750004,1190.1294000750004,1,1,azul,1,['N_B'],1191.480492142,1191.480492142,1191.480492142,1191.480492142,1193.4999401510004,1193.4999401510004,1193.4999401510004,1193.4999401510004,1193.4999401510004,1193.4999401510004,1193.4999401510004,1193.4999401510004,1195.5188138700005,1195.5188138700005,1195.5188138700005,1195.5188138700005,,,,,,,,,,,,,,,,,,,,,,,,,,,,,,10,006,2022-09-23_11h44.52.616,test2,2022.2.4,59.90048803808728,
0,0,0,0,147,0,147,0,1195.5188138700005,1195.5188138700005,1195.5188138700005,1195.5188138700005,1195.5188138700005,1195.5188138700005,1195.5188138700005,1,-1,azul,0,['N_A'],1197.754882452,1197.754882452,1197.754882452,1197.754882452,1199.7906392260002,1199.7906392260002,1199.7906392260002,1199.7906392260002,1199.7906392260002,1199.7906392260002,1199.7906392260002,1199.7906392260002,1201.8092381410006,1201.8092381410006,1201.8092381410006,1201.8092381410006,,,,,,,,,,,,,,,,,,,,,,,,,,,,,,10,006,2022-09-23_11h44.52.616,test2,2022.2.4,59.90048803808728,
0,0,0,0,148,0,148,0,1201.8092381410006,1201.8092381410006,1201.8092381410006,1201.8092381410006,1201.8092381410006,1201.8092381410006,1201.8092381410006,1,-1,rojo,0,['N_B'],1203.1763684520001,1203.1763684520001,1203.1763684520001,1203.1763684520001,1205.213043275,1205.213043275,1205.213043275,1205.213043275,1205.213043275,1205.213043275,1205.213043275,1205.213043275,1207.2315711270003,1207.2315711270003,1207.2315711270003,1207.2315711270003,,,,,,,,,,,,,,,,,,,,,,,,,,,,,,10,006,2022-09-23_11h44.52.616,test2,2022.2.4,59.90048803808728,
0,0,0,0,149,0,149,0,1207.2315711270003,1207.2315711270003,1207.2315711270003,1207.2315711270003,1207.2315711270003,1207.2315711270003,1207.2315711270003,1,-1,azul,1,['N_B'],1209.467519238,1209.467519238,1209.467519238,1209.467519238,1211.50319063,1211.50319063,1211.50319063,1211.50319063,1211.50319063,1211.50319063,1211.50319063,1211.50319063,1213.5223815190002,1213.5223815190002,1213.5223815190002,1213.5223815190002,,,,,,,,,,,,,,,,,,,,,,,,,,,,,,10,006,2022-09-23_11h44.52.616,test2,2022.2.4,59.90048803808728,
0,0,0,0,150,0,150,0,1213.5223815190002,1213.5223815190002,1213.5223815190002,1213.5223815190002,1213.5223815190002,1213.5223815190002,1213.5223815190002,1,-1,azul,1,['N_B'],1215.8079194640004,1215.8079194640004,1215.8079194640004,1215.8079194640004,1217.8436412370002,1217.8436412370002,1217.8436412370002,1217.8436412370002,1217.8436412370002,1217.8436412370002,1217.8436412370002,1217.8436412370002,1219.8618349120006,1219.8618349120006,1219.8618349120006,1219.8618349120006,,,,,,,,,,,,,,,,,,,,,,,,,,,,,,10,006,2022-09-23_11h44.52.616,test2,2022.2.4,59.90048803808728,
0,0,0,0,151,0,151,0,1219.8618349120006,1219.8618349120006,1219.8618349120006,1219.8618349120006,1219.8618349120006,1219.8618349120006,1219.8618349120006,1,-1,azul,1,['N_B'],1221.6305212650004,1221.6305212650004,1221.6305212650004,1221.6305212650004,1223.6665833250008,1223.6665833250008,1223.6665833250008,1223.6665833250008,1223.6665833250008,1223.6665833250008,1223.6665833250008,1223.6665833250008,1225.6854696260007,1225.6854696260007,1225.6854696260007,1225.6854696260007,,,,,,,,,,,,,,,,,,,,,,,,,,,,,,10,006,2022-09-23_11h44.52.616,test2,2022.2.4,59.90048803808728,
0,0,0,0,152,0,152,0,1225.6854696260007,1225.6854696260007,1225.6854696260007,1225.6854696260007,1225.6854696260007,1225.6854696260007,1225.6854696260007,-1,-1,rojo,1,['N_B'],1227.1872091000005,1227.1872091000005,1227.1872091000005,1227.1872091000005,1229.2058447690006,1229.2058447690006,1229.2058447690006,1229.2058447690006,1229.2058447690006,1229.2058447690006,1229.2058447690006,1229.2058447690006,1231.2246337310007,1231.2246337310007,1231.2246337310007,1231.2246337310007,,,,,,,,,,,,,,,,,,,,,,,,,,,,,,10,006,2022-09-23_11h44.52.616,test2,2022.2.4,59.90048803808728,
0,0,0,0,153,0,153,0,1231.2246337310007,1231.2246337310007,1231.2246337310007,1231.2246337310007,1231.2246337310007,1231.2246337310007,1231.2246337310007,-1,1,rojo,1,['N_B'],1232.5938723950003,1232.5938723950003,1232.5938723950003,1232.5938723950003,1234.6118109940007,1234.6118109940007,1234.6118109940007,1234.6118109940007,1234.6118109940007,1234.6118109940007,1234.6118109940007,1234.6118109940007,1236.6303338750004,1236.6303338750004,1236.6303338750004,1236.6303338750004,,,,,,,,,,,,,,,,,,,,,,,,,,,,,,10,006,2022-09-23_11h44.52.616,test2,2022.2.4,59.90048803808728,
0,0,0,0,154,0,154,0,1236.6303338750004,1236.6303338750004,1236.6303338750004,1236.6303338750004,1236.6303338750004,1236.6303338750004,1236.6303338750004,1,1,azul,1,['N_B'],1238.2826453280004,1238.2826453280004,1238.2826453280004,1238.2826453280004,1240.3009202450003,1240.3009202450003,1240.3009202450003,1240.3009202450003,1240.3009202450003,1240.3009202450003,1240.3009202450003,1240.3009202450003,1242.3202343190005,1242.3202343190005,1242.3202343190005,1242.3202343190005,,,,,,,,,,,,,,,,,,,,,,,,,,,,,,10,006,2022-09-23_11h44.52.616,test2,2022.2.4,59.90048803808728,
0,0,0,0,155,0,155,0,1242.3202343190005,1242.3202343190005,1242.3202343190005,1242.3202343190005,1242.3202343190005,1242.3202343190005,1242.3202343190005,-1,-1,rojo,0,['N_A'],1243.6718521190005,1243.6718521190005,1243.6718521190005,1243.6718521190005,1245.707692764,1245.707692764,1245.707692764,1245.707692764,1245.707692764,1245.707692764,1245.707692764,1245.707692764,1247.7259324390006,1247.7259324390006,1247.7259324390006,1247.7259324390006,,,,,,,,,,,,,,,,,,,,,,,,,,,,,,10,006,2022-09-23_11h44.52.616,test2,2022.2.4,59.90048803808728,
0,0,0,0,156,0,156,0,1247.7259324390006,1247.7259324390006,1247.7259324390006,1247.7259324390006,1247.7259324390006,1247.7259324390006,1247.7259324390006,-1,-1,azul,1,['N_A'],1249.0613387050007,1249.0613387050007,1249.0613387050007,1249.0613387050007,1251.0969604750007,1251.0969604750007,1251.0969604750007,1251.0969604750007,1251.0969604750007,1251.0969604750007,1251.0969604750007,1251.0969604750007,1253.1150012010003,1253.1150012010003,1253.1150012010003,1253.1150012010003,,,,,,,,,,,,,,,,,,,,,,,,,,,,,,10,006,2022-09-23_11h44.52.616,test2,2022.2.4,59.90048803808728,
0,0,0,0,157,0,157,0,1253.1150012010003,1253.1150012010003,1253.1150012010003,1253.1150012010003,1253.1150012010003,1253.1150012010003,1253.1150012010003,1,-1,rojo,0,['N_B'],1254.5998635760006,1254.5998635760006,1254.5998635760006,1254.5998635760006,1256.619857826,1256.619857826,1256.619857826,1256.619857826,1256.619857826,1256.619857826,1256.619857826,1256.619857826,1258.6386643740007,1258.6386643740007,1258.6386643740007,1258.6386643740007,,,,,,,,,,,,,,,,,,,,,,,,,,,,,,10,006,2022-09-23_11h44.52.616,test2,2022.2.4,59.90048803808728,
0,0,0,0,158,0,158,0,1258.6386643740007,1258.6386643740007,1258.6386643740007,1258.6386643740007,1258.6386643740007,1258.6386643740007,1258.6386643740007,1,1,azul,1,['N_B'],1259.9724249590008,1259.9724249590008,1259.9724249590008,1259.9724249590008,1261.992418574,1261.992418574,1261.992418574,1261.992418574,1261.992418574,1261.992418574,1261.992418574,1261.992418574,1264.0114092150006,1264.0114092150006,1264.0114092150006,1264.0114092150006,,,,,,,,,,,,,,,,,,,,,,,,,,,,,,10,006,2022-09-23_11h44.52.616,test2,2022.2.4,59.90048803808728,
0,0,0,0,159,0,159,0,1264.0114092150006,1264.0114092150006,1264.0114092150006,1264.0114092150006,1264.0114092150006,1264.0114092150006,1264.0114092150006,1,-1,azul,1,['N_B'],1265.3622092080004,1265.3622092080004,1265.3622092080004,1265.3622092080004,1267.381605734,1267.381605734,1267.381605734,1267.381605734,1267.381605734,1267.381605734,1267.381605734,1267.381605734,1269.3993266410007,1269.3993266410007,1269.3993266410007,1269.3993266410007,,,,,,,,,,,,,,,,,,,,,,,,,,,,,,10,006,2022-09-23_11h44.52.616,test2,2022.2.4,59.90048803808728,
0,0,0,0,160,0,160,0,1269.3993266410007,1269.3993266410007,1269.3993266410007,1269.3993266410007,1269.3993266410007,1269.3993266410007,1269.3993266410007,1,1,azul,1,['N_B'],1270.7685997940007,1270.7685997940007,1270.7685997940007,1270.7685997940007,1272.788266513,1272.788266513,1272.788266513,1272.788266513,1272.788266513,1272.788266513,1272.788266513,1272.788266513,1274.8062593310005,1274.8062593310005,1274.8062593310005,1274.8062593310005,,,,,,,,,,,,,,,,,,,,,,,,,,,,,,10,006,2022-09-23_11h44.52.616,test2,2022.2.4,59.90048803808728,
0,0,0,0,161,0,161,0,1274.8062593310005,1274.8062593310005,1274.8062593310005,1274.8062593310005,1274.8062593310005,1274.8062593310005,1274.8062593310005,1,1,azul,1,['N_B'],1276.2411420850003,1276.2411420850003,1276.2411420850003,1276.2411420850003,1278.2605820240005,1278.2605820240005,1278.2605820240005,1278.2605820240005,1278.2605820240005,1278.2605820240005,1278.2605820240005,1278.2605820240005,1280.2780114740008,1280.2780114740008,1280.2780114740008,1280.2780114740008,,,,,,,,,,,,,,,,,,,,,,,,,,,,,,10,006,2022-09-23_11h44.52.616,test2,2022.2.4,59.90048803808728,
0,0,0,0,162,0,162,0,1280.2780114740008,1280.2780114740008,1280.2780114740008,1280.2780114740008,1280.2780114740008,1280.2780114740008,1280.2780114740008,1,1,azul,1,['N_B'],1281.6302533430007,1281.6302533430007,1281.6302533430007,1281.6302533430007,1283.6496424250008,1283.6496424250008,1283.6496424250008,1283.6496424250008,1283.6496424250008,1283.6496424250008,1283.6496424250008,1283.6496424250008,1285.6689068430005,1285.6689068430005,1285.6689068430005,1285.6689068430005,,,,,,,,,,,,,,,,,,,,,,,,,,,,,,10,006,2022-09-23_11h44.52.616,test2,2022.2.4,59.90048803808728,
0,0,0,0,163,0,163,0,1285.6689068430005,1285.6689068430005,1285.6689068430005,1285.6689068430005,1285.6689068430005,1285.6689068430005,1285.6689068430005,1,1,azul,1,['N_B'],1287.0361462,1287.0361462,1287.0361462,1287.0361462,1289.0553266160005,1289.0553266160005,1289.0553266160005,1289.0553266160005,1289.0553266160005,1289.0553266160005,1289.0553266160005,1289.0553266160005,1291.0732032410006,1291.0732032410006,1291.0732032410006,1291.0732032410006,,,,,,,,,,,,,,,,,,,,,,,,,,,,,,10,006,2022-09-23_11h44.52.616,test2,2022.2.4,59.90048803808728,
0,0,0,0,164,0,164,0,1291.0732032410006,1291.0732032410006,1291.0732032410006,1291.0732032410006,1291.0732032410006,1291.0732032410006,1291.0732032410006,-1,-1,rojo,0,['N_A'],1293.1101629510003,1293.1101629510003,1293.1101629510003,1293.1101629510003,1295.1276768470007,1295.1276768470007,1295.1276768470007,1295.1276768470007,1295.1276768470007,1295.1276768470007,1295.1276768470007,1295.1276768470007,1297.1467028000006,1297.1467028000006,1297.1467028000006,1297.1467028000006,,,,,,,,,,,,,,,,,,,,,,,,,,,,,,10,006,2022-09-23_11h44.52.616,test2,2022.2.4,59.90048803808728,
0,0,0,0,165,0,165,0,1297.1467028000006,1297.1467028000006,1297.1467028000006,1297.1467028000006,1297.1467028000006,1297.1467028000006,1297.1467028000006,-1,1,azul,1,['N_A'],1298.8993602330002,1298.8993602330002,1298.8993602330002,1298.8993602330002,1300.9182633700002,1300.9182633700002,1300.9182633700002,1300.9182633700002,1300.9182633700002,1300.9182633700002,1300.9182633700002,1300.9182633700002,1302.9374237060001,1302.9374237060001,1302.9374237060001,1302.9374237060001,,,,,,,,,,,,,,,,,,,,,,,,,,,,,,10,006,2022-09-23_11h44.52.616,test2,2022.2.4,59.90048803808728,
0,0,0,0,166,0,166,0,1302.9374237060001,1302.9374237060001,1302.9374237060001,1302.9374237060001,1302.9374237060001,1302.9374237060001,1302.9374237060001,1,-1,rojo,0,['N_B'],1304.288305168,1304.288305168,1304.288305168,1304.288305168,1306.325218125,1306.325218125,1306.325218125,1306.325218125,1306.325218125,1306.325218125,1306.325218125,1306.325218125,1308.3433274090003,1308.3433274090003,1308.3433274090003,1308.3433274090003,,,,,,,,,,,,,,,,,,,,,,,,,,,,,,10,006,2022-09-23_11h44.52.616,test2,2022.2.4,59.90048803808728,
0,0,0,0,167,0,167,0,1308.3433274090003,1308.3433274090003,1308.3433274090003,1308.3433274090003,1308.3433274090003,1308.3433274090003,1308.3433274090003,1,-1,azul,1,['N_B'],1309.811489607,1309.811489607,1309.811489607,1309.811489607,1311.8306779950008,1311.8306779950008,1311.8306779950008,1311.8306779950008,1311.8306779950008,1311.8306779950008,1311.8306779950008,1311.8306779950008,1313.8498631130005,1313.8498631130005,1313.8498631130005,1313.8498631130005,,,,,,,,,,,,,,,,,,,,,,,,,,,,,,10,006,2022-09-23_11h44.52.616,test2,2022.2.4,59.90048803808728,
0,0,0,0,168,0,168,0,1313.8498631130005,1313.8498631130005,1313.8498631130005,1313.8498631130005,1313.8498631130005,1313.8498631130005,1313.8498631130005,1,1,azul,1,['N_B'],1315.367593162,1315.367593162,1315.367593162,1315.367593162,1317.3864741360003,1317.3864741360003,1317.3864741360003,1317.3864741360003,1317.3864741360003,1317.3864741360003,1317.3864741360003,1317.3864741360003,1319.4044596530002,1319.4044596530002,1319.4044596530002,1319.4044596530002,,,,,,,,,,,,,,,,,,,,,,,,,,,,,,10,006,2022-09-23_11h44.52.616,test2,2022.2.4,59.90048803808728,
0,0,0,0,169,0,169,0,1319.4044596530002,1319.4044596530002,1319.4044596530002,1319.4044596530002,1319.4044596530002,1319.4044596530002,1319.4044596530002,1,1,azul,1,['N_B'],1320.7904744100006,1320.7904744100006,1320.7904744100006,1320.7904744100006,1322.809190248,1322.809190248,1322.809190248,1322.809190248,1322.809190248,1322.809190248,1322.809190248,1322.809190248,1324.8281249780002,1324.8281249780002,1324.8281249780002,1324.8281249780002,,,,,,,,,,,,,,,,,,,,,,,,,,,,,,10,006,2022-09-23_11h44.52.616,test2,2022.2.4,59.90048803808728,
0,0,0,0,170,0,170,0,1324.8281249780002,1324.8281249780002,1324.8281249780002,1324.8281249780002,1324.8281249780002,1324.8281249780002,1324.8281249780002,1,-1,azul,1,['N_B'],1326.313031734,1326.313031734,1326.313031734,1326.313031734,1328.332197611,1328.332197611,1328.332197611,1328.332197611,1328.332197611,1328.332197611,1328.332197611,1328.332197611,1330.3505743340002,1330.3505743340002,1330.3505743340002,1330.3505743340002,,,,,,,,,,,,,,,,,,,,,,,,,,,,,,10,006,2022-09-23_11h44.52.616,test2,2022.2.4,59.90048803808728,
0,0,0,0,171,0,171,0,1330.3505743340002,1330.3505743340002,1330.3505743340002,1330.3505743340002,1330.3505743340002,1330.3505743340002,1330.3505743340002,1,1,azul,1,['N_B'],1331.701516479,1331.701516479,1331.701516479,1331.701516479,1333.720741522,1333.720741522,1333.720741522,1333.720741522,1333.720741522,1333.720741522,1333.720741522,1333.720741522,1335.7397223410007,1335.7397223410007,1335.7397223410007,1335.7397223410007,,,,,,,,,,,,,,,,,,,,,,,,,,,,,,10,006,2022-09-23_11h44.52.616,test2,2022.2.4,59.90048803808728,
0,0,0,0,172,0,172,0,1335.7397223410007,1335.7397223410007,1335.7397223410007,1335.7397223410007,1335.7397223410007,1335.7397223410007,1335.7397223410007,1,-1,azul,1,['N_B'],1337.1248925930004,1337.1248925930004,1337.1248925930004,1337.1248925930004,1339.1438449910002,1339.1438449910002,1339.1438449910002,1339.1438449910002,1339.1438449910002,1339.1438449910002,1339.1438449910002,1339.1438449910002,1341.1631798060007,1341.1631798060007,1341.1631798060007,1341.1631798060007,,,,,,,,,,,,,,,,,,,,,,,,,,,,,,10,006,2022-09-23_11h44.52.616,test2,2022.2.4,59.90048803808728,
0,0,0,0,173,0,173,0,1341.1631798060007,1341.1631798060007,1341.1631798060007,1341.1631798060007,1341.1631798060007,1341.1631798060007,1341.1631798060007,1,1,azul,1,['N_B'],1342.6306339520006,1342.6306339520006,1342.6306339520006,1342.6306339520006,1344.6501485180006,1344.6501485180006,1344.6501485180006,1344.6501485180006,1344.6501485180006,1344.6501485180006,1344.6501485180006,1344.6501485180006,1346.6687619250006,1346.6687619250006,1346.6687619250006,1346.6687619250006,,,,,,,,,,,,,,,,,,,,,,,,,,,,,,10,006,2022-09-23_11h44.52.616,test2,2022.2.4,59.90048803808728,
0,0,0,0,174,0,174,0,1346.6687619250006,1346.6687619250006,1346.6687619250006,1346.6687619250006,1346.6687619250006,1346.6687619250006,1346.6687619250006,1,-1,azul,0,['N_A'],1348.1206261850002,1348.1206261850002,1348.1206261850002,1348.1206261850002,1350.1384294600002,1350.1384294600002,1350.1384294600002,1350.1384294600002,1350.1384294600002,1350.1384294600002,1350.1384294600002,1350.1384294600002,1352.157932358,1352.157932358,1352.157932358,1352.157932358,,,,,,,,,,,,,,,,,,,,,,,,,,,,,,10,006,2022-09-23_11h44.52.616,test2,2022.2.4,59.90048803808728,
0,0,0,0,175,0,175,0,1352.157932358,1352.157932358,1352.157932358,1352.157932358,1352.157932358,1352.157932358,1352.157932358,-1,1,azul,1,['N_A'],1353.5259264210008,1353.5259264210008,1353.5259264210008,1353.5259264210008,1355.5444184040007,1355.5444184040007,1355.5444184040007,1355.5444184040007,1355.5444184040007,1355.5444184040007,1355.5444184040007,1355.5444184040007,1357.5642897140006,1357.5642897140006,1357.5642897140006,1357.5642897140006,,,,,,,,,,,,,,,,,,,,,,,,,,,,,,10,006,2022-09-23_11h44.52.616,test2,2022.2.4,59.90048803808728,
0,0,0,0,176,0,176,0,1357.5642897140006,1357.5642897140006,1357.5642897140006,1357.5642897140006,1357.5642897140006,1357.5642897140006,1357.5642897140006,-1,-1,azul,0,['N_B'],1361.0015338960002,1361.0015338960002,1361.0015338960002,1361.0015338960002,1363.036550844,1363.036550844,1363.036550844,1363.036550844,1363.036550844,1363.036550844,1363.036550844,1363.036550844,1365.055080487,1365.055080487,1365.055080487,1365.055080487,,,,,,,,,,,,,,,,,,,,,,,,,,,,,,10,006,2022-09-23_11h44.52.616,test2,2022.2.4,59.90048803808728,
0,0,0,0,177,0,177,0,1365.055080487,1365.055080487,1365.055080487,1365.055080487,1365.055080487,1365.055080487,1365.055080487,-1,-1,rojo,1,['N_B'],1366.4575233370006,1366.4575233370006,1366.4575233370006,1366.4575233370006,1368.4760176120008,1368.4760176120008,1368.4760176120008,1368.4760176120008,1368.4760176120008,1368.4760176120008,1368.4760176120008,1368.4760176120008,1370.4944241640005,1370.4944241640005,1370.4944241640005,1370.4944241640005,,,,,,,,,,,,,,,,,,,,,,,,,,,,,,10,006,2022-09-23_11h44.52.616,test2,2022.2.4,59.90048803808728,
0,0,0,0,178,0,178,0,1370.4944241640005,1370.4944241640005,1370.4944241640005,1370.4944241640005,1370.4944241640005,1370.4944241640005,1370.4944241640005,1,1,azul,1,['N_B'],1371.8963230640002,1371.8963230640002,1371.8963230640002,1371.8963230640002,1373.915924936,1373.915924936,1373.915924936,1373.915924936,1373.915924936,1373.915924936,1373.915924936,1373.915924936,1375.9344593320002,1375.9344593320002,1375.9344593320002,1375.9344593320002,,,,,,,,,,,,,,,,,,,,,,,,,,,,,,10,006,2022-09-23_11h44.52.616,test2,2022.2.4,59.90048803808728,
0,0,0,0,179,0,179,0,1375.9344593320002,1375.9344593320002,1375.9344593320002,1375.9344593320002,1375.9344593320002,1375.9344593320002,1375.9344593320002,1,1,azul,1,['N_B'],1377.3689635200008,1377.3689635200008,1377.3689635200008,1377.3689635200008,1379.3882115870001,1379.3882115870001,1379.3882115870001,1379.3882115870001,1379.3882115870001,1379.3882115870001,1379.3882115870001,1379.3882115870001,1381.4061909770007,1381.4061909770007,1381.4061909770007,1381.4061909770007,,,,,,,,,,,,,,,,,,,,,,,,,,,,,,10,006,2022-09-23_11h44.52.616,test2,2022.2.4,59.90048803808728,
0,0,0,0,180,0,180,0,1381.4061909770007,1381.4061909770007,1381.4061909770007,1381.4061909770007,1381.4061909770007,1381.4061909770007,1381.4061909770007,-1,-1,rojo,1,['N_B'],1382.9084181010003,1382.9084181010003,1382.9084181010003,1382.9084181010003,1384.9277433330008,1384.9277433330008,1384.9277433330008,1384.9277433330008,1384.9277433330008,1384.9277433330008,1384.9277433330008,1384.9277433330008,1386.9464659080004,1386.9464659080004,1386.9464659080004,1386.9464659080004,,,,,,,,,,,,,,,,,,,,,,,,,,,,,,10,006,2022-09-23_11h44.52.616,test2,2022.2.4,59.90048803808728,
0,0,0,0,181,0,181,0,1386.9464659080004,1386.9464659080004,1386.9464659080004,1386.9464659080004,1386.9464659080004,1386.9464659080004,1386.9464659080004,1,1,azul,1,['N_B'],1388.4650017650001,1388.4650017650001,1388.4650017650001,1388.4650017650001,1390.4838367090006,1390.4838367090006,1390.4838367090006,1390.4838367090006,1390.4838367090006,1390.4838367090006,1390.4838367090006,1390.4838367090006,1392.5024999490006,1392.5024999490006,1392.5024999490006,1392.5024999490006,,,,,,,,,,,,,,,,,,,,,,,,,,,,,,10,006,2022-09-23_11h44.52.616,test2,2022.2.4,59.90048803808728,
0,0,0,0,182,0,182,0,1392.5024999490006,1392.5024999490006,1392.5024999490006,1392.5024999490006,1392.5024999490006,1392.5024999490006,1392.5024999490006,1,1,azul,1,['N_B'],1393.854188931,1393.854188931,1393.854188931,1393.854188931,1395.8728832260003,1395.8728832260003,1395.8728832260003,1395.8728832260003,1395.8728832260003,1395.8728832260003,1395.8728832260003,1395.8728832260003,1397.8920587170005,1397.8920587170005,1397.8920587170005,1397.8920587170005,,,,,,,,,,,,,,,,,,,,,,,,,,,,,,10,006,2022-09-23_11h44.52.616,test2,2022.2.4,59.90048803808728,
