trials_2.thisRepN,trials_2.thisTrialN,trials_2.thisN,trials_2.thisIndex,trials.thisRepN,trials.thisTrialN,trials.thisN,trials.thisIndex,Instrucción2.started,N_A_4.started,N_B_4.started,Exitos_3.started,Dias_3.started,Stimuli_1.started,Stimuli_2.started,Transitions,Rewards,Mode,Stay,Neighbour,Stimuli_3.started,Modo.started,Dias2.started,Exitos2.started,Stimuli_3.stopped,Modo.stopped,Dias2.stopped,Exitos2.stopped,Reward.started,Stimuli_reward.started,Exitos3.started,Dias3.started,Reward.stopped,Stimuli_reward.stopped,Exitos3.stopped,Dias3.stopped,Cue_text.started,Stimuli_4.started,Exitos4.started,Dias4.started,Stimuli_3_3.started,Stimuli_2_3.started,Instrucción.started,N_A.started,N_B.started,N_C.started,Exitos_2.started,Dias_2.started,Stimuli_1_3.started,Stimuli_3_2.started,Stimuli_2_2.started,Pregunta.started,N_A_2.started,N_B_2.started,N_C_2.started,Exitos5.started,Dias5.started,Stimuli_1_2.started,Resp_final_1,Modo2.started,Modo1.started,Pregunta_4.started,Modo3.started,Exitos7.started,Dias6.started,Resp_final_2,Modo1_2.started,Pregunta_3.started,Modo2_2.started,Exitos8.started,Dias7.started,Resp_final_3,Mensaje_Final2.started,Exitos6.started,participant,session,date,expName,psychopyVersion,frameRate,
0,0,0,0,0,0,0,0,32.73840340300001,32.73840340300001,32.73840340300001,32.73840340300001,32.73840340300001,32.73840340300001,32.73840340300001,0,0,0,0,['N_B'],74.88357702600001,74.88357702600001,74.88357702600001,74.88357702600001,76.93715127999997,76.93715127999997,76.93715127999997,76.93715127999997,76.93715127999997,76.93715127999997,76.93715127999997,76.93715127999997,78.97228961899998,78.97228961899998,78.97228961899998,78.97228961899998,,,,,,,,,,,,,,,,,,,,,,,,,,,,,,,,,,,,,,,10,009,2022-09-26_09h00.26.061,test2,2022.2.4,59.975826263427095,
0,0,0,0,1,0,1,0,78.97228961899998,78.97228961899998,78.97228961899998,78.97228961899998,78.97228961899998,78.97228961899998,78.97228961899998,1,-1,azul,1,['N_B'],82.99208548600006,82.99208548600006,82.99208548600006,82.99208548600006,85.029269785,85.029269785,85.029269785,85.029269785,85.029269785,85.029269785,85.029269785,85.029269785,87.06448557199997,87.06448557199997,87.06448557199997,87.06448557199997,,,,,,,,,,,,,,,,,,,,,,,,,,,,,,,,,,,,,,,10,009,2022-09-26_09h00.26.061,test2,2022.2.4,59.975826263427095,
0,0,0,0,2,0,2,0,87.06448557199997,87.06448557199997,87.06448557199997,87.06448557199997,87.06448557199997,87.06448557199997,87.06448557199997,-1,-1,rojo,1,['N_B'],91.33577460200001,91.33577460200001,91.33577460200001,91.33577460200001,93.42181432000007,93.42181432000007,93.42181432000007,93.42181432000007,93.42181432000007,93.42181432000007,93.42181432000007,93.42181432000007,95.45773507800004,95.45773507800004,95.45773507800004,95.45773507800004,,,,,,,,,,,,,,,,,,,,,,,,,,,,,,,,,,,,,,,10,009,2022-09-26_09h00.26.061,test2,2022.2.4,59.975826263427095,
0,0,0,0,3,0,3,0,95.45773507800004,95.45773507800004,95.45773507800004,95.45773507800004,95.45773507800004,95.45773507800004,95.45773507800004,1,1,azul,1,['N_B'],98.861034658,98.861034658,98.861034658,98.861034658,100.87974620900002,100.87974620900002,100.87974620900002,100.87974620900002,100.87974620900002,100.87974620900002,100.87974620900002,100.87974620900002,102.91593835599997,102.91593835599997,102.91593835599997,102.91593835599997,,,,,,,,,,,,,,,,,,,,,,,,,,,,,,,,,,,,,,,10,009,2022-09-26_09h00.26.061,test2,2022.2.4,59.975826263427095,
0,0,0,0,4,0,4,0,102.91593835599997,102.91593835599997,102.91593835599997,102.91593835599997,102.91593835599997,102.91593835599997,102.91593835599997,-1,-1,rojo,1,['N_B'],107.72170441100002,107.72170441100002,107.72170441100002,107.72170441100002,109.75703589,109.75703589,109.75703589,109.75703589,109.75703589,109.75703589,109.75703589,109.75703589,111.77442289400005,111.77442289400005,111.77442289400005,111.77442289400005,,,,,,,,,,,,,,,,,,,,,,,,,,,,,,,,,,,,,,,10,009,2022-09-26_09h00.26.061,test2,2022.2.4,59.975826263427095,
0,0,0,0,5,0,5,0,111.77442289400005,111.77442289400005,111.77442289400005,111.77442289400005,111.77442289400005,111.77442289400005,111.77442289400005,1,-1,azul,0,['N_A'],118.04883938500006,118.04883938500006,118.04883938500006,118.04883938500006,120.08479979200001,120.08479979200001,120.08479979200001,120.08479979200001,120.08479979200001,120.08479979200001,120.08479979200001,120.08479979200001,122.120412095,122.120412095,122.120412095,122.120412095,,,,,,,,,,,,,,,,,,,,,,,,,,,,,,,,,,,,,,,10,009,2022-09-26_09h00.26.061,test2,2022.2.4,59.975826263427095,
0,0,0,0,6,0,6,0,122.120412095,122.120412095,122.120412095,122.120412095,122.120412095,122.120412095,122.120412095,-1,-1,azul,1,['N_A'],124.60481343499998,124.60481343499998,124.60481343499998,124.60481343499998,126.62456352100003,126.62456352100003,126.62456352100003,126.62456352100003,126.62456352100003,126.62456352100003,126.62456352100003,126.62456352100003,128.66065698800003,128.66065698800003,128.66065698800003,128.66065698800003,,,,,,,,,,,,,,,,,,,,,,,,,,,,,,,,,,,,,,,10,009,2022-09-26_09h00.26.061,test2,2022.2.4,59.975826263427095,
0,0,0,0,7,0,7,0,128.66065698800003,128.66065698800003,128.66065698800003,128.66065698800003,128.66065698800003,128.66065698800003,128.66065698800003,-1,1,azul,1,['N_A'],131.34598254800005,131.34598254800005,131.34598254800005,131.34598254800005,133.36525810299997,133.36525810299997,133.36525810299997,133.36525810299997,133.36525810299997,133.36525810299997,133.36525810299997,133.36525810299997,135.40127047800001,135.40127047800001,135.40127047800001,135.40127047800001,,,,,,,,,,,,,,,,,,,,,,,,,,,,,,,,,,,,,,,10,009,2022-09-26_09h00.26.061,test2,2022.2.4,59.975826263427095,
0,0,0,0,8,0,8,0,135.40127047800001,135.40127047800001,135.40127047800001,135.40127047800001,135.40127047800001,135.40127047800001,135.40127047800001,1,-1,rojo,1,['N_A'],137.50421343799997,137.50421343799997,137.50421343799997,137.50421343799997,139.538503837,139.538503837,139.538503837,139.538503837,139.538503837,139.538503837,139.538503837,139.538503837,141.55842825900004,141.55842825900004,141.55842825900004,141.55842825900004,,,,,,,,,,,,,,,,,,,,,,,,,,,,,,,,,,,,,,,10,009,2022-09-26_09h00.26.061,test2,2022.2.4,59.975826263427095,
0,0,0,0,9,0,9,0,141.55842825900004,141.55842825900004,141.55842825900004,141.55842825900004,141.55842825900004,141.55842825900004,141.55842825900004,1,-1,rojo,1,['N_A'],147.29795099900002,147.29795099900002,147.29795099900002,147.29795099900002,149.31537844499996,149.31537844499996,149.31537844499996,149.31537844499996,149.31537844499996,149.31537844499996,149.31537844499996,149.31537844499996,151.33566389600003,151.33566389600003,151.33566389600003,151.33566389600003,,,,,,,,,,,,,,,,,,,,,,,,,,,,,,,,,,,,,,,10,009,2022-09-26_09h00.26.061,test2,2022.2.4,59.975826263427095,
0,0,0,0,10,0,10,0,151.33566389600003,151.33566389600003,151.33566389600003,151.33566389600003,151.33566389600003,151.33566389600003,151.33566389600003,-1,1,azul,1,['N_A'],153.28660195200007,153.28660195200007,153.28660195200007,153.28660195200007,155.30563880500006,155.30563880500006,155.30563880500006,155.30563880500006,155.30563880500006,155.30563880500006,155.30563880500006,155.30563880500006,157.32425503900004,157.32425503900004,157.32425503900004,157.32425503900004,,,,,,,,,,,,,,,,,,,,,,,,,,,,,,,,,,,,,,,10,009,2022-09-26_09h00.26.061,test2,2022.2.4,59.975826263427095,
0,0,0,0,11,0,11,0,157.32425503900004,157.32425503900004,157.32425503900004,157.32425503900004,157.32425503900004,157.32425503900004,157.32425503900004,-1,-1,azul,1,['N_A'],168.95472089500004,168.95472089500004,168.95472089500004,168.95472089500004,170.99064214500004,170.99064214500004,170.99064214500004,170.99064214500004,170.99064214500004,170.99064214500004,170.99064214500004,170.99064214500004,173.00856946099998,173.00856946099998,173.00856946099998,173.00856946099998,,,,,,,,,,,,,,,,,,,,,,,,,,,,,,,,,,,,,,,10,009,2022-09-26_09h00.26.061,test2,2022.2.4,59.975826263427095,
0,0,0,0,12,0,12,0,173.00856946099998,173.00856946099998,173.00856946099998,173.00856946099998,173.00856946099998,173.00856946099998,173.00856946099998,1,-1,rojo,0,['N_B'],175.52874411699997,175.52874411699997,175.52874411699997,175.52874411699997,177.56470026400007,177.56470026400007,177.56470026400007,177.56470026400007,177.56470026400007,177.56470026400007,177.56470026400007,177.56470026400007,179.582885724,179.582885724,179.582885724,179.582885724,,,,,,,,,,,,,,,,,,,,,,,,,,,,,,,,,,,,,,,10,009,2022-09-26_09h00.26.061,test2,2022.2.4,59.975826263427095,
0,0,0,0,13,0,13,0,179.582885724,179.582885724,179.582885724,179.582885724,179.582885724,179.582885724,179.582885724,1,-1,azul,0,['N_A'],182.10321497200005,182.10321497200005,182.10321497200005,182.10321497200005,184.13847713899997,184.13847713899997,184.13847713899997,184.13847713899997,184.13847713899997,184.13847713899997,184.13847713899997,184.13847713899997,186.15696857600005,186.15696857600005,186.15696857600005,186.15696857600005,,,,,,,,,,,,,,,,,,,,,,,,,,,,,,,,,,,,,,,10,009,2022-09-26_09h00.26.061,test2,2022.2.4,59.975826263427095,
0,0,0,0,14,0,14,0,186.15696857600005,186.15696857600005,186.15696857600005,186.15696857600005,186.15696857600005,186.15696857600005,186.15696857600005,1,-1,rojo,0,['N_B'],188.57562743100004,188.57562743100004,188.57562743100004,188.57562743100004,190.59550268600003,190.59550268600003,190.59550268600003,190.59550268600003,190.59550268600003,190.59550268600003,190.59550268600003,190.59550268600003,192.61413885399998,192.61413885399998,192.61413885399998,192.61413885399998,,,,,,,,,,,,,,,,,,,,,,,,,,,,,,,,,,,,,,,10,009,2022-09-26_09h00.26.061,test2,2022.2.4,59.975826263427095,
0,0,0,0,15,0,15,0,192.61413885399998,192.61413885399998,192.61413885399998,192.61413885399998,192.61413885399998,192.61413885399998,192.61413885399998,1,1,azul,1,['N_B'],194.93316064500004,194.93316064500004,194.93316064500004,194.93316064500004,196.95158435200005,196.95158435200005,196.95158435200005,196.95158435200005,196.95158435200005,196.95158435200005,196.95158435200005,196.95158435200005,198.97022967500004,198.97022967500004,198.97022967500004,198.97022967500004,,,,,,,,,,,,,,,,,,,,,,,,,,,,,,,,,,,,,,,10,009,2022-09-26_09h00.26.061,test2,2022.2.4,59.975826263427095,
0,0,0,0,16,0,16,0,198.97022967500004,198.97022967500004,198.97022967500004,198.97022967500004,198.97022967500004,198.97022967500004,198.97022967500004,-1,-1,rojo,0,['N_A'],200.77299414499998,200.77299414499998,200.77299414499998,200.77299414499998,202.80857167,202.80857167,202.80857167,202.80857167,202.80857167,202.80857167,202.80857167,202.80857167,204.82788143900007,204.82788143900007,204.82788143900007,204.82788143900007,,,,,,,,,,,,,,,,,,,,,,,,,,,,,,,,,,,,,,,10,009,2022-09-26_09h00.26.061,test2,2022.2.4,59.975826263427095,
0,0,0,0,17,0,17,0,204.82788143900007,204.82788143900007,204.82788143900007,204.82788143900007,204.82788143900007,204.82788143900007,204.82788143900007,1,-1,rojo,0,['N_B'],206.74525144200004,206.74525144200004,206.74525144200004,206.74525144200004,208.76469645600002,208.76469645600002,208.76469645600002,208.76469645600002,208.76469645600002,208.76469645600002,208.76469645600002,208.76469645600002,210.783058127,210.783058127,210.783058127,210.783058127,,,,,,,,,,,,,,,,,,,,,,,,,,,,,,,,,,,,,,,10,009,2022-09-26_09h00.26.061,test2,2022.2.4,59.975826263427095,
0,0,0,0,18,0,18,0,210.783058127,210.783058127,210.783058127,210.783058127,210.783058127,210.783058127,210.783058127,1,1,azul,1,['N_B'],212.61866166599998,212.61866166599998,212.61866166599998,212.61866166599998,214.63856622100002,214.63856622100002,214.63856622100002,214.63856622100002,214.63856622100002,214.63856622100002,214.63856622100002,214.63856622100002,216.65620083400006,216.65620083400006,216.65620083400006,216.65620083400006,,,,,,,,,,,,,,,,,,,,,,,,,,,,,,,,,,,,,,,10,009,2022-09-26_09h00.26.061,test2,2022.2.4,59.975826263427095,
0,0,0,0,19,0,19,0,216.65620083400006,216.65620083400006,216.65620083400006,216.65620083400006,216.65620083400006,216.65620083400006,216.65620083400006,1,1,azul,1,['N_B'],218.45933532800007,218.45933532800007,218.45933532800007,218.45933532800007,220.47799193599997,220.47799193599997,220.47799193599997,220.47799193599997,220.47799193599997,220.47799193599997,220.47799193599997,220.47799193599997,222.49703327500004,222.49703327500004,222.49703327500004,222.49703327500004,,,,,,,,,,,,,,,,,,,,,,,,,,,,,,,,,,,,,,,10,009,2022-09-26_09h00.26.061,test2,2022.2.4,59.975826263427095,
0,0,0,0,20,0,20,0,222.49703327500004,222.49703327500004,222.49703327500004,222.49703327500004,222.49703327500004,222.49703327500004,222.49703327500004,1,-1,azul,0,['N_A'],224.983176652,224.983176652,224.983176652,224.983176652,227.01865739000004,227.01865739000004,227.01865739000004,227.01865739000004,227.01865739000004,227.01865739000004,227.01865739000004,227.01865739000004,229.03687338200007,229.03687338200007,229.03687338200007,229.03687338200007,,,,,,,,,,,,,,,,,,,,,,,,,,,,,,,,,,,,,,,10,009,2022-09-26_09h00.26.061,test2,2022.2.4,59.975826263427095,
0,0,0,0,21,0,21,0,229.03687338200007,229.03687338200007,229.03687338200007,229.03687338200007,229.03687338200007,229.03687338200007,229.03687338200007,-1,-1,azul,0,['N_B'],230.78873230700003,230.78873230700003,230.78873230700003,230.78873230700003,232.80807487200002,232.80807487200002,232.80807487200002,232.80807487200002,232.80807487200002,232.80807487200002,232.80807487200002,232.80807487200002,234.82696527500002,234.82696527500002,234.82696527500002,234.82696527500002,,,,,,,,,,,,,,,,,,,,,,,,,,,,,,,,,,,,,,,10,009,2022-09-26_09h00.26.061,test2,2022.2.4,59.975826263427095,
0,0,0,0,22,0,22,0,234.82696527500002,234.82696527500002,234.82696527500002,234.82696527500002,234.82696527500002,234.82696527500002,234.82696527500002,-1,1,rojo,1,['N_B'],236.695816918,236.695816918,236.695816918,236.695816918,238.71459627900003,238.71459627900003,238.71459627900003,238.71459627900003,238.71459627900003,238.71459627900003,238.71459627900003,238.71459627900003,240.73354499599998,240.73354499599998,240.73354499599998,240.73354499599998,,,,,,,,,,,,,,,,,,,,,,,,,,,,,,,,,,,,,,,10,009,2022-09-26_09h00.26.061,test2,2022.2.4,59.975826263427095,
0,0,0,0,23,0,23,0,240.73354499599998,240.73354499599998,240.73354499599998,240.73354499599998,240.73354499599998,240.73354499599998,240.73354499599998,1,1,azul,1,['N_B'],242.284802722,242.284802722,242.284802722,242.284802722,244.30463973100007,244.30463973100007,244.30463973100007,244.30463973100007,244.30463973100007,244.30463973100007,244.30463973100007,244.30463973100007,246.32336233900003,246.32336233900003,246.32336233900003,246.32336233900003,,,,,,,,,,,,,,,,,,,,,,,,,,,,,,,,,,,,,,,10,009,2022-09-26_09h00.26.061,test2,2022.2.4,59.975826263427095,
0,0,0,0,24,0,24,0,246.32336233900003,246.32336233900003,246.32336233900003,246.32336233900003,246.32336233900003,246.32336233900003,246.32336233900003,1,1,azul,1,['N_B'],248.32515443800003,248.32515443800003,248.32515443800003,248.32515443800003,250.34384978000003,250.34384978000003,250.34384978000003,250.34384978000003,250.34384978000003,250.34384978000003,250.34384978000003,250.34384978000003,252.36225124300006,252.36225124300006,252.36225124300006,252.36225124300006,,,,,,,,,,,,,,,,,,,,,,,,,,,,,,,,,,,,,,,10,009,2022-09-26_09h00.26.061,test2,2022.2.4,59.975826263427095,
0,0,0,0,25,0,25,0,252.36225124300006,252.36225124300006,252.36225124300006,252.36225124300006,252.36225124300006,252.36225124300006,252.36225124300006,1,1,azul,1,['N_B'],253.94908874700002,253.94908874700002,253.94908874700002,253.94908874700002,255.96745723900005,255.96745723900005,255.96745723900005,255.96745723900005,255.96745723900005,255.96745723900005,255.96745723900005,255.96745723900005,257.985678213,257.985678213,257.985678213,257.985678213,,,,,,,,,,,,,,,,,,,,,,,,,,,,,,,,,,,,,,,10,009,2022-09-26_09h00.26.061,test2,2022.2.4,59.975826263427095,
0,0,0,0,26,0,26,0,257.985678213,257.985678213,257.985678213,257.985678213,257.985678213,257.985678213,257.985678213,1,-1,azul,0,['N_A'],260.77239003400007,260.77239003400007,260.77239003400007,260.77239003400007,262.80826028800004,262.80826028800004,262.80826028800004,262.80826028800004,262.80826028800004,262.80826028800004,262.80826028800004,262.80826028800004,264.826939959,264.826939959,264.826939959,264.826939959,,,,,,,,,,,,,,,,,,,,,,,,,,,,,,,,,,,,,,,10,009,2022-09-26_09h00.26.061,test2,2022.2.4,59.975826263427095,
0,0,0,0,27,0,27,0,264.826939959,264.826939959,264.826939959,264.826939959,264.826939959,264.826939959,264.826939959,1,-1,rojo,0,['N_B'],266.527953464,266.527953464,266.527953464,266.527953464,268.564388464,268.564388464,268.564388464,268.564388464,268.564388464,268.564388464,268.564388464,268.564388464,270.58231071,270.58231071,270.58231071,270.58231071,,,,,,,,,,,,,,,,,,,,,,,,,,,,,,,,,,,,,,,10,009,2022-09-26_09h00.26.061,test2,2022.2.4,59.975826263427095,
0,0,0,0,28,0,28,0,270.58231071,270.58231071,270.58231071,270.58231071,270.58231071,270.58231071,270.58231071,1,-1,azul,0,['N_A'],273.352069272,273.352069272,273.352069272,273.352069272,275.389038033,275.389038033,275.389038033,275.389038033,275.389038033,275.389038033,275.389038033,275.389038033,277.407214211,277.407214211,277.407214211,277.407214211,,,,,,,,,,,,,,,,,,,,,,,,,,,,,,,,,,,,,,,10,009,2022-09-26_09h00.26.061,test2,2022.2.4,59.975826263427095,
0,0,0,0,29,0,29,0,277.407214211,277.407214211,277.407214211,277.407214211,277.407214211,277.407214211,277.407214211,1,-1,rojo,0,['N_B'],279.97674837700004,279.97674837700004,279.97674837700004,279.97674837700004,281.99502523800004,281.99502523800004,281.99502523800004,281.99502523800004,281.99502523800004,281.99502523800004,281.99502523800004,281.99502523800004,284.014046042,284.014046042,284.014046042,284.014046042,,,,,,,,,,,,,,,,,,,,,,,,,,,,,,,,,,,,,,,10,009,2022-09-26_09h00.26.061,test2,2022.2.4,59.975826263427095,
0,0,0,0,30,0,30,0,284.014046042,284.014046042,284.014046042,284.014046042,284.014046042,284.014046042,284.014046042,1,1,azul,1,['N_B'],286.05016105000004,286.05016105000004,286.05016105000004,286.05016105000004,288.06869580600005,288.06869580600005,288.06869580600005,288.06869580600005,288.06869580600005,288.06869580600005,288.06869580600005,288.06869580600005,290.088210151,290.088210151,290.088210151,290.088210151,,,,,,,,,,,,,,,,,,,,,,,,,,,,,,,,,,,,,,,10,009,2022-09-26_09h00.26.061,test2,2022.2.4,59.975826263427095,
0,0,0,0,31,0,31,0,290.088210151,290.088210151,290.088210151,290.088210151,290.088210151,290.088210151,290.088210151,1,-1,azul,0,['N_A'],292.540081837,292.540081837,292.540081837,292.540081837,294.576777914,294.576777914,294.576777914,294.576777914,294.576777914,294.576777914,294.576777914,294.576777914,296.59506818400007,296.59506818400007,296.59506818400007,296.59506818400007,,,,,,,,,,,,,,,,,,,,,,,,,,,,,,,,,,,,,,,10,009,2022-09-26_09h00.26.061,test2,2022.2.4,59.975826263427095,
0,0,0,0,32,0,32,0,296.59506818400007,296.59506818400007,296.59506818400007,296.59506818400007,296.59506818400007,296.59506818400007,296.59506818400007,1,-1,rojo,0,['N_B'],298.046602744,298.046602744,298.046602744,298.046602744,300.08268460700003,300.08268460700003,300.08268460700003,300.08268460700003,300.08268460700003,300.08268460700003,300.08268460700003,300.08268460700003,302.101791425,302.101791425,302.101791425,302.101791425,,,,,,,,,,,,,,,,,,,,,,,,,,,,,,,,,,,,,,,10,009,2022-09-26_09h00.26.061,test2,2022.2.4,59.975826263427095,
0,0,0,0,33,0,33,0,302.101791425,302.101791425,302.101791425,302.101791425,302.101791425,302.101791425,302.101791425,-1,-1,rojo,0,['N_A'],304.019695482,304.019695482,304.019695482,304.019695482,306.056325444,306.056325444,306.056325444,306.056325444,306.056325444,306.056325444,306.056325444,306.056325444,308.07490994600005,308.07490994600005,308.07490994600005,308.07490994600005,,,,,,,,,,,,,,,,,,,,,,,,,,,,,,,,,,,,,,,10,009,2022-09-26_09h00.26.061,test2,2022.2.4,59.975826263427095,
0,0,0,0,34,0,34,0,308.07490994600005,308.07490994600005,308.07490994600005,308.07490994600005,308.07490994600005,308.07490994600005,308.07490994600005,1,-1,rojo,0,['N_B'],311.228323003,311.228323003,311.228323003,311.228323003,313.24655092500007,313.24655092500007,313.24655092500007,313.24655092500007,313.24655092500007,313.24655092500007,313.24655092500007,313.24655092500007,315.26503639500004,315.26503639500004,315.26503639500004,315.26503639500004,,,,,,,,,,,,,,,,,,,,,,,,,,,,,,,,,,,,,,,10,009,2022-09-26_09h00.26.061,test2,2022.2.4,59.975826263427095,
0,0,0,0,35,0,35,0,315.26503639500004,315.26503639500004,315.26503639500004,315.26503639500004,315.26503639500004,315.26503639500004,315.26503639500004,-1,1,rojo,1,['N_B'],316.96937088799996,316.96937088799996,316.96937088799996,316.96937088799996,318.987059756,318.987059756,318.987059756,318.987059756,318.987059756,318.987059756,318.987059756,318.987059756,321.00568136900006,321.00568136900006,321.00568136900006,321.00568136900006,,,,,,,,,,,,,,,,,,,,,,,,,,,,,,,,,,,,,,,10,009,2022-09-26_09h00.26.061,test2,2022.2.4,59.975826263427095,
0,0,0,0,36,0,36,0,321.00568136900006,321.00568136900006,321.00568136900006,321.00568136900006,321.00568136900006,321.00568136900006,321.00568136900006,1,1,azul,1,['N_B'],322.82429089699997,322.82429089699997,322.82429089699997,322.82429089699997,324.843585963,324.843585963,324.843585963,324.843585963,324.843585963,324.843585963,324.843585963,324.843585963,326.86156768500007,326.86156768500007,326.86156768500007,326.86156768500007,,,,,,,,,,,,,,,,,,,,,,,,,,,,,,,,,,,,,,,10,009,2022-09-26_09h00.26.061,test2,2022.2.4,59.975826263427095,
0,0,0,0,37,0,37,0,326.86156768500007,326.86156768500007,326.86156768500007,326.86156768500007,326.86156768500007,326.86156768500007,326.86156768500007,-1,-1,rojo,0,['N_A'],329.782863225,329.782863225,329.782863225,329.782863225,331.81755361700004,331.81755361700004,331.81755361700004,331.81755361700004,331.81755361700004,331.81755361700004,331.81755361700004,331.81755361700004,333.836181398,333.836181398,333.836181398,333.836181398,,,,,,,,,,,,,,,,,,,,,,,,,,,,,,,,,,,,,,,10,009,2022-09-26_09h00.26.061,test2,2022.2.4,59.975826263427095,
0,0,0,0,38,0,38,0,333.836181398,333.836181398,333.836181398,333.836181398,333.836181398,333.836181398,333.836181398,1,-1,rojo,0,['N_B'],335.906582101,335.906582101,335.906582101,335.906582101,337.940945275,337.940945275,337.940945275,337.940945275,337.940945275,337.940945275,337.940945275,337.940945275,339.95981271200003,339.95981271200003,339.95981271200003,339.95981271200003,,,,,,,,,,,,,,,,,,,,,,,,,,,,,,,,,,,,,,,10,009,2022-09-26_09h00.26.061,test2,2022.2.4,59.975826263427095,
0,0,0,0,39,0,39,0,339.95981271200003,339.95981271200003,339.95981271200003,339.95981271200003,339.95981271200003,339.95981271200003,339.95981271200003,-1,-1,rojo,0,['N_A'],341.56080032700004,341.56080032700004,341.56080032700004,341.56080032700004,343.597484087,343.597484087,343.597484087,343.597484087,343.597484087,343.597484087,343.597484087,343.597484087,345.616038815,345.616038815,345.616038815,345.616038815,,,,,,,,,,,,,,,,,,,,,,,,,,,,,,,,,,,,,,,10,009,2022-09-26_09h00.26.061,test2,2022.2.4,59.975826263427095,
0,0,0,0,40,0,40,0,345.616038815,345.616038815,345.616038815,345.616038815,345.616038815,345.616038815,345.616038815,1,-1,rojo,0,['N_B'],347.150721879,347.150721879,347.150721879,347.150721879,349.18696755999997,349.18696755999997,349.18696755999997,349.18696755999997,349.18696755999997,349.18696755999997,349.18696755999997,349.18696755999997,351.20516066100004,351.20516066100004,351.20516066100004,351.20516066100004,,,,,,,,,,,,,,,,,,,,,,,,,,,,,,,,,,,,,,,10,009,2022-09-26_09h00.26.061,test2,2022.2.4,59.975826263427095,
0,0,0,0,41,0,41,0,351.20516066100004,351.20516066100004,351.20516066100004,351.20516066100004,351.20516066100004,351.20516066100004,351.20516066100004,1,-1,azul,0,['N_A'],353.15686460899997,353.15686460899997,353.15686460899997,353.15686460899997,355.19330557500007,355.19330557500007,355.19330557500007,355.19330557500007,355.19330557500007,355.19330557500007,355.19330557500007,355.19330557500007,357.211242511,357.211242511,357.211242511,357.211242511,,,,,,,,,,,,,,,,,,,,,,,,,,,,,,,,,,,,,,,10,009,2022-09-26_09h00.26.061,test2,2022.2.4,59.975826263427095,
0,0,0,0,42,0,42,0,357.211242511,357.211242511,357.211242511,357.211242511,357.211242511,357.211242511,357.211242511,1,-1,rojo,0,['N_B'],358.74670440400007,358.74670440400007,358.74670440400007,358.74670440400007,360.783319808,360.783319808,360.783319808,360.783319808,360.783319808,360.783319808,360.783319808,360.783319808,362.801740267,362.801740267,362.801740267,362.801740267,,,,,,,,,,,,,,,,,,,,,,,,,,,,,,,,,,,,,,,10,009,2022-09-26_09h00.26.061,test2,2022.2.4,59.975826263427095,
0,0,0,0,43,0,43,0,362.801740267,362.801740267,362.801740267,362.801740267,362.801740267,362.801740267,362.801740267,-1,-1,rojo,0,['N_A'],364.87157482099997,364.87157482099997,364.87157482099997,364.87157482099997,366.90679518600007,366.90679518600007,366.90679518600007,366.90679518600007,366.90679518600007,366.90679518600007,366.90679518600007,366.90679518600007,368.92516214299997,368.92516214299997,368.92516214299997,368.92516214299997,,,,,,,,,,,,,,,,,,,,,,,,,,,,,,,,,,,,,,,10,009,2022-09-26_09h00.26.061,test2,2022.2.4,59.975826263427095,
0,0,0,0,44,0,44,0,368.92516214299997,368.92516214299997,368.92516214299997,368.92516214299997,368.92516214299997,368.92516214299997,368.92516214299997,-1,-1,azul,0,['N_B'],370.74342225399994,370.74342225399994,370.74342225399994,370.74342225399994,372.7792215170001,372.7792215170001,372.7792215170001,372.7792215170001,372.7792215170001,372.7792215170001,372.7792215170001,372.7792215170001,374.79755220000004,374.79755220000004,374.79755220000004,374.79755220000004,,,,,,,,,,,,,,,,,,,,,,,,,,,,,,,,,,,,,,,10,009,2022-09-26_09h00.26.061,test2,2022.2.4,59.975826263427095,
0,0,0,0,45,0,45,0,374.79755220000004,374.79755220000004,374.79755220000004,374.79755220000004,374.79755220000004,374.79755220000004,374.79755220000004,1,-1,azul,0,['N_A'],376.316227443,376.316227443,376.316227443,376.316227443,378.3518552940001,378.3518552940001,378.3518552940001,378.3518552940001,378.3518552940001,378.3518552940001,378.3518552940001,378.3518552940001,380.37098826,380.37098826,380.37098826,380.37098826,,,,,,,,,,,,,,,,,,,,,,,,,,,,,,,,,,,,,,,10,009,2022-09-26_09h00.26.061,test2,2022.2.4,59.975826263427095,
0,0,0,0,46,0,46,0,380.37098826,380.37098826,380.37098826,380.37098826,380.37098826,380.37098826,380.37098826,1,-1,rojo,0,['N_B'],383.1569798669999,383.1569798669999,383.1569798669999,383.1569798669999,385.19336621900004,385.19336621900004,385.19336621900004,385.19336621900004,385.19336621900004,385.19336621900004,385.19336621900004,385.19336621900004,387.21219295799995,387.21219295799995,387.21219295799995,387.21219295799995,,,,,,,,,,,,,,,,,,,,,,,,,,,,,,,,,,,,,,,10,009,2022-09-26_09h00.26.061,test2,2022.2.4,59.975826263427095,
0,0,0,0,47,0,47,0,387.21219295799995,387.21219295799995,387.21219295799995,387.21219295799995,387.21219295799995,387.21219295799995,387.21219295799995,1,-1,azul,0,['N_A'],388.94642402400007,388.94642402400007,388.94642402400007,388.94642402400007,390.982675997,390.982675997,390.982675997,390.982675997,390.982675997,390.982675997,390.982675997,390.982675997,393.00124326699995,393.00124326699995,393.00124326699995,393.00124326699995,,,,,,,,,,,,,,,,,,,,,,,,,,,,,,,,,,,,,,,10,009,2022-09-26_09h00.26.061,test2,2022.2.4,59.975826263427095,
0,0,0,0,48,0,48,0,393.00124326699995,393.00124326699995,393.00124326699995,393.00124326699995,393.00124326699995,393.00124326699995,393.00124326699995,1,-1,rojo,0,['N_B'],394.70353615500005,394.70353615500005,394.70353615500005,394.70353615500005,396.73925569999994,396.73925569999994,396.73925569999994,396.73925569999994,396.73925569999994,396.73925569999994,396.73925569999994,396.73925569999994,398.758383041,398.758383041,398.758383041,398.758383041,,,,,,,,,,,,,,,,,,,,,,,,,,,,,,,,,,,,,,,10,009,2022-09-26_09h00.26.061,test2,2022.2.4,59.975826263427095,
0,0,0,0,49,0,49,0,398.758383041,398.758383041,398.758383041,398.758383041,398.758383041,398.758383041,398.758383041,1,-1,azul,0,['N_A'],401.3938086290001,401.3938086290001,401.3938086290001,401.3938086290001,403.43054203300005,403.43054203300005,403.43054203300005,403.43054203300005,403.43054203300005,403.43054203300005,403.43054203300005,403.43054203300005,405.44876382199993,405.44876382199993,405.44876382199993,405.44876382199993,,,,,,,,,,,,,,,,,,,,,,,,,,,,,,,,,,,,,,,10,009,2022-09-26_09h00.26.061,test2,2022.2.4,59.975826263427095,
0,0,0,0,50,0,50,0,405.44876382199993,405.44876382199993,405.44876382199993,405.44876382199993,405.44876382199993,405.44876382199993,405.44876382199993,1,-1,rojo,0,['N_B'],407.20123659600006,407.20123659600006,407.20123659600006,407.20123659600006,409.23670223500005,409.23670223500005,409.23670223500005,409.23670223500005,409.23670223500005,409.23670223500005,409.23670223500005,409.23670223500005,411.25546121700006,411.25546121700006,411.25546121700006,411.25546121700006,,,,,,,,,,,,,,,,,,,,,,,,,,,,,,,,,,,,,,,10,009,2022-09-26_09h00.26.061,test2,2022.2.4,59.975826263427095,
0,0,0,0,51,0,51,0,411.25546121700006,411.25546121700006,411.25546121700006,411.25546121700006,411.25546121700006,411.25546121700006,411.25546121700006,1,-1,azul,0,['N_A'],413.8577128190001,413.8577128190001,413.8577128190001,413.8577128190001,415.89443703099994,415.89443703099994,415.89443703099994,415.89443703099994,415.89443703099994,415.89443703099994,415.89443703099994,415.89443703099994,417.93002489,417.93002489,417.93002489,417.93002489,,,,,,,,,,,,,,,,,,,,,,,,,,,,,,,,,,,,,,,10,009,2022-09-26_09h00.26.061,test2,2022.2.4,59.975826263427095,
0,0,0,0,52,0,52,0,417.93002489,417.93002489,417.93002489,417.93002489,417.93002489,417.93002489,417.93002489,1,-1,rojo,0,['N_B'],418.9299965470001,418.9299965470001,418.9299965470001,418.9299965470001,420.9663542720001,420.9663542720001,420.9663542720001,420.9663542720001,420.9663542720001,420.9663542720001,420.9663542720001,420.9663542720001,422.9845138950001,422.9845138950001,422.9845138950001,422.9845138950001,,,,,,,,,,,,,,,,,,,,,,,,,,,,,,,,,,,,,,,10,009,2022-09-26_09h00.26.061,test2,2022.2.4,59.975826263427095,
0,0,0,0,53,0,53,0,422.9845138950001,422.9845138950001,422.9845138950001,422.9845138950001,422.9845138950001,422.9845138950001,422.9845138950001,-1,-1,rojo,0,['N_A'],424.4203359290001,424.4203359290001,424.4203359290001,424.4203359290001,426.4554260829999,426.4554260829999,426.4554260829999,426.4554260829999,426.4554260829999,426.4554260829999,426.4554260829999,426.4554260829999,428.474280648,428.474280648,428.474280648,428.474280648,,,,,,,,,,,,,,,,,,,,,,,,,,,,,,,,,,,,,,,10,009,2022-09-26_09h00.26.061,test2,2022.2.4,59.975826263427095,
0,0,0,0,54,0,54,0,428.474280648,428.474280648,428.474280648,428.474280648,428.474280648,428.474280648,428.474280648,1,-1,rojo,0,['N_B'],430.059235392,430.059235392,430.059235392,430.059235392,432.09536865100006,432.09536865100006,432.09536865100006,432.09536865100006,432.09536865100006,432.09536865100006,432.09536865100006,432.09536865100006,434.11398704500004,434.11398704500004,434.11398704500004,434.11398704500004,,,,,,,,,,,,,,,,,,,,,,,,,,,,,,,,,,,,,,,10,009,2022-09-26_09h00.26.061,test2,2022.2.4,59.975826263427095,
0,0,0,0,55,0,55,0,434.11398704500004,434.11398704500004,434.11398704500004,434.11398704500004,434.11398704500004,434.11398704500004,434.11398704500004,1,-1,azul,0,['N_A'],436.633596453,436.633596453,436.633596453,436.633596453,438.6705705769999,438.6705705769999,438.6705705769999,438.6705705769999,438.6705705769999,438.6705705769999,438.6705705769999,438.6705705769999,440.68827861400007,440.68827861400007,440.68827861400007,440.68827861400007,,,,,,,,,,,,,,,,,,,,,,,,,,,,,,,,,,,,,,,10,009,2022-09-26_09h00.26.061,test2,2022.2.4,59.975826263427095,
0,0,0,0,56,0,56,0,440.68827861400007,440.68827861400007,440.68827861400007,440.68827861400007,440.68827861400007,440.68827861400007,440.68827861400007,1,-1,rojo,0,['N_B'],442.272812735,442.272812735,442.272812735,442.272812735,444.3084680390001,444.3084680390001,444.3084680390001,444.3084680390001,444.3084680390001,444.3084680390001,444.3084680390001,444.3084680390001,446.32681239500005,446.32681239500005,446.32681239500005,446.32681239500005,,,,,,,,,,,,,,,,,,,,,,,,,,,,,,,,,,,,,,,10,009,2022-09-26_09h00.26.061,test2,2022.2.4,59.975826263427095,
0,0,0,0,57,0,57,0,446.32681239500005,446.32681239500005,446.32681239500005,446.32681239500005,446.32681239500005,446.32681239500005,446.32681239500005,1,-1,azul,1,['N_B'],447.84492644599993,447.84492644599993,447.84492644599993,447.84492644599993,449.88183368700004,449.88183368700004,449.88183368700004,449.88183368700004,449.88183368700004,449.88183368700004,449.88183368700004,449.88183368700004,451.8991131900001,451.8991131900001,451.8991131900001,451.8991131900001,,,,,,,,,,,,,,,,,,,,,,,,,,,,,,,,,,,,,,,10,009,2022-09-26_09h00.26.061,test2,2022.2.4,59.975826263427095,
0,0,0,0,58,0,58,0,451.8991131900001,451.8991131900001,451.8991131900001,451.8991131900001,451.8991131900001,451.8991131900001,451.8991131900001,1,-1,azul,1,['N_B'],453.317824759,453.317824759,453.317824759,453.317824759,455.3539051209999,455.3539051209999,455.3539051209999,455.3539051209999,455.3539051209999,455.3539051209999,455.3539051209999,455.3539051209999,457.3720741390001,457.3720741390001,457.3720741390001,457.3720741390001,,,,,,,,,,,,,,,,,,,,,,,,,,,,,,,,,,,,,,,10,009,2022-09-26_09h00.26.061,test2,2022.2.4,59.975826263427095,
0,0,0,0,59,0,59,0,457.3720741390001,457.3720741390001,457.3720741390001,457.3720741390001,457.3720741390001,457.3720741390001,457.3720741390001,1,-1,azul,1,['N_B'],458.79079000700006,458.79079000700006,458.79079000700006,458.79079000700006,460.82709404600007,460.82709404600007,460.82709404600007,460.82709404600007,460.82709404600007,460.82709404600007,460.82709404600007,460.82709404600007,462.8448451969999,462.8448451969999,462.8448451969999,462.8448451969999,,,,,,,,,,,,,,,,,,,,,,,,,,,,,,,,,,,,,,,10,009,2022-09-26_09h00.26.061,test2,2022.2.4,59.975826263427095,
0,0,0,0,60,0,60,0,462.8448451969999,462.8448451969999,462.8448451969999,462.8448451969999,462.8448451969999,462.8448451969999,462.8448451969999,1,-1,azul,1,['N_B'],465.030280049,465.030280049,465.030280049,465.030280049,467.06685857700006,467.06685857700006,467.06685857700006,467.06685857700006,467.06685857700006,467.06685857700006,467.06685857700006,467.06685857700006,469.085888575,469.085888575,469.085888575,469.085888575,,,,,,,,,,,,,,,,,,,,,,,,,,,,,,,,,,,,,,,10,009,2022-09-26_09h00.26.061,test2,2022.2.4,59.975826263427095,
0,0,0,0,61,0,61,0,469.085888575,469.085888575,469.085888575,469.085888575,469.085888575,469.085888575,469.085888575,-1,-1,rojo,0,['N_A'],471.6711988789999,471.6711988789999,471.6711988789999,471.6711988789999,473.70786221700007,473.70786221700007,473.70786221700007,473.70786221700007,473.70786221700007,473.70786221700007,473.70786221700007,473.70786221700007,475.725876008,475.725876008,475.725876008,475.725876008,,,,,,,,,,,,,,,,,,,,,,,,,,,,,,,,,,,,,,,10,009,2022-09-26_09h00.26.061,test2,2022.2.4,59.975826263427095,
0,0,0,0,62,0,62,0,475.725876008,475.725876008,475.725876008,475.725876008,475.725876008,475.725876008,475.725876008,1,-1,rojo,1,['N_A'],476.8432895290001,476.8432895290001,476.8432895290001,476.8432895290001,478.88052078,478.88052078,478.88052078,478.88052078,478.88052078,478.88052078,478.88052078,478.88052078,480.898133668,480.898133668,480.898133668,480.898133668,,,,,,,,,,,,,,,,,,,,,,,,,,,,,,,,,,,,,,,10,009,2022-09-26_09h00.26.061,test2,2022.2.4,59.975826263427095,
0,0,0,0,63,0,63,0,480.898133668,480.898133668,480.898133668,480.898133668,480.898133668,480.898133668,480.898133668,1,-1,rojo,1,['N_A'],482.3335904250001,482.3335904250001,482.3335904250001,482.3335904250001,484.369709254,484.369709254,484.369709254,484.369709254,484.369709254,484.369709254,484.369709254,484.369709254,486.3879946840001,486.3879946840001,486.3879946840001,486.3879946840001,,,,,,,,,,,,,,,,,,,,,,,,,,,,,,,,,,,,,,,10,009,2022-09-26_09h00.26.061,test2,2022.2.4,59.975826263427095,
0,0,0,0,64,0,64,0,486.3879946840001,486.3879946840001,486.3879946840001,486.3879946840001,486.3879946840001,486.3879946840001,486.3879946840001,1,-1,rojo,1,['N_A'],489.7084511480001,489.7084511480001,489.7084511480001,489.7084511480001,491.74423949899995,491.74423949899995,491.74423949899995,491.74423949899995,491.74423949899995,491.74423949899995,491.74423949899995,491.74423949899995,493.7624339360001,493.7624339360001,493.7624339360001,493.7624339360001,,,,,,,,,,,,,,,,,,,,,,,,,,,,,,,,,,,,,,,10,009,2022-09-26_09h00.26.061,test2,2022.2.4,59.975826263427095,
0,0,0,0,65,0,65,0,493.7624339360001,493.7624339360001,493.7624339360001,493.7624339360001,493.7624339360001,493.7624339360001,493.7624339360001,-1,-1,azul,0,['N_B'],495.248169116,495.248169116,495.248169116,495.248169116,497.2670636020001,497.2670636020001,497.2670636020001,497.2670636020001,497.2670636020001,497.2670636020001,497.2670636020001,497.2670636020001,499.2847127829999,499.2847127829999,499.2847127829999,499.2847127829999,,,,,,,,,,,,,,,,,,,,,,,,,,,,,,,,,,,,,,,10,009,2022-09-26_09h00.26.061,test2,2022.2.4,59.975826263427095,
0,0,0,0,66,0,66,0,499.2847127829999,499.2847127829999,499.2847127829999,499.2847127829999,499.2847127829999,499.2847127829999,499.2847127829999,1,1,azul,1,['N_B'],501.25363141700007,501.25363141700007,501.25363141700007,501.25363141700007,503.2729741500001,503.2729741500001,503.2729741500001,503.2729741500001,503.2729741500001,503.2729741500001,503.2729741500001,503.2729741500001,505.29137253600004,505.29137253600004,505.29137253600004,505.29137253600004,,,,,,,,,,,,,,,,,,,,,,,,,,,,,,,,,,,,,,,10,009,2022-09-26_09h00.26.061,test2,2022.2.4,59.975826263427095,
0,0,0,0,67,0,67,0,505.29137253600004,505.29137253600004,505.29137253600004,505.29137253600004,505.29137253600004,505.29137253600004,505.29137253600004,1,-1,azul,1,['N_B'],508.09467678499993,508.09467678499993,508.09467678499993,508.09467678499993,510.1315600040001,510.1315600040001,510.1315600040001,510.1315600040001,510.1315600040001,510.1315600040001,510.1315600040001,510.1315600040001,512.1490956030001,512.1490956030001,512.1490956030001,512.1490956030001,,,,,,,,,,,,,,,,,,,,,,,,,,,,,,,,,,,,,,,10,009,2022-09-26_09h00.26.061,test2,2022.2.4,59.975826263427095,
0,0,0,0,68,0,68,0,512.1490956030001,512.1490956030001,512.1490956030001,512.1490956030001,512.1490956030001,512.1490956030001,512.1490956030001,1,-1,azul,1,['N_B'],513.700790538,513.700790538,513.700790538,513.700790538,515.73753873,515.73753873,515.73753873,515.73753873,515.73753873,515.73753873,515.73753873,515.73753873,517.7561102809999,517.7561102809999,517.7561102809999,517.7561102809999,,,,,,,,,,,,,,,,,,,,,,,,,,,,,,,,,,,,,,,10,009,2022-09-26_09h00.26.061,test2,2022.2.4,59.975826263427095,
0,0,0,0,69,0,69,0,517.7561102809999,517.7561102809999,517.7561102809999,517.7561102809999,517.7561102809999,517.7561102809999,517.7561102809999,1,-1,azul,0,['N_A'],520.4248867160001,520.4248867160001,520.4248867160001,520.4248867160001,522.461130049,522.461130049,522.461130049,522.461130049,522.461130049,522.461130049,522.461130049,522.461130049,524.4794072159999,524.4794072159999,524.4794072159999,524.4794072159999,,,,,,,,,,,,,,,,,,,,,,,,,,,,,,,,,,,,,,,10,009,2022-09-26_09h00.26.061,test2,2022.2.4,59.975826263427095,
0,0,0,0,70,0,70,0,524.4794072159999,524.4794072159999,524.4794072159999,524.4794072159999,524.4794072159999,524.4794072159999,524.4794072159999,-1,-1,azul,1,['N_A'],526.1145857360001,526.1145857360001,526.1145857360001,526.1145857360001,528.1507683159999,528.1507683159999,528.1507683159999,528.1507683159999,528.1507683159999,528.1507683159999,528.1507683159999,528.1507683159999,530.1692951240001,530.1692951240001,530.1692951240001,530.1692951240001,,,,,,,,,,,,,,,,,,,,,,,,,,,,,,,,,,,,,,,10,009,2022-09-26_09h00.26.061,test2,2022.2.4,59.975826263427095,
0,0,0,0,71,0,71,0,530.1692951240001,530.1692951240001,530.1692951240001,530.1692951240001,530.1692951240001,530.1692951240001,530.1692951240001,1,-1,rojo,0,['N_B'],531.603986061,531.603986061,531.603986061,531.603986061,533.623516192,533.623516192,533.623516192,533.623516192,533.623516192,533.623516192,533.623516192,533.623516192,535.6419847830001,535.6419847830001,535.6419847830001,535.6419847830001,,,,,,,,,,,,,,,,,,,,,,,,,,,,,,,,,,,,,,,10,009,2022-09-26_09h00.26.061,test2,2022.2.4,59.975826263427095,
0,0,0,0,72,0,72,0,535.6419847830001,535.6419847830001,535.6419847830001,535.6419847830001,535.6419847830001,535.6419847830001,535.6419847830001,1,1,azul,1,['N_B'],537.16039967,537.16039967,537.16039967,537.16039967,539.180240306,539.180240306,539.180240306,539.180240306,539.180240306,539.180240306,539.180240306,539.180240306,541.1976185350001,541.1976185350001,541.1976185350001,541.1976185350001,,,,,,,,,,,,,,,,,,,,,,,,,,,,,,,,,,,,,,,10,009,2022-09-26_09h00.26.061,test2,2022.2.4,59.975826263427095,
0,0,0,0,73,0,73,0,541.1976185350001,541.1976185350001,541.1976185350001,541.1976185350001,541.1976185350001,541.1976185350001,541.1976185350001,1,1,azul,1,['N_B'],542.7994285660001,542.7994285660001,542.7994285660001,542.7994285660001,544.8195386179999,544.8195386179999,544.8195386179999,544.8195386179999,544.8195386179999,544.8195386179999,544.8195386179999,544.8195386179999,546.837225787,546.837225787,546.837225787,546.837225787,,,,,,,,,,,,,,,,,,,,,,,,,,,,,,,,,,,,,,,10,009,2022-09-26_09h00.26.061,test2,2022.2.4,59.975826263427095,
0,0,0,0,74,0,74,0,546.837225787,546.837225787,546.837225787,546.837225787,546.837225787,546.837225787,546.837225787,-1,1,rojo,1,['N_B'],548.2392627109999,548.2392627109999,548.2392627109999,548.2392627109999,550.2583354540001,550.2583354540001,550.2583354540001,550.2583354540001,550.2583354540001,550.2583354540001,550.2583354540001,550.2583354540001,552.2766662509999,552.2766662509999,552.2766662509999,552.2766662509999,,,,,,,,,,,,,,,,,,,,,,,,,,,,,,,,,,,,,,,10,009,2022-09-26_09h00.26.061,test2,2022.2.4,59.975826263427095,
0,0,0,0,75,0,75,0,552.2766662509999,552.2766662509999,552.2766662509999,552.2766662509999,552.2766662509999,552.2766662509999,552.2766662509999,1,-1,azul,1,['N_B'],553.6781925880001,553.6781925880001,553.6781925880001,553.6781925880001,555.7150669619999,555.7150669619999,555.7150669619999,555.7150669619999,555.7150669619999,555.7150669619999,555.7150669619999,555.7150669619999,557.732742194,557.732742194,557.732742194,557.732742194,,,,,,,,,,,,,,,,,,,,,,,,,,,,,,,,,,,,,,,10,009,2022-09-26_09h00.26.061,test2,2022.2.4,59.975826263427095,
0,0,0,0,76,0,76,0,557.732742194,557.732742194,557.732742194,557.732742194,557.732742194,557.732742194,557.732742194,-1,-1,rojo,0,['N_A'],559.3348040269999,559.3348040269999,559.3348040269999,559.3348040269999,561.3714455170001,561.3714455170001,561.3714455170001,561.3714455170001,561.3714455170001,561.3714455170001,561.3714455170001,561.3714455170001,563.3902612989999,563.3902612989999,563.3902612989999,563.3902612989999,,,,,,,,,,,,,,,,,,,,,,,,,,,,,,,,,,,,,,,10,009,2022-09-26_09h00.26.061,test2,2022.2.4,59.975826263427095,
0,0,0,0,77,0,77,0,563.3902612989999,563.3902612989999,563.3902612989999,563.3902612989999,563.3902612989999,563.3902612989999,563.3902612989999,1,-1,rojo,1,['N_A'],564.623591487,564.623591487,564.623591487,564.623591487,566.660476589,566.660476589,566.660476589,566.660476589,566.660476589,566.660476589,566.660476589,566.660476589,568.6788397419999,568.6788397419999,568.6788397419999,568.6788397419999,,,,,,,,,,,,,,,,,,,,,,,,,,,,,,,,,,,,,,,10,009,2022-09-26_09h00.26.061,test2,2022.2.4,59.975826263427095,
0,0,0,0,78,0,78,0,568.6788397419999,568.6788397419999,568.6788397419999,568.6788397419999,568.6788397419999,568.6788397419999,568.6788397419999,1,-1,rojo,0,['N_B'],570.26522678,570.26522678,570.26522678,570.26522678,572.299974438,572.299974438,572.299974438,572.299974438,572.299974438,572.299974438,572.299974438,572.299974438,574.318500325,574.318500325,574.318500325,574.318500325,,,,,,,,,,,,,,,,,,,,,,,,,,,,,,,,,,,,,,,10,009,2022-09-26_09h00.26.061,test2,2022.2.4,59.975826263427095,
0,0,0,0,79,0,79,0,574.318500325,574.318500325,574.318500325,574.318500325,574.318500325,574.318500325,574.318500325,1,-1,azul,1,['N_B'],575.9195649659999,575.9195649659999,575.9195649659999,575.9195649659999,577.9561310299999,577.9561310299999,577.9561310299999,577.9561310299999,577.9561310299999,577.9561310299999,577.9561310299999,577.9561310299999,579.975241339,579.975241339,579.975241339,579.975241339,,,,,,,,,,,,,,,,,,,,,,,,,,,,,,,,,,,,,,,10,009,2022-09-26_09h00.26.061,test2,2022.2.4,59.975826263427095,
0,0,0,0,80,0,80,0,579.975241339,579.975241339,579.975241339,579.975241339,579.975241339,579.975241339,579.975241339,1,-1,azul,0,['N_A'],583.528742592,583.528742592,583.528742592,583.528742592,585.5659736480001,585.5659736480001,585.5659736480001,585.5659736480001,585.5659736480001,585.5659736480001,585.5659736480001,585.5659736480001,587.5828943160001,587.5828943160001,587.5828943160001,587.5828943160001,,,,,,,,,,,,,,,,,,,,,,,,,,,,,,,,,,,,,,,10,009,2022-09-26_09h00.26.061,test2,2022.2.4,59.975826263427095,
0,0,0,0,81,0,81,0,587.5828943160001,587.5828943160001,587.5828943160001,587.5828943160001,587.5828943160001,587.5828943160001,587.5828943160001,-1,-1,azul,0,['N_B'],589.51765502,589.51765502,589.51765502,589.51765502,591.537546532,591.537546532,591.537546532,591.537546532,591.537546532,591.537546532,591.537546532,591.537546532,593.5572745339999,593.5572745339999,593.5572745339999,593.5572745339999,,,,,,,,,,,,,,,,,,,,,,,,,,,,,,,,,,,,,,,10,009,2022-09-26_09h00.26.061,test2,2022.2.4,59.975826263427095,
0,0,0,0,82,0,82,0,593.5572745339999,593.5572745339999,593.5572745339999,593.5572745339999,593.5572745339999,593.5572745339999,593.5572745339999,1,1,azul,1,['N_B'],595.2763594510001,595.2763594510001,595.2763594510001,595.2763594510001,597.293131197,597.293131197,597.293131197,597.293131197,597.293131197,597.293131197,597.293131197,597.293131197,599.3117988109999,599.3117988109999,599.3117988109999,599.3117988109999,,,,,,,,,,,,,,,,,,,,,,,,,,,,,,,,,,,,,,,10,009,2022-09-26_09h00.26.061,test2,2022.2.4,59.975826263427095,
0,0,0,0,83,0,83,0,599.3117988109999,599.3117988109999,599.3117988109999,599.3117988109999,599.3117988109999,599.3117988109999,599.3117988109999,1,-1,azul,1,['N_B'],600.6976470359999,600.6976470359999,600.6976470359999,600.6976470359999,602.734187553,602.734187553,602.734187553,602.734187553,602.734187553,602.734187553,602.734187553,602.734187553,604.751087991,604.751087991,604.751087991,604.751087991,,,,,,,,,,,,,,,,,,,,,,,,,,,,,,,,,,,,,,,10,009,2022-09-26_09h00.26.061,test2,2022.2.4,59.975826263427095,
0,0,0,0,84,0,84,0,604.751087991,604.751087991,604.751087991,604.751087991,604.751087991,604.751087991,604.751087991,-1,-1,rojo,0,['N_A'],606.186959967,606.186959967,606.186959967,606.186959967,608.2233866130001,608.2233866130001,608.2233866130001,608.2233866130001,608.2233866130001,608.2233866130001,608.2233866130001,608.2233866130001,610.2411810570001,610.2411810570001,610.2411810570001,610.2411810570001,,,,,,,,,,,,,,,,,,,,,,,,,,,,,,,,,,,,,,,10,009,2022-09-26_09h00.26.061,test2,2022.2.4,59.975826263427095,
0,0,0,0,85,0,85,0,610.2411810570001,610.2411810570001,610.2411810570001,610.2411810570001,610.2411810570001,610.2411810570001,610.2411810570001,1,-1,rojo,0,['N_B'],612.5430641659999,612.5430641659999,612.5430641659999,612.5430641659999,614.580060463,614.580060463,614.580060463,614.580060463,614.580060463,614.580060463,614.580060463,614.580060463,616.597799278,616.597799278,616.597799278,616.597799278,,,,,,,,,,,,,,,,,,,,,,,,,,,,,,,,,,,,,,,10,009,2022-09-26_09h00.26.061,test2,2022.2.4,59.975826263427095,
0,0,0,0,86,0,86,0,616.597799278,616.597799278,616.597799278,616.597799278,616.597799278,616.597799278,616.597799278,-1,-1,rojo,1,['N_B'],618.049632069,618.049632069,618.049632069,618.049632069,620.086587266,620.086587266,620.086587266,620.086587266,620.086587266,620.086587266,620.086587266,620.086587266,622.1037779090001,622.1037779090001,622.1037779090001,622.1037779090001,,,,,,,,,,,,,,,,,,,,,,,,,,,,,,,,,,,,,,,10,009,2022-09-26_09h00.26.061,test2,2022.2.4,59.975826263427095,
0,0,0,0,87,0,87,0,622.1037779090001,622.1037779090001,622.1037779090001,622.1037779090001,622.1037779090001,622.1037779090001,622.1037779090001,1,-1,azul,0,['N_A'],623.505336522,623.505336522,623.505336522,623.505336522,625.5417887919999,625.5417887919999,625.5417887919999,625.5417887919999,625.5417887919999,625.5417887919999,625.5417887919999,625.5417887919999,627.559816539,627.559816539,627.559816539,627.559816539,,,,,,,,,,,,,,,,,,,,,,,,,,,,,,,,,,,,,,,10,009,2022-09-26_09h00.26.061,test2,2022.2.4,59.975826263427095,
0,0,0,0,88,0,88,0,627.559816539,627.559816539,627.559816539,627.559816539,627.559816539,627.559816539,627.559816539,-1,-1,azul,1,['N_A'],629.045351995,629.045351995,629.045351995,629.045351995,631.081597815,631.081597815,631.081597815,631.081597815,631.081597815,631.081597815,631.081597815,631.081597815,633.099189123,633.099189123,633.099189123,633.099189123,,,,,,,,,,,,,,,,,,,,,,,,,,,,,,,,,,,,,,,10,009,2022-09-26_09h00.26.061,test2,2022.2.4,59.975826263427095,
0,0,0,0,89,0,89,0,633.099189123,633.099189123,633.099189123,633.099189123,633.099189123,633.099189123,633.099189123,1,-1,rojo,0,['N_B'],634.7184080010001,634.7184080010001,634.7184080010001,634.7184080010001,636.737325147,636.737325147,636.737325147,636.737325147,636.737325147,636.737325147,636.737325147,636.737325147,638.7559633269999,638.7559633269999,638.7559633269999,638.7559633269999,,,,,,,,,,,,,,,,,,,,,,,,,,,,,,,,,,,,,,,10,009,2022-09-26_09h00.26.061,test2,2022.2.4,59.975826263427095,
0,0,0,0,90,0,90,0,638.7559633269999,638.7559633269999,638.7559633269999,638.7559633269999,638.7559633269999,638.7559633269999,638.7559633269999,1,1,azul,1,['N_B'],640.6744145250001,640.6744145250001,640.6744145250001,640.6744145250001,642.694370453,642.694370453,642.694370453,642.694370453,642.694370453,642.694370453,642.694370453,642.694370453,644.7121910280001,644.7121910280001,644.7121910280001,644.7121910280001,,,,,,,,,,,,,,,,,,,,,,,,,,,,,,,,,,,,,,,10,009,2022-09-26_09h00.26.061,test2,2022.2.4,59.975826263427095,
0,0,0,0,91,0,91,0,644.7121910280001,644.7121910280001,644.7121910280001,644.7121910280001,644.7121910280001,644.7121910280001,644.7121910280001,1,1,azul,1,['N_B'],646.4137877480001,646.4137877480001,646.4137877480001,646.4137877480001,648.433914389,648.433914389,648.433914389,648.433914389,648.433914389,648.433914389,648.433914389,648.433914389,650.451676363,650.451676363,650.451676363,650.451676363,,,,,,,,,,,,,,,,,,,,,,,,,,,,,,,,,,,,,,,10,009,2022-09-26_09h00.26.061,test2,2022.2.4,59.975826263427095,
0,0,0,0,92,0,92,0,650.451676363,650.451676363,650.451676363,650.451676363,650.451676363,650.451676363,650.451676363,1,1,azul,1,['N_B'],652.1704056689999,652.1704056689999,652.1704056689999,652.1704056689999,654.1904947940001,654.1904947940001,654.1904947940001,654.1904947940001,654.1904947940001,654.1904947940001,654.1904947940001,654.1904947940001,656.208913882,656.208913882,656.208913882,656.208913882,,,,,,,,,,,,,,,,,,,,,,,,,,,,,,,,,,,,,,,10,009,2022-09-26_09h00.26.061,test2,2022.2.4,59.975826263427095,
0,0,0,0,93,0,93,0,656.208913882,656.208913882,656.208913882,656.208913882,656.208913882,656.208913882,656.208913882,-1,1,rojo,1,['N_B'],657.659671323,657.659671323,657.659671323,657.659671323,659.679715739,659.679715739,659.679715739,659.679715739,659.679715739,659.679715739,659.679715739,659.679715739,661.6972439310001,661.6972439310001,661.6972439310001,661.6972439310001,,,,,,,,,,,,,,,,,,,,,,,,,,,,,,,,,,,,,,,10,009,2022-09-26_09h00.26.061,test2,2022.2.4,59.975826263427095,
0,0,0,0,94,0,94,0,661.6972439310001,661.6972439310001,661.6972439310001,661.6972439310001,661.6972439310001,661.6972439310001,661.6972439310001,1,-1,azul,1,['N_B'],663.4001371790001,663.4001371790001,663.4001371790001,663.4001371790001,665.436157777,665.436157777,665.436157777,665.436157777,665.436157777,665.436157777,665.436157777,665.436157777,667.454641019,667.454641019,667.454641019,667.454641019,,,,,,,,,,,,,,,,,,,,,,,,,,,,,,,,,,,,,,,10,009,2022-09-26_09h00.26.061,test2,2022.2.4,59.975826263427095,
0,0,0,0,95,0,95,0,667.454641019,667.454641019,667.454641019,667.454641019,667.454641019,667.454641019,667.454641019,1,-1,azul,1,['N_B'],669.756714666,669.756714666,669.756714666,669.756714666,671.7934424179999,671.7934424179999,671.7934424179999,671.7934424179999,671.7934424179999,671.7934424179999,671.7934424179999,671.7934424179999,673.811099891,673.811099891,673.811099891,673.811099891,,,,,,,,,,,,,,,,,,,,,,,,,,,,,,,,,,,,,,,10,009,2022-09-26_09h00.26.061,test2,2022.2.4,59.975826263427095,
0,0,0,0,96,0,96,0,673.811099891,673.811099891,673.811099891,673.811099891,673.811099891,673.811099891,673.811099891,-1,-1,rojo,0,['N_A'],675.195545529,675.195545529,675.195545529,675.195545529,677.232419649,677.232419649,677.232419649,677.232419649,677.232419649,677.232419649,677.232419649,677.232419649,679.2501662599999,679.2501662599999,679.2501662599999,679.2501662599999,,,,,,,,,,,,,,,,,,,,,,,,,,,,,,,,,,,,,,,10,009,2022-09-26_09h00.26.061,test2,2022.2.4,59.975826263427095,
0,0,0,0,97,0,97,0,679.2501662599999,679.2501662599999,679.2501662599999,679.2501662599999,679.2501662599999,679.2501662599999,679.2501662599999,1,-1,rojo,1,['N_A'],680.819545362,680.819545362,680.819545362,680.819545362,682.854672994,682.854672994,682.854672994,682.854672994,682.854672994,682.854672994,682.854672994,682.854672994,684.873656183,684.873656183,684.873656183,684.873656183,,,,,,,,,,,,,,,,,,,,,,,,,,,,,,,,,,,,,,,10,009,2022-09-26_09h00.26.061,test2,2022.2.4,59.975826263427095,
0,0,0,0,98,0,98,0,684.873656183,684.873656183,684.873656183,684.873656183,684.873656183,684.873656183,684.873656183,1,-1,rojo,0,['N_B'],686.3414313239999,686.3414313239999,686.3414313239999,686.3414313239999,688.3778987229999,688.3778987229999,688.3778987229999,688.3778987229999,688.3778987229999,688.3778987229999,688.3778987229999,688.3778987229999,690.39601394,690.39601394,690.39601394,690.39601394,,,,,,,,,,,,,,,,,,,,,,,,,,,,,,,,,,,,,,,10,009,2022-09-26_09h00.26.061,test2,2022.2.4,59.975826263427095,
0,0,0,0,99,0,99,0,690.39601394,690.39601394,690.39601394,690.39601394,690.39601394,690.39601394,690.39601394,1,-1,azul,1,['N_B'],691.7973928279999,691.7973928279999,691.7973928279999,691.7973928279999,693.8161352660001,693.8161352660001,693.8161352660001,693.8161352660001,693.8161352660001,693.8161352660001,693.8161352660001,693.8161352660001,695.836093409,695.836093409,695.836093409,695.836093409,,,,,,,,,,,,,,,,,,,,,,,,,,,,,,,,,,,,,,,10,009,2022-09-26_09h00.26.061,test2,2022.2.4,59.975826263427095,
0,0,0,0,100,0,100,0,695.836093409,695.836093409,695.836093409,695.836093409,695.836093409,695.836093409,695.836093409,-1,1,rojo,1,['N_B'],697.1870438760001,697.1870438760001,697.1870438760001,697.1870438760001,699.206392099,699.206392099,699.206392099,699.206392099,699.206392099,699.206392099,699.206392099,699.206392099,701.225901722,701.225901722,701.225901722,701.225901722,,,,,,,,,,,,,,,,,,,,,,,,,,,,,,,,,,,,,,,10,009,2022-09-26_09h00.26.061,test2,2022.2.4,59.975826263427095,
0,0,0,0,101,0,101,0,701.225901722,701.225901722,701.225901722,701.225901722,701.225901722,701.225901722,701.225901722,1,1,azul,1,['N_B'],702.8432642399999,702.8432642399999,702.8432642399999,702.8432642399999,704.862310098,704.862310098,704.862310098,704.862310098,704.862310098,704.862310098,704.862310098,704.862310098,706.88188151,706.88188151,706.88188151,706.88188151,,,,,,,,,,,,,,,,,,,,,,,,,,,,,,,,,,,,,,,10,009,2022-09-26_09h00.26.061,test2,2022.2.4,59.975826263427095,
0,0,0,0,102,0,102,0,706.88188151,706.88188151,706.88188151,706.88188151,706.88188151,706.88188151,706.88188151,1,-1,azul,1,['N_B'],708.5666302610001,708.5666302610001,708.5666302610001,708.5666302610001,710.602645735,710.602645735,710.602645735,710.602645735,710.602645735,710.602645735,710.602645735,710.602645735,712.620215908,712.620215908,712.620215908,712.620215908,,,,,,,,,,,,,,,,,,,,,,,,,,,,,,,,,,,,,,,10,009,2022-09-26_09h00.26.061,test2,2022.2.4,59.975826263427095,
0,0,0,0,103,0,103,0,712.620215908,712.620215908,712.620215908,712.620215908,712.620215908,712.620215908,712.620215908,-1,-1,rojo,1,['N_B'],714.190044264,714.190044264,714.190044264,714.190044264,716.225514722,716.225514722,716.225514722,716.225514722,716.225514722,716.225514722,716.225514722,716.225514722,718.2440509920001,718.2440509920001,718.2440509920001,718.2440509920001,,,,,,,,,,,,,,,,,,,,,,,,,,,,,,,,,,,,,,,10,009,2022-09-26_09h00.26.061,test2,2022.2.4,59.975826263427095,
0,0,0,0,104,0,104,0,718.2440509920001,718.2440509920001,718.2440509920001,718.2440509920001,718.2440509920001,718.2440509920001,718.2440509920001,-1,-1,rojo,0,['N_A'],719.9120117630001,719.9120117630001,719.9120117630001,719.9120117630001,721.9486769000001,721.9486769000001,721.9486769000001,721.9486769000001,721.9486769000001,721.9486769000001,721.9486769000001,721.9486769000001,723.9669653520001,723.9669653520001,723.9669653520001,723.9669653520001,,,,,,,,,,,,,,,,,,,,,,,,,,,,,,,,,,,,,,,10,009,2022-09-26_09h00.26.061,test2,2022.2.4,59.975826263427095,
0,0,0,0,105,0,105,0,723.9669653520001,723.9669653520001,723.9669653520001,723.9669653520001,723.9669653520001,723.9669653520001,723.9669653520001,1,-1,rojo,0,['N_B'],725.351393885,725.351393885,725.351393885,725.351393885,727.3878493840001,727.3878493840001,727.3878493840001,727.3878493840001,727.3878493840001,727.3878493840001,727.3878493840001,727.3878493840001,729.406264712,729.406264712,729.406264712,729.406264712,,,,,,,,,,,,,,,,,,,,,,,,,,,,,,,,,,,,,,,10,009,2022-09-26_09h00.26.061,test2,2022.2.4,59.975826263427095,
0,0,0,0,106,0,106,0,729.406264712,729.406264712,729.406264712,729.406264712,729.406264712,729.406264712,729.406264712,1,-1,azul,1,['N_B'],730.775303192,730.775303192,730.775303192,730.775303192,732.792774783,732.792774783,732.792774783,732.792774783,732.792774783,732.792774783,732.792774783,732.792774783,734.8123021929999,734.8123021929999,734.8123021929999,734.8123021929999,,,,,,,,,,,,,,,,,,,,,,,,,,,,,,,,,,,,,,,10,009,2022-09-26_09h00.26.061,test2,2022.2.4,59.975826263427095,
0,0,0,0,107,0,107,0,734.8123021929999,734.8123021929999,734.8123021929999,734.8123021929999,734.8123021929999,734.8123021929999,734.8123021929999,1,1,azul,1,['N_B'],736.21326162,736.21326162,736.21326162,736.21326162,738.232854445,738.232854445,738.232854445,738.232854445,738.232854445,738.232854445,738.232854445,738.232854445,740.2511116710001,740.2511116710001,740.2511116710001,740.2511116710001,,,,,,,,,,,,,,,,,,,,,,,,,,,,,,,,,,,,,,,10,009,2022-09-26_09h00.26.061,test2,2022.2.4,59.975826263427095,
0,0,0,0,108,0,108,0,740.2511116710001,740.2511116710001,740.2511116710001,740.2511116710001,740.2511116710001,740.2511116710001,740.2511116710001,1,1,azul,1,['N_B'],741.8530959809999,741.8530959809999,741.8530959809999,741.8530959809999,743.8722314299999,743.8722314299999,743.8722314299999,743.8722314299999,743.8722314299999,743.8722314299999,743.8722314299999,743.8722314299999,745.890981121,745.890981121,745.890981121,745.890981121,,,,,,,,,,,,,,,,,,,,,,,,,,,,,,,,,,,,,,,10,009,2022-09-26_09h00.26.061,test2,2022.2.4,59.975826263427095,
0,0,0,0,109,0,109,0,745.890981121,745.890981121,745.890981121,745.890981121,745.890981121,745.890981121,745.890981121,-1,-1,rojo,1,['N_B'],747.59303773,747.59303773,747.59303773,747.59303773,749.629046528,749.629046528,749.629046528,749.629046528,749.629046528,749.629046528,749.629046528,749.629046528,751.647859176,751.647859176,751.647859176,751.647859176,,,,,,,,,,,,,,,,,,,,,,,,,,,,,,,,,,,,,,,10,009,2022-09-26_09h00.26.061,test2,2022.2.4,59.975826263427095,
0,0,0,0,110,0,110,0,751.647859176,751.647859176,751.647859176,751.647859176,751.647859176,751.647859176,751.647859176,-1,-1,rojo,0,['N_A'],756.8693502469999,756.8693502469999,756.8693502469999,756.8693502469999,758.88891712,758.88891712,758.88891712,758.88891712,758.88891712,758.88891712,758.88891712,758.88891712,760.907869302,760.907869302,760.907869302,760.907869302,,,,,,,,,,,,,,,,,,,,,,,,,,,,,,,,,,,,,,,10,009,2022-09-26_09h00.26.061,test2,2022.2.4,59.975826263427095,
0,0,0,0,111,0,111,0,760.907869302,760.907869302,760.907869302,760.907869302,760.907869302,760.907869302,760.907869302,1,1,rojo,1,['N_A'],762.609148829,762.609148829,762.609148829,762.609148829,764.627771439,764.627771439,764.627771439,764.627771439,764.627771439,764.627771439,764.627771439,764.627771439,766.6472766420001,766.6472766420001,766.6472766420001,766.6472766420001,,,,,,,,,,,,,,,,,,,,,,,,,,,,,,,,,,,,,,,10,009,2022-09-26_09h00.26.061,test2,2022.2.4,59.975826263427095,
0,0,0,0,112,0,112,0,766.6472766420001,766.6472766420001,766.6472766420001,766.6472766420001,766.6472766420001,766.6472766420001,766.6472766420001,1,-1,rojo,1,['N_A'],767.8488280729999,767.8488280729999,767.8488280729999,767.8488280729999,769.868024799,769.868024799,769.868024799,769.868024799,769.868024799,769.868024799,769.868024799,769.868024799,771.8873850839999,771.8873850839999,771.8873850839999,771.8873850839999,,,,,,,,,,,,,,,,,,,,,,,,,,,,,,,,,,,,,,,10,009,2022-09-26_09h00.26.061,test2,2022.2.4,59.975826263427095,
0,0,0,0,113,0,113,0,771.8873850839999,771.8873850839999,771.8873850839999,771.8873850839999,771.8873850839999,771.8873850839999,771.8873850839999,1,1,rojo,1,['N_A'],775.373607119,775.373607119,775.373607119,775.373607119,777.3922081649999,777.3922081649999,777.3922081649999,777.3922081649999,777.3922081649999,777.3922081649999,777.3922081649999,777.3922081649999,779.4110233099999,779.4110233099999,779.4110233099999,779.4110233099999,,,,,,,,,,,,,,,,,,,,,,,,,,,,,,,,,,,,,,,10,009,2022-09-26_09h00.26.061,test2,2022.2.4,59.975826263427095,
0,0,0,0,114,0,114,0,779.4110233099999,779.4110233099999,779.4110233099999,779.4110233099999,779.4110233099999,779.4110233099999,779.4110233099999,1,-1,rojo,1,['N_A'],781.4972455999999,781.4972455999999,781.4972455999999,781.4972455999999,783.5330125950001,783.5330125950001,783.5330125950001,783.5330125950001,783.5330125950001,783.5330125950001,783.5330125950001,783.5330125950001,785.550830456,785.550830456,785.550830456,785.550830456,,,,,,,,,,,,,,,,,,,,,,,,,,,,,,,,,,,,,,,10,009,2022-09-26_09h00.26.061,test2,2022.2.4,59.975826263427095,
0,0,0,0,115,0,115,0,785.550830456,785.550830456,785.550830456,785.550830456,785.550830456,785.550830456,785.550830456,-1,-1,azul,0,['N_B'],787.2864544550001,787.2864544550001,787.2864544550001,787.2864544550001,789.322518288,789.322518288,789.322518288,789.322518288,789.322518288,789.322518288,789.322518288,789.322518288,791.3406648050001,791.3406648050001,791.3406648050001,791.3406648050001,,,,,,,,,,,,,,,,,,,,,,,,,,,,,,,,,,,,,,,10,009,2022-09-26_09h00.26.061,test2,2022.2.4,59.975826263427095,
0,0,0,0,116,0,116,0,791.3406648050001,791.3406648050001,791.3406648050001,791.3406648050001,791.3406648050001,791.3406648050001,791.3406648050001,1,-1,azul,1,['N_B'],792.792145346,792.792145346,792.792145346,792.792145346,794.8286451550001,794.8286451550001,794.8286451550001,794.8286451550001,794.8286451550001,794.8286451550001,794.8286451550001,794.8286451550001,796.8463370759999,796.8463370759999,796.8463370759999,796.8463370759999,,,,,,,,,,,,,,,,,,,,,,,,,,,,,,,,,,,,,,,10,009,2022-09-26_09h00.26.061,test2,2022.2.4,59.975826263427095,
0,0,0,0,117,0,117,0,796.8463370759999,796.8463370759999,796.8463370759999,796.8463370759999,796.8463370759999,796.8463370759999,796.8463370759999,-1,-1,rojo,0,['N_A'],799.1667987510001,799.1667987510001,799.1667987510001,799.1667987510001,801.202756262,801.202756262,801.202756262,801.202756262,801.202756262,801.202756262,801.202756262,801.202756262,803.2202404440001,803.2202404440001,803.2202404440001,803.2202404440001,,,,,,,,,,,,,,,,,,,,,,,,,,,,,,,,,,,,,,,10,009,2022-09-26_09h00.26.061,test2,2022.2.4,59.975826263427095,
0,0,0,0,118,0,118,0,803.2202404440001,803.2202404440001,803.2202404440001,803.2202404440001,803.2202404440001,803.2202404440001,803.2202404440001,1,-1,rojo,1,['N_A'],804.805676633,804.805676633,804.805676633,804.805676633,806.8422048599999,806.8422048599999,806.8422048599999,806.8422048599999,806.8422048599999,806.8422048599999,806.8422048599999,806.8422048599999,808.8602885629999,808.8602885629999,808.8602885629999,808.8602885629999,,,,,,,,,,,,,,,,,,,,,,,,,,,,,,,,,,,,,,,10,009,2022-09-26_09h00.26.061,test2,2022.2.4,59.975826263427095,
0,0,0,0,119,0,119,0,808.8602885629999,808.8602885629999,808.8602885629999,808.8602885629999,808.8602885629999,808.8602885629999,808.8602885629999,1,-1,rojo,0,['N_B'],810.3946875600001,810.3946875600001,810.3946875600001,810.3946875600001,812.431228756,812.431228756,812.431228756,812.431228756,812.431228756,812.431228756,812.431228756,812.431228756,814.449176574,814.449176574,814.449176574,814.449176574,,,,,,,,,,,,,,,,,,,,,,,,,,,,,,,,,,,,,,,10,009,2022-09-26_09h00.26.061,test2,2022.2.4,59.975826263427095,
0,0,0,0,120,0,120,0,814.449176574,814.449176574,814.449176574,814.449176574,814.449176574,814.449176574,814.449176574,1,-1,azul,1,['N_B'],815.9019647220001,815.9019647220001,815.9019647220001,815.9019647220001,817.9374399330001,817.9374399330001,817.9374399330001,817.9374399330001,817.9374399330001,817.9374399330001,817.9374399330001,817.9374399330001,819.9560893260001,819.9560893260001,819.9560893260001,819.9560893260001,,,,,,,,,,,,,,,,,,,,,,,,,,,,,,,,,,,,,,,10,009,2022-09-26_09h00.26.061,test2,2022.2.4,59.975826263427095,
0,0,0,0,121,0,121,0,819.9560893260001,819.9560893260001,819.9560893260001,819.9560893260001,819.9560893260001,819.9560893260001,819.9560893260001,-1,-1,rojo,0,['N_A'],821.4241314950001,821.4241314950001,821.4241314950001,821.4241314950001,823.4613005550001,823.4613005550001,823.4613005550001,823.4613005550001,823.4613005550001,823.4613005550001,823.4613005550001,823.4613005550001,825.4793717189999,825.4793717189999,825.4793717189999,825.4793717189999,,,,,,,,,,,,,,,,,,,,,,,,,,,,,,,,,,,,,,,10,009,2022-09-26_09h00.26.061,test2,2022.2.4,59.975826263427095,
0,0,0,0,122,0,122,0,825.4793717189999,825.4793717189999,825.4793717189999,825.4793717189999,825.4793717189999,825.4793717189999,825.4793717189999,1,-1,rojo,1,['N_A'],826.946178987,826.946178987,826.946178987,826.946178987,828.9834113640001,828.9834113640001,828.9834113640001,828.9834113640001,828.9834113640001,828.9834113640001,828.9834113640001,828.9834113640001,831.001627105,831.001627105,831.001627105,831.001627105,,,,,,,,,,,,,,,,,,,,,,,,,,,,,,,,,,,,,,,10,009,2022-09-26_09h00.26.061,test2,2022.2.4,59.975826263427095,
0,0,0,0,123,0,123,0,831.001627105,831.001627105,831.001627105,831.001627105,831.001627105,831.001627105,831.001627105,1,-1,rojo,0,['N_B'],833.671976815,833.671976815,833.671976815,833.671976815,835.707166221,835.707166221,835.707166221,835.707166221,835.707166221,835.707166221,835.707166221,835.707166221,837.7262970580001,837.7262970580001,837.7262970580001,837.7262970580001,,,,,,,,,,,,,,,,,,,,,,,,,,,,,,,,,,,,,,,10,009,2022-09-26_09h00.26.061,test2,2022.2.4,59.975826263427095,
0,0,0,0,124,0,124,0,837.7262970580001,837.7262970580001,837.7262970580001,837.7262970580001,837.7262970580001,837.7262970580001,837.7262970580001,-1,-1,rojo,1,['N_B'],839.1436229249999,839.1436229249999,839.1436229249999,839.1436229249999,841.180112102,841.180112102,841.180112102,841.180112102,841.180112102,841.180112102,841.180112102,841.180112102,843.199320713,843.199320713,843.199320713,843.199320713,,,,,,,,,,,,,,,,,,,,,,,,,,,,,,,,,,,,,,,10,009,2022-09-26_09h00.26.061,test2,2022.2.4,59.975826263427095,
0,0,0,0,125,0,125,0,843.199320713,843.199320713,843.199320713,843.199320713,843.199320713,843.199320713,843.199320713,1,-1,azul,0,['N_A'],844.9175996519999,844.9175996519999,844.9175996519999,844.9175996519999,846.9526811110001,846.9526811110001,846.9526811110001,846.9526811110001,846.9526811110001,846.9526811110001,846.9526811110001,846.9526811110001,848.970512218,848.970512218,848.970512218,848.970512218,,,,,,,,,,,,,,,,,,,,,,,,,,,,,,,,,,,,,,,10,009,2022-09-26_09h00.26.061,test2,2022.2.4,59.975826263427095,
0,0,0,0,126,0,126,0,848.970512218,848.970512218,848.970512218,848.970512218,848.970512218,848.970512218,848.970512218,1,-1,rojo,1,['N_A'],850.4235310350001,850.4235310350001,850.4235310350001,850.4235310350001,852.441015434,852.441015434,852.441015434,852.441015434,852.441015434,852.441015434,852.441015434,852.441015434,854.4604030070001,854.4604030070001,854.4604030070001,854.4604030070001,,,,,,,,,,,,,,,,,,,,,,,,,,,,,,,,,,,,,,,10,009,2022-09-26_09h00.26.061,test2,2022.2.4,59.975826263427095,
0,0,0,0,127,0,127,0,854.4604030070001,854.4604030070001,854.4604030070001,854.4604030070001,854.4604030070001,854.4604030070001,854.4604030070001,1,1,rojo,1,['N_A'],855.878630795,855.878630795,855.878630795,855.878630795,857.89805949,857.89805949,857.89805949,857.89805949,857.89805949,857.89805949,857.89805949,857.89805949,859.915986913,859.915986913,859.915986913,859.915986913,,,,,,,,,,,,,,,,,,,,,,,,,,,,,,,,,,,,,,,10,009,2022-09-26_09h00.26.061,test2,2022.2.4,59.975826263427095,
0,0,0,0,128,0,128,0,859.915986913,859.915986913,859.915986913,859.915986913,859.915986913,859.915986913,859.915986913,-1,-1,azul,1,['N_A'],861.384384264,861.384384264,861.384384264,861.384384264,863.4208144370001,863.4208144370001,863.4208144370001,863.4208144370001,863.4208144370001,863.4208144370001,863.4208144370001,863.4208144370001,865.440574285,865.440574285,865.440574285,865.440574285,,,,,,,,,,,,,,,,,,,,,,,,,,,,,,,,,,,,,,,10,009,2022-09-26_09h00.26.061,test2,2022.2.4,59.975826263427095,
0,0,0,0,129,0,129,0,865.440574285,865.440574285,865.440574285,865.440574285,865.440574285,865.440574285,865.440574285,-1,-1,azul,0,['N_B'],867.3415426980001,867.3415426980001,867.3415426980001,867.3415426980001,869.3776603739999,869.3776603739999,869.3776603739999,869.3776603739999,869.3776603739999,869.3776603739999,869.3776603739999,869.3776603739999,871.395407956,871.395407956,871.395407956,871.395407956,,,,,,,,,,,,,,,,,,,,,,,,,,,,,,,,,,,,,,,10,009,2022-09-26_09h00.26.061,test2,2022.2.4,59.975826263427095,
0,0,0,0,130,0,130,0,871.395407956,871.395407956,871.395407956,871.395407956,871.395407956,871.395407956,871.395407956,1,-1,azul,1,['N_B'],872.847077302,872.847077302,872.847077302,872.847077302,874.8840835709999,874.8840835709999,874.8840835709999,874.8840835709999,874.8840835709999,874.8840835709999,874.8840835709999,874.8840835709999,876.9026485180001,876.9026485180001,876.9026485180001,876.9026485180001,,,,,,,,,,,,,,,,,,,,,,,,,,,,,,,,,,,,,,,10,009,2022-09-26_09h00.26.061,test2,2022.2.4,59.975826263427095,
0,0,0,0,131,0,131,0,876.9026485180001,876.9026485180001,876.9026485180001,876.9026485180001,876.9026485180001,876.9026485180001,876.9026485180001,-1,-1,rojo,0,['N_A'],885.7452866919999,885.7452866919999,885.7452866919999,885.7452866919999,887.7808570190001,887.7808570190001,887.7808570190001,887.7808570190001,887.7808570190001,887.7808570190001,887.7808570190001,887.7808570190001,889.798938306,889.798938306,889.798938306,889.798938306,,,,,,,,,,,,,,,,,,,,,,,,,,,,,,,,,,,,,,,10,009,2022-09-26_09h00.26.061,test2,2022.2.4,59.975826263427095,
0,0,0,0,132,0,132,0,889.798938306,889.798938306,889.798938306,889.798938306,889.798938306,889.798938306,889.798938306,-1,-1,azul,1,['N_A'],891.534375928,891.534375928,891.534375928,891.534375928,893.571476128,893.571476128,893.571476128,893.571476128,893.571476128,893.571476128,893.571476128,893.571476128,895.589206262,895.589206262,895.589206262,895.589206262,,,,,,,,,,,,,,,,,,,,,,,,,,,,,,,,,,,,,,,10,009,2022-09-26_09h00.26.061,test2,2022.2.4,59.975826263427095,
0,0,0,0,133,0,133,0,895.589206262,895.589206262,895.589206262,895.589206262,895.589206262,895.589206262,895.589206262,1,-1,rojo,0,['N_B'],897.074935599,897.074935599,897.074935599,897.074935599,899.1100891320001,899.1100891320001,899.1100891320001,899.1100891320001,899.1100891320001,899.1100891320001,899.1100891320001,899.1100891320001,901.128250376,901.128250376,901.128250376,901.128250376,,,,,,,,,,,,,,,,,,,,,,,,,,,,,,,,,,,,,,,10,009,2022-09-26_09h00.26.061,test2,2022.2.4,59.975826263427095,
0,0,0,0,134,0,134,0,901.128250376,901.128250376,901.128250376,901.128250376,901.128250376,901.128250376,901.128250376,-1,-1,rojo,1,['N_B'],903.49772974,903.49772974,903.49772974,903.49772974,905.534240368,905.534240368,905.534240368,905.534240368,905.534240368,905.534240368,905.534240368,905.534240368,907.551739181,907.551739181,907.551739181,907.551739181,,,,,,,,,,,,,,,,,,,,,,,,,,,,,,,,,,,,,,,10,009,2022-09-26_09h00.26.061,test2,2022.2.4,59.975826263427095,
0,0,0,0,135,0,135,0,907.551739181,907.551739181,907.551739181,907.551739181,907.551739181,907.551739181,907.551739181,1,-1,azul,1,['N_B'],909.371307283,909.371307283,909.371307283,909.371307283,911.390507018,911.390507018,911.390507018,911.390507018,911.390507018,911.390507018,911.390507018,911.390507018,913.410033043,913.410033043,913.410033043,913.410033043,,,,,,,,,,,,,,,,,,,,,,,,,,,,,,,,,,,,,,,10,009,2022-09-26_09h00.26.061,test2,2022.2.4,59.975826263427095,
0,0,0,0,136,0,136,0,913.410033043,913.410033043,913.410033043,913.410033043,913.410033043,913.410033043,913.410033043,1,1,azul,1,['N_B'],914.84339227,914.84339227,914.84339227,914.84339227,916.863608534,916.863608534,916.863608534,916.863608534,916.863608534,916.863608534,916.863608534,916.863608534,918.8816138870001,918.8816138870001,918.8816138870001,918.8816138870001,,,,,,,,,,,,,,,,,,,,,,,,,,,,,,,,,,,,,,,10,009,2022-09-26_09h00.26.061,test2,2022.2.4,59.975826263427095,
0,0,0,0,137,0,137,0,918.8816138870001,918.8816138870001,918.8816138870001,918.8816138870001,918.8816138870001,918.8816138870001,918.8816138870001,1,-1,azul,1,['N_B'],920.2824823059999,920.2824823059999,920.2824823059999,920.2824823059999,922.3194261059999,922.3194261059999,922.3194261059999,922.3194261059999,922.3194261059999,922.3194261059999,922.3194261059999,922.3194261059999,924.3381074330001,924.3381074330001,924.3381074330001,924.3381074330001,,,,,,,,,,,,,,,,,,,,,,,,,,,,,,,,,,,,,,,10,009,2022-09-26_09h00.26.061,test2,2022.2.4,59.975826263427095,
0,0,0,0,138,0,138,0,924.3381074330001,924.3381074330001,924.3381074330001,924.3381074330001,924.3381074330001,924.3381074330001,924.3381074330001,1,-1,azul,1,['N_B'],925.8063223,925.8063223,925.8063223,925.8063223,927.842101496,927.842101496,927.842101496,927.842101496,927.842101496,927.842101496,927.842101496,927.842101496,929.8609655450001,929.8609655450001,929.8609655450001,929.8609655450001,,,,,,,,,,,,,,,,,,,,,,,,,,,,,,,,,,,,,,,10,009,2022-09-26_09h00.26.061,test2,2022.2.4,59.975826263427095,
0,0,0,0,139,0,139,0,929.8609655450001,929.8609655450001,929.8609655450001,929.8609655450001,929.8609655450001,929.8609655450001,929.8609655450001,-1,-1,rojo,1,['N_B'],931.361925217,931.361925217,931.361925217,931.361925217,933.380246177,933.380246177,933.380246177,933.380246177,933.380246177,933.380246177,933.380246177,933.380246177,935.3994185,935.3994185,935.3994185,935.3994185,,,,,,,,,,,,,,,,,,,,,,,,,,,,,,,,,,,,,,,10,009,2022-09-26_09h00.26.061,test2,2022.2.4,59.975826263427095,
0,0,0,0,140,0,140,0,935.3994185,935.3994185,935.3994185,935.3994185,935.3994185,935.3994185,935.3994185,1,1,azul,1,['N_B'],936.9359140570001,936.9359140570001,936.9359140570001,936.9359140570001,938.9537779369999,938.9537779369999,938.9537779369999,938.9537779369999,938.9537779369999,938.9537779369999,938.9537779369999,938.9537779369999,940.972283206,940.972283206,940.972283206,940.972283206,,,,,,,,,,,,,,,,,,,,,,,,,,,,,,,,,,,,,,,10,009,2022-09-26_09h00.26.061,test2,2022.2.4,59.975826263427095,
0,0,0,0,141,0,141,0,940.972283206,940.972283206,940.972283206,940.972283206,940.972283206,940.972283206,940.972283206,1,-1,azul,1,['N_B'],942.542447857,942.542447857,942.542447857,942.542447857,944.5775487899999,944.5775487899999,944.5775487899999,944.5775487899999,944.5775487899999,944.5775487899999,944.5775487899999,944.5775487899999,946.5964033409999,946.5964033409999,946.5964033409999,946.5964033409999,,,,,,,,,,,,,,,,,,,,,,,,,,,,,,,,,,,,,,,10,009,2022-09-26_09h00.26.061,test2,2022.2.4,59.975826263427095,
0,0,0,0,142,0,142,0,946.5964033409999,946.5964033409999,946.5964033409999,946.5964033409999,946.5964033409999,946.5964033409999,946.5964033409999,-1,-1,rojo,1,['N_B'],948.0310962699999,948.0310962699999,948.0310962699999,948.0310962699999,950.066526489,950.066526489,950.066526489,950.066526489,950.066526489,950.066526489,950.066526489,950.066526489,952.0856048439999,952.0856048439999,952.0856048439999,952.0856048439999,,,,,,,,,,,,,,,,,,,,,,,,,,,,,,,,,,,,,,,10,009,2022-09-26_09h00.26.061,test2,2022.2.4,59.975826263427095,
0,0,0,0,143,0,143,0,952.0856048439999,952.0856048439999,952.0856048439999,952.0856048439999,952.0856048439999,952.0856048439999,952.0856048439999,1,-1,azul,1,['N_B'],953.4700048610001,953.4700048610001,953.4700048610001,953.4700048610001,955.505885404,955.505885404,955.505885404,955.505885404,955.505885404,955.505885404,955.505885404,955.505885404,957.523720213,957.523720213,957.523720213,957.523720213,,,,,,,,,,,,,,,,,,,,,,,,,,,,,,,,,,,,,,,10,009,2022-09-26_09h00.26.061,test2,2022.2.4,59.975826263427095,
0,0,0,0,144,0,144,0,957.523720213,957.523720213,957.523720213,957.523720213,957.523720213,957.523720213,957.523720213,1,-1,azul,1,['N_B'],959.35968552,959.35968552,959.35968552,959.35968552,961.3966969290001,961.3966969290001,961.3966969290001,961.3966969290001,961.3966969290001,961.3966969290001,961.3966969290001,961.3966969290001,963.4140735290001,963.4140735290001,963.4140735290001,963.4140735290001,,,,,,,,,,,,,,,,,,,,,,,,,,,,,,,,,,,,,,,10,009,2022-09-26_09h00.26.061,test2,2022.2.4,59.975826263427095,
0,0,0,0,145,0,145,0,963.4140735290001,963.4140735290001,963.4140735290001,963.4140735290001,963.4140735290001,963.4140735290001,963.4140735290001,-1,-1,rojo,0,['N_A'],965.0155456189999,965.0155456189999,965.0155456189999,965.0155456189999,967.05288482,967.05288482,967.05288482,967.05288482,967.05288482,967.05288482,967.05288482,967.05288482,969.0708605000001,969.0708605000001,969.0708605000001,969.0708605000001,,,,,,,,,,,,,,,,,,,,,,,,,,,,,,,,,,,,,,,10,009,2022-09-26_09h00.26.061,test2,2022.2.4,59.975826263427095,
0,0,0,0,146,0,146,0,969.0708605000001,969.0708605000001,969.0708605000001,969.0708605000001,969.0708605000001,969.0708605000001,969.0708605000001,-1,-1,azul,1,['N_A'],970.471706403,970.471706403,970.471706403,970.471706403,972.508690645,972.508690645,972.508690645,972.508690645,972.508690645,972.508690645,972.508690645,972.508690645,974.527355135,974.527355135,974.527355135,974.527355135,,,,,,,,,,,,,,,,,,,,,,,,,,,,,,,,,,,,,,,10,009,2022-09-26_09h00.26.061,test2,2022.2.4,59.975826263427095,
0,0,0,0,147,0,147,0,974.527355135,974.527355135,974.527355135,974.527355135,974.527355135,974.527355135,974.527355135,1,-1,rojo,1,['N_A'],976.0451839860001,976.0451839860001,976.0451839860001,976.0451839860001,978.081254111,978.081254111,978.081254111,978.081254111,978.081254111,978.081254111,978.081254111,978.081254111,980.0985324469999,980.0985324469999,980.0985324469999,980.0985324469999,,,,,,,,,,,,,,,,,,,,,,,,,,,,,,,,,,,,,,,10,009,2022-09-26_09h00.26.061,test2,2022.2.4,59.975826263427095,
0,0,0,0,148,0,148,0,980.0985324469999,980.0985324469999,980.0985324469999,980.0985324469999,980.0985324469999,980.0985324469999,980.0985324469999,-1,-1,azul,1,['N_A'],981.8014582,981.8014582,981.8014582,981.8014582,983.8371478560001,983.8371478560001,983.8371478560001,983.8371478560001,983.8371478560001,983.8371478560001,983.8371478560001,983.8371478560001,985.8568807979999,985.8568807979999,985.8568807979999,985.8568807979999,,,,,,,,,,,,,,,,,,,,,,,,,,,,,,,,,,,,,,,10,009,2022-09-26_09h00.26.061,test2,2022.2.4,59.975826263427095,
0,0,0,0,149,0,149,0,985.8568807979999,985.8568807979999,985.8568807979999,985.8568807979999,985.8568807979999,985.8568807979999,985.8568807979999,1,-1,rojo,1,['N_A'],987.2235381290001,987.2235381290001,987.2235381290001,987.2235381290001,989.2608337990001,989.2608337990001,989.2608337990001,989.2608337990001,989.2608337990001,989.2608337990001,989.2608337990001,989.2608337990001,991.277477774,991.277477774,991.277477774,991.277477774,,,,,,,,,,,,,,,,,,,,,,,,,,,,,,,,,,,,,,,10,009,2022-09-26_09h00.26.061,test2,2022.2.4,59.975826263427095,
0,0,0,0,150,0,150,0,991.277477774,991.277477774,991.277477774,991.277477774,991.277477774,991.277477774,991.277477774,1,-1,rojo,0,['N_B'],992.6962003110001,992.6962003110001,992.6962003110001,992.6962003110001,994.7322643880001,994.7322643880001,994.7322643880001,994.7322643880001,994.7322643880001,994.7322643880001,994.7322643880001,994.7322643880001,996.750564782,996.750564782,996.750564782,996.750564782,,,,,,,,,,,,,,,,,,,,,,,,,,,,,,,,,,,,,,,10,009,2022-09-26_09h00.26.061,test2,2022.2.4,59.975826263427095,
0,0,0,0,151,0,151,0,996.750564782,996.750564782,996.750564782,996.750564782,996.750564782,996.750564782,996.750564782,-1,-1,rojo,1,['N_B'],998.15208301,998.15208301,998.15208301,998.15208301,1000.1883388289999,1000.1883388289999,1000.1883388289999,1000.1883388289999,1000.1883388289999,1000.1883388289999,1000.1883388289999,1000.1883388289999,1002.206522993,1002.206522993,1002.206522993,1002.206522993,,,,,,,,,,,,,,,,,,,,,,,,,,,,,,,,,,,,,,,10,009,2022-09-26_09h00.26.061,test2,2022.2.4,59.975826263427095,
0,0,0,0,152,0,152,0,1002.206522993,1002.206522993,1002.206522993,1002.206522993,1002.206522993,1002.206522993,1002.206522993,1,-1,azul,1,['N_B'],1003.658933305,1003.658933305,1003.658933305,1003.658933305,1005.6946758580001,1005.6946758580001,1005.6946758580001,1005.6946758580001,1005.6946758580001,1005.6946758580001,1005.6946758580001,1005.6946758580001,1007.714246525,1007.714246525,1007.714246525,1007.714246525,,,,,,,,,,,,,,,,,,,,,,,,,,,,,,,,,,,,,,,10,009,2022-09-26_09h00.26.061,test2,2022.2.4,59.975826263427095,
0,0,0,0,153,0,153,0,1007.714246525,1007.714246525,1007.714246525,1007.714246525,1007.714246525,1007.714246525,1007.714246525,-1,-1,rojo,1,['N_B'],1009.147899183,1009.147899183,1009.147899183,1009.147899183,1011.183883693,1011.183883693,1011.183883693,1011.183883693,1011.183883693,1011.183883693,1011.183883693,1011.183883693,1013.2016687439999,1013.2016687439999,1013.2016687439999,1013.2016687439999,,,,,,,,,,,,,,,,,,,,,,,,,,,,,,,,,,,,,,,10,009,2022-09-26_09h00.26.061,test2,2022.2.4,59.975826263427095,
0,0,0,0,154,0,154,0,1013.2016687439999,1013.2016687439999,1013.2016687439999,1013.2016687439999,1013.2016687439999,1013.2016687439999,1013.2016687439999,1,-1,azul,1,['N_B'],1014.6543219000001,1014.6543219000001,1014.6543219000001,1014.6543219000001,1016.689987219,1016.689987219,1016.689987219,1016.689987219,1016.689987219,1016.689987219,1016.689987219,1016.689987219,1018.708392077,1018.708392077,1018.708392077,1018.708392077,,,,,,,,,,,,,,,,,,,,,,,,,,,,,,,,,,,,,,,10,009,2022-09-26_09h00.26.061,test2,2022.2.4,59.975826263427095,
0,0,0,0,155,0,155,0,1018.708392077,1018.708392077,1018.708392077,1018.708392077,1018.708392077,1018.708392077,1018.708392077,1,-1,azul,0,['N_A'],1021.1279267430001,1021.1279267430001,1021.1279267430001,1021.1279267430001,1023.1636303209999,1023.1636303209999,1023.1636303209999,1023.1636303209999,1023.1636303209999,1023.1636303209999,1023.1636303209999,1023.1636303209999,1025.1826473830001,1025.1826473830001,1025.1826473830001,1025.1826473830001,,,,,,,,,,,,,,,,,,,,,,,,,,,,,,,,,,,,,,,10,009,2022-09-26_09h00.26.061,test2,2022.2.4,59.975826263427095,
0,0,0,0,156,0,156,0,1025.1826473830001,1025.1826473830001,1025.1826473830001,1025.1826473830001,1025.1826473830001,1025.1826473830001,1025.1826473830001,-1,-1,azul,0,['N_B'],1026.583961799,1026.583961799,1026.583961799,1026.583961799,1028.62009541,1028.62009541,1028.62009541,1028.62009541,1028.62009541,1028.62009541,1028.62009541,1028.62009541,1030.6378360150002,1030.6378360150002,1030.6378360150002,1030.6378360150002,,,,,,,,,,,,,,,,,,,,,,,,,,,,,,,,,,,,,,,10,009,2022-09-26_09h00.26.061,test2,2022.2.4,59.975826263427095,
0,0,0,0,157,0,157,0,1030.6378360150002,1030.6378360150002,1030.6378360150002,1030.6378360150002,1030.6378360150002,1030.6378360150002,1030.6378360150002,1,-1,azul,0,['N_A'],1032.0228517189998,1032.0228517189998,1032.0228517189998,1032.0228517189998,1034.041443232,1034.041443232,1034.041443232,1034.041443232,1034.041443232,1034.041443232,1034.041443232,1034.041443232,1036.061206296,1036.061206296,1036.061206296,1036.061206296,,,,,,,,,,,,,,,,,,,,,,,,,,,,,,,,,,,,,,,10,009,2022-09-26_09h00.26.061,test2,2022.2.4,59.975826263427095,
0,0,0,0,158,0,158,0,1036.061206296,1036.061206296,1036.061206296,1036.061206296,1036.061206296,1036.061206296,1036.061206296,1,1,rojo,0,['N_B'],1037.478818213,1037.478818213,1037.478818213,1037.478818213,1039.498495675,1039.498495675,1039.498495675,1039.498495675,1039.498495675,1039.498495675,1039.498495675,1039.498495675,1041.516464505,1041.516464505,1041.516464505,1041.516464505,,,,,,,,,,,,,,,,,,,,,,,,,,,,,,,,,,,,,,,10,009,2022-09-26_09h00.26.061,test2,2022.2.4,59.975826263427095,
0,0,0,0,159,0,159,0,1041.516464505,1041.516464505,1041.516464505,1041.516464505,1041.516464505,1041.516464505,1041.516464505,-1,1,rojo,0,['N_A'],1042.986030008,1042.986030008,1042.986030008,1042.986030008,1045.004622377,1045.004622377,1045.004622377,1045.004622377,1045.004622377,1045.004622377,1045.004622377,1045.004622377,1047.023106749,1047.023106749,1047.023106749,1047.023106749,,,,,,,,,,,,,,,,,,,,,,,,,,,,,,,,,,,,,,,10,009,2022-09-26_09h00.26.061,test2,2022.2.4,59.975826263427095,
0,0,0,0,160,0,160,0,1047.023106749,1047.023106749,1047.023106749,1047.023106749,1047.023106749,1047.023106749,1047.023106749,1,1,rojo,0,['N_B'],1048.4578399440002,1048.4578399440002,1048.4578399440002,1048.4578399440002,1050.4772418359998,1050.4772418359998,1050.4772418359998,1050.4772418359998,1050.4772418359998,1050.4772418359998,1050.4772418359998,1050.4772418359998,1052.4959309,1052.4959309,1052.4959309,1052.4959309,,,,,,,,,,,,,,,,,,,,,,,,,,,,,,,,,,,,,,,10,009,2022-09-26_09h00.26.061,test2,2022.2.4,59.975826263427095,
0,0,0,0,161,0,161,0,1052.4959309,1052.4959309,1052.4959309,1052.4959309,1052.4959309,1052.4959309,1052.4959309,1,1,azul,0,['N_A'],1054.1486666669998,1054.1486666669998,1054.1486666669998,1054.1486666669998,1056.1670421919998,1056.1670421919998,1056.1670421919998,1056.1670421919998,1056.1670421919998,1056.1670421919998,1056.1670421919998,1056.1670421919998,1058.184758709,1058.184758709,1058.184758709,1058.184758709,,,,,,,,,,,,,,,,,,,,,,,,,,,,,,,,,,,,,,,10,009,2022-09-26_09h00.26.061,test2,2022.2.4,59.975826263427095,
0,0,0,0,162,0,162,0,1058.184758709,1058.184758709,1058.184758709,1058.184758709,1058.184758709,1058.184758709,1058.184758709,-1,-1,azul,0,['N_B'],1059.6032491,1059.6032491,1059.6032491,1059.6032491,1061.63975247,1061.63975247,1061.63975247,1061.63975247,1061.63975247,1061.63975247,1061.63975247,1061.63975247,1063.658487181,1063.658487181,1063.658487181,1063.658487181,,,,,,,,,,,,,,,,,,,,,,,,,,,,,,,,,,,,,,,10,009,2022-09-26_09h00.26.061,test2,2022.2.4,59.975826263427095,
0,0,0,0,163,0,163,0,1063.658487181,1063.658487181,1063.658487181,1063.658487181,1063.658487181,1063.658487181,1063.658487181,-1,-1,rojo,0,['N_A'],1065.093947984,1065.093947984,1065.093947984,1065.093947984,1067.128681348,1067.128681348,1067.128681348,1067.128681348,1067.128681348,1067.128681348,1067.128681348,1067.128681348,1069.1470579269999,1069.1470579269999,1069.1470579269999,1069.1470579269999,,,,,,,,,,,,,,,,,,,,,,,,,,,,,,,,,,,,,,,10,009,2022-09-26_09h00.26.061,test2,2022.2.4,59.975826263427095,
0,0,0,0,164,0,164,0,1069.1470579269999,1069.1470579269999,1069.1470579269999,1069.1470579269999,1069.1470579269999,1069.1470579269999,1069.1470579269999,1,-1,rojo,0,['N_B'],1070.5151668070002,1070.5151668070002,1070.5151668070002,1070.5151668070002,1072.552296541,1072.552296541,1072.552296541,1072.552296541,1072.552296541,1072.552296541,1072.552296541,1072.552296541,1074.5717324510001,1074.5717324510001,1074.5717324510001,1074.5717324510001,,,,,,,,,,,,,,,,,,,,,,,,,,,,,,,,,,,,,,,10,009,2022-09-26_09h00.26.061,test2,2022.2.4,59.975826263427095,
0,0,0,0,165,0,165,0,1074.5717324510001,1074.5717324510001,1074.5717324510001,1074.5717324510001,1074.5717324510001,1074.5717324510001,1074.5717324510001,-1,-1,rojo,0,['N_A'],1076.05431899,1076.05431899,1076.05431899,1076.05431899,1078.0916550759998,1078.0916550759998,1078.0916550759998,1078.0916550759998,1078.0916550759998,1078.0916550759998,1078.0916550759998,1078.0916550759998,1080.109660906,1080.109660906,1080.109660906,1080.109660906,,,,,,,,,,,,,,,,,,,,,,,,,,,,,,,,,,,,,,,10,009,2022-09-26_09h00.26.061,test2,2022.2.4,59.975826263427095,
0,0,0,0,166,0,166,0,1080.109660906,1080.109660906,1080.109660906,1080.109660906,1080.109660906,1080.109660906,1080.109660906,1,-1,rojo,0,['N_B'],1081.4940626399998,1081.4940626399998,1081.4940626399998,1081.4940626399998,1083.5133157770001,1083.5133157770001,1083.5133157770001,1083.5133157770001,1083.5133157770001,1083.5133157770001,1083.5133157770001,1083.5133157770001,1085.531578265,1085.531578265,1085.531578265,1085.531578265,,,,,,,,,,,,,,,,,,,,,,,,,,,,,,,,,,,,,,,10,009,2022-09-26_09h00.26.061,test2,2022.2.4,59.975826263427095,
0,0,0,0,167,0,167,0,1085.531578265,1085.531578265,1085.531578265,1085.531578265,1085.531578265,1085.531578265,1085.531578265,1,1,azul,0,['N_A'],1086.9510453829998,1086.9510453829998,1086.9510453829998,1086.9510453829998,1088.9689980140001,1088.9689980140001,1088.9689980140001,1088.9689980140001,1088.9689980140001,1088.9689980140001,1088.9689980140001,1088.9689980140001,1090.988424747,1090.988424747,1090.988424747,1090.988424747,,,,,,,,,,,,,,,,,,,,,,,,,,,,,,,,,,,,,,,10,009,2022-09-26_09h00.26.061,test2,2022.2.4,59.975826263427095,
0,0,0,0,168,0,168,0,1090.988424747,1090.988424747,1090.988424747,1090.988424747,1090.988424747,1090.988424747,1090.988424747,1,-1,rojo,0,['N_B'],1092.372976266,1092.372976266,1092.372976266,1092.372976266,1094.409794059,1094.409794059,1094.409794059,1094.409794059,1094.409794059,1094.409794059,1094.409794059,1094.409794059,1096.427005651,1096.427005651,1096.427005651,1096.427005651,,,,,,,,,,,,,,,,,,,,,,,,,,,,,,,,,,,,,,,10,009,2022-09-26_09h00.26.061,test2,2022.2.4,59.975826263427095,
0,0,0,0,169,0,169,0,1096.427005651,1096.427005651,1096.427005651,1096.427005651,1096.427005651,1096.427005651,1096.427005651,1,-1,azul,0,['N_A'],1098.02944342,1098.02944342,1098.02944342,1098.02944342,1100.0648358429999,1100.0648358429999,1100.0648358429999,1100.0648358429999,1100.0648358429999,1100.0648358429999,1100.0648358429999,1100.0648358429999,1102.0839798450002,1102.0839798450002,1102.0839798450002,1102.0839798450002,,,,,,,,,,,,,,,,,,,,,,,,,,,,,,,,,,,,,,,10,009,2022-09-26_09h00.26.061,test2,2022.2.4,59.975826263427095,
0,0,0,0,170,0,170,0,1102.0839798450002,1102.0839798450002,1102.0839798450002,1102.0839798450002,1102.0839798450002,1102.0839798450002,1102.0839798450002,1,-1,rojo,0,['N_B'],1103.4684968800002,1103.4684968800002,1103.4684968800002,1103.4684968800002,1105.504967552,1105.504967552,1105.504967552,1105.504967552,1105.504967552,1105.504967552,1105.504967552,1105.504967552,1107.522627707,1107.522627707,1107.522627707,1107.522627707,,,,,,,,,,,,,,,,,,,,,,,,,,,,,,,,,,,,,,,10,009,2022-09-26_09h00.26.061,test2,2022.2.4,59.975826263427095,
0,0,0,0,171,0,171,0,1107.522627707,1107.522627707,1107.522627707,1107.522627707,1107.522627707,1107.522627707,1107.522627707,-1,-1,rojo,0,['N_A'],1109.1078000440002,1109.1078000440002,1109.1078000440002,1109.1078000440002,1111.126871336,1111.126871336,1111.126871336,1111.126871336,1111.126871336,1111.126871336,1111.126871336,1111.126871336,1113.145598645,1113.145598645,1113.145598645,1113.145598645,,,,,,,,,,,,,,,,,,,,,,,,,,,,,,,,,,,,,,,10,009,2022-09-26_09h00.26.061,test2,2022.2.4,59.975826263427095,
0,0,0,0,172,0,172,0,1113.145598645,1113.145598645,1113.145598645,1113.145598645,1113.145598645,1113.145598645,1113.145598645,1,1,rojo,0,['N_B'],1114.5640206960002,1114.5640206960002,1114.5640206960002,1114.5640206960002,1116.5824396439998,1116.5824396439998,1116.5824396439998,1116.5824396439998,1116.5824396439998,1116.5824396439998,1116.5824396439998,1116.5824396439998,1118.6025381499999,1118.6025381499999,1118.6025381499999,1118.6025381499999,,,,,,,,,,,,,,,,,,,,,,,,,,,,,,,,,,,,,,,10,009,2022-09-26_09h00.26.061,test2,2022.2.4,59.975826263427095,
0,0,0,0,173,0,173,0,1118.6025381499999,1118.6025381499999,1118.6025381499999,1118.6025381499999,1118.6025381499999,1118.6025381499999,1118.6025381499999,-1,-1,rojo,0,['N_A'],1120.0371921699998,1120.0371921699998,1120.0371921699998,1120.0371921699998,1122.056397452,1122.056397452,1122.056397452,1122.056397452,1122.056397452,1122.056397452,1122.056397452,1122.056397452,1124.0747956609998,1124.0747956609998,1124.0747956609998,1124.0747956609998,,,,,,,,,,,,,,,,,,,,,,,,,,,,,,,,,,,,,,,10,009,2022-09-26_09h00.26.061,test2,2022.2.4,59.975826263427095,
0,0,0,0,174,0,174,0,1124.0747956609998,1124.0747956609998,1124.0747956609998,1124.0747956609998,1124.0747956609998,1124.0747956609998,1124.0747956609998,1,1,rojo,0,['N_B'],1125.4758622590002,1125.4758622590002,1125.4758622590002,1125.4758622590002,1127.4958036950002,1127.4958036950002,1127.4958036950002,1127.4958036950002,1127.4958036950002,1127.4958036950002,1127.4958036950002,1127.4958036950002,1129.515056239,1129.515056239,1129.515056239,1129.515056239,,,,,,,,,,,,,,,,,,,,,,,,,,,,,,,,,,,,,,,10,009,2022-09-26_09h00.26.061,test2,2022.2.4,59.975826263427095,
0,0,0,0,175,0,175,0,1129.515056239,1129.515056239,1129.515056239,1129.515056239,1129.515056239,1129.515056239,1129.515056239,1,1,azul,0,['N_A'],1131.0155956080002,1131.0155956080002,1131.0155956080002,1131.0155956080002,1133.034857146,1133.034857146,1133.034857146,1133.034857146,1133.034857146,1133.034857146,1133.034857146,1133.034857146,1135.0527976490002,1135.0527976490002,1135.0527976490002,1135.0527976490002,,,,,,,,,,,,,,,,,,,,,,,,,,,,,,,,,,,,,,,10,009,2022-09-26_09h00.26.061,test2,2022.2.4,59.975826263427095,
0,0,0,0,176,0,176,0,1135.0527976490002,1135.0527976490002,1135.0527976490002,1135.0527976490002,1135.0527976490002,1135.0527976490002,1135.0527976490002,1,1,rojo,0,['N_B'],1136.505192513,1136.505192513,1136.505192513,1136.505192513,1138.523846467,1138.523846467,1138.523846467,1138.523846467,1138.523846467,1138.523846467,1138.523846467,1138.523846467,1140.5430565759998,1140.5430565759998,1140.5430565759998,1140.5430565759998,,,,,,,,,,,,,,,,,,,,,,,,,,,,,,,,,,,,,,,10,009,2022-09-26_09h00.26.061,test2,2022.2.4,59.975826263427095,
0,0,0,0,177,0,177,0,1140.5430565759998,1140.5430565759998,1140.5430565759998,1140.5430565759998,1140.5430565759998,1140.5430565759998,1140.5430565759998,-1,-1,rojo,0,['N_A'],1141.9943012449999,1141.9943012449999,1141.9943012449999,1141.9943012449999,1144.013280615,1144.013280615,1144.013280615,1144.013280615,1144.013280615,1144.013280615,1144.013280615,1144.013280615,1146.0320287129998,1146.0320287129998,1146.0320287129998,1146.0320287129998,,,,,,,,,,,,,,,,,,,,,,,,,,,,,,,,,,,,,,,10,009,2022-09-26_09h00.26.061,test2,2022.2.4,59.975826263427095,
0,0,0,0,178,0,178,0,1146.0320287129998,1146.0320287129998,1146.0320287129998,1146.0320287129998,1146.0320287129998,1146.0320287129998,1146.0320287129998,1,1,rojo,0,['N_B'],1147.4342624760002,1147.4342624760002,1147.4342624760002,1147.4342624760002,1149.45244993,1149.45244993,1149.45244993,1149.45244993,1149.45244993,1149.45244993,1149.45244993,1149.45244993,1151.4713963560002,1151.4713963560002,1151.4713963560002,1151.4713963560002,,,,,,,,,,,,,,,,,,,,,,,,,,,,,,,,,,,,,,,10,009,2022-09-26_09h00.26.061,test2,2022.2.4,59.975826263427095,
0,0,0,0,179,0,179,0,1151.4713963560002,1151.4713963560002,1151.4713963560002,1151.4713963560002,1151.4713963560002,1151.4713963560002,1151.4713963560002,1,-1,azul,0,['N_A'],1152.923230676,1152.923230676,1152.923230676,1152.923230676,1154.9415563809998,1154.9415563809998,1154.9415563809998,1154.9415563809998,1154.9415563809998,1154.9415563809998,1154.9415563809998,1154.9415563809998,1156.960369769,1156.960369769,1156.960369769,1156.960369769,,,,,,,,,,,,,,,,,,,,,,,,,,,,,,,,,,,,,,,10,009,2022-09-26_09h00.26.061,test2,2022.2.4,59.975826263427095,
0,0,0,0,180,0,180,0,1156.960369769,1156.960369769,1156.960369769,1156.960369769,1156.960369769,1156.960369769,1156.960369769,1,1,rojo,0,['N_B'],1158.462797519,1158.462797519,1158.462797519,1158.462797519,1160.4814225609998,1160.4814225609998,1160.4814225609998,1160.4814225609998,1160.4814225609998,1160.4814225609998,1160.4814225609998,1160.4814225609998,1162.499957593,1162.499957593,1162.499957593,1162.499957593,,,,,,,,,,,,,,,,,,,,,,,,,,,,,,,,,,,,,,,10,009,2022-09-26_09h00.26.061,test2,2022.2.4,59.975826263427095,
0,0,0,0,181,0,181,0,1162.499957593,1162.499957593,1162.499957593,1162.499957593,1162.499957593,1162.499957593,1162.499957593,1,1,azul,0,['N_A'],1163.9348007059998,1163.9348007059998,1163.9348007059998,1163.9348007059998,1165.954169274,1165.954169274,1165.954169274,1165.954169274,1165.954169274,1165.954169274,1165.954169274,1165.954169274,1167.973983976,1167.973983976,1167.973983976,1167.973983976,,,,,,,,,,,,,,,,,,,,,,,,,,,,,,,,,,,,,,,10,009,2022-09-26_09h00.26.061,test2,2022.2.4,59.975826263427095,
0,0,0,0,182,0,182,0,1167.973983976,1167.973983976,1167.973983976,1167.973983976,1167.973983976,1167.973983976,1167.973983976,1,-1,rojo,0,['N_B'],1169.390673124,1169.390673124,1169.390673124,1169.390673124,1171.428013183,1171.428013183,1171.428013183,1171.428013183,1171.428013183,1171.428013183,1171.428013183,1171.428013183,1173.445261796,1173.445261796,1173.445261796,1173.445261796,,,,,,,,,,,,,,,,,,,,,,,,,,,,,,,,,,,,,,,10,009,2022-09-26_09h00.26.061,test2,2022.2.4,59.975826263427095,
0,0,0,0,183,0,183,0,1173.445261796,1173.445261796,1173.445261796,1173.445261796,1173.445261796,1173.445261796,1173.445261796,1,-1,azul,0,['N_A'],1175.26486006,1175.26486006,1175.26486006,1175.26486006,1177.3015314489999,1177.3015314489999,1177.3015314489999,1177.3015314489999,1177.3015314489999,1177.3015314489999,1177.3015314489999,1177.3015314489999,1179.3182146469999,1179.3182146469999,1179.3182146469999,1179.3182146469999,,,,,,,,,,,,,,,,,,,,,,,,,,,,,,,,,,,,,,,10,009,2022-09-26_09h00.26.061,test2,2022.2.4,59.975826263427095,
0,0,0,0,184,0,184,0,1179.3182146469999,1179.3182146469999,1179.3182146469999,1179.3182146469999,1179.3182146469999,1179.3182146469999,1179.3182146469999,1,-1,rojo,0,['N_B'],1180.7207491109998,1180.7207491109998,1180.7207491109998,1180.7207491109998,1182.757583478,1182.757583478,1182.757583478,1182.757583478,1182.757583478,1182.757583478,1182.757583478,1182.757583478,1184.775627938,1184.775627938,1184.775627938,1184.775627938,,,,,,,,,,,,,,,,,,,,,,,,,,,,,,,,,,,,,,,10,009,2022-09-26_09h00.26.061,test2,2022.2.4,59.975826263427095,
0,0,0,0,185,0,185,0,1184.775627938,1184.775627938,1184.775627938,1184.775627938,1184.775627938,1184.775627938,1184.775627938,1,-1,azul,0,['N_A'],1186.176818329,1186.176818329,1186.176818329,1186.176818329,1188.213516673,1188.213516673,1188.213516673,1188.213516673,1188.213516673,1188.213516673,1188.213516673,1188.213516673,1190.230919606,1190.230919606,1190.230919606,1190.230919606,,,,,,,,,,,,,,,,,,,,,,,,,,,,,,,,,,,,,,,10,009,2022-09-26_09h00.26.061,test2,2022.2.4,59.975826263427095,
0,0,0,0,186,0,186,0,1190.230919606,1190.230919606,1190.230919606,1190.230919606,1190.230919606,1190.230919606,1190.230919606,-1,-1,azul,0,['N_B'],1191.648952738,1191.648952738,1191.648952738,1191.648952738,1193.685323455,1193.685323455,1193.685323455,1193.685323455,1193.685323455,1193.685323455,1193.685323455,1193.685323455,1195.70340593,1195.70340593,1195.70340593,1195.70340593,,,,,,,,,,,,,,,,,,,,,,,,,,,,,,,,,,,,,,,10,009,2022-09-26_09h00.26.061,test2,2022.2.4,59.975826263427095,
0,0,0,0,187,0,187,0,1195.70340593,1195.70340593,1195.70340593,1195.70340593,1195.70340593,1195.70340593,1195.70340593,1,-1,azul,0,['N_A'],1197.489001075,1197.489001075,1197.489001075,1197.489001075,1199.5260251979998,1199.5260251979998,1199.5260251979998,1199.5260251979998,1199.5260251979998,1199.5260251979998,1199.5260251979998,1199.5260251979998,1201.5446436030002,1201.5446436030002,1201.5446436030002,1201.5446436030002,,,,,,,,,,,,,,,,,,,,,,,,,,,,,,,,,,,,,,,10,009,2022-09-26_09h00.26.061,test2,2022.2.4,59.975826263427095,
