trials_2.thisRepN,trials_2.thisTrialN,trials_2.thisN,trials_2.thisIndex,trials.thisRepN,trials.thisTrialN,trials.thisN,trials.thisIndex,Instrucción2.started,N_A_4.started,N_B_4.started,Exitos_3.started,Dias_3.started,Stimuli_1.started,Stimuli_2.started,Transitions,Rewards,Mode,Stay,Neighbour,Stimuli_3.started,Modo.started,Dias2.started,Exitos2.started,Stimuli_3.stopped,Modo.stopped,Dias2.stopped,Exitos2.stopped,Reward.started,Stimuli_reward.started,Exitos3.started,Dias3.started,Reward.stopped,Stimuli_reward.stopped,Exitos3.stopped,Dias3.stopped,Cue_text.started,Stimuli_4.started,Exitos4.started,Dias4.started,Stimuli_3_3.started,Stimuli_2_3.started,Instrucción.started,N_A.started,N_B.started,N_C.started,Exitos_2.started,Dias_2.started,Stimuli_1_3.started,Stimuli_3_2.started,Stimuli_2_2.started,Pregunta.started,N_A_2.started,N_B_2.started,N_C_2.started,Exitos5.started,Dias5.started,Stimuli_1_2.started,Resp_final_1,Modo2.started,Modo1.started,Pregunta_4.started,Modo3.started,Exitos7.started,Dias6.started,Resp_final_2,Modo1_2.started,Pregunta_3.started,Modo2_2.started,Exitos8.started,Dias7.started,Resp_final_3,Mensaje_Final2.started,Exitos6.started,participant,session,date,expName,psychopyVersion,frameRate,
0,0,0,0,0,0,0,0,288.634502389,288.634502389,288.634502389,288.634502389,288.634502389,288.634502389,288.634502389,0,0,0,0,['N_A'],293.954631789,293.954631789,293.954631789,293.954631789,296.02426859700006,296.02426859700006,296.02426859700006,296.02426859700006,296.02426859700006,296.02426859700006,296.02426859700006,296.02426859700006,298.05995103,298.05995103,298.05995103,298.05995103,,,,,,,,,,,,,,,,,,,,,,,,,,,,,,,,,,,,,,,10,012,2022-09-27_14h38.29.068,test2,2022.2.4,59.84011654360488,
0,0,0,0,1,0,1,0,298.05995103,298.05995103,298.05995103,298.05995103,298.05995103,298.05995103,298.05995103,1,-1,rojo,0,['N_B'],302.99859424299996,302.99859424299996,302.99859424299996,302.99859424299996,305.084893698,305.084893698,305.084893698,305.084893698,305.084893698,305.084893698,305.084893698,305.084893698,307.12048771499997,307.12048771499997,307.12048771499997,307.12048771499997,,,,,,,,,,,,,,,,,,,,,,,,,,,,,,,,,,,,,,,10,012,2022-09-27_14h38.29.068,test2,2022.2.4,59.84011654360488,
0,0,0,0,2,0,2,0,307.12048771499997,307.12048771499997,307.12048771499997,307.12048771499997,307.12048771499997,307.12048771499997,307.12048771499997,1,1,azul,1,['N_B'],311.5586417139999,311.5586417139999,311.5586417139999,311.5586417139999,313.576681615,313.576681615,313.576681615,313.576681615,313.576681615,313.576681615,313.576681615,313.576681615,315.61330190499996,315.61330190499996,315.61330190499996,315.61330190499996,,,,,,,,,,,,,,,,,,,,,,,,,,,,,,,,,,,,,,,10,012,2022-09-27_14h38.29.068,test2,2022.2.4,59.84011654360488,
0,0,0,0,3,0,3,0,315.61330190499996,315.61330190499996,315.61330190499996,315.61330190499996,315.61330190499996,315.61330190499996,315.61330190499996,1,-1,azul,0,['N_A'],318.532501624,318.532501624,318.532501624,318.532501624,320.56857713600004,320.56857713600004,320.56857713600004,320.56857713600004,320.56857713600004,320.56857713600004,320.56857713600004,320.56857713600004,322.6042898260001,322.6042898260001,322.6042898260001,322.6042898260001,,,,,,,,,,,,,,,,,,,,,,,,,,,,,,,,,,,,,,,10,012,2022-09-27_14h38.29.068,test2,2022.2.4,59.84011654360488,
0,0,0,0,4,0,4,0,322.6042898260001,322.6042898260001,322.6042898260001,322.6042898260001,322.6042898260001,322.6042898260001,322.6042898260001,1,-1,rojo,0,['N_B'],325.1057187750001,325.1057187750001,325.1057187750001,325.1057187750001,327.142833688,327.142833688,327.142833688,327.142833688,327.142833688,327.142833688,327.142833688,327.142833688,329.177401065,329.177401065,329.177401065,329.177401065,,,,,,,,,,,,,,,,,,,,,,,,,,,,,,,,,,,,,,,10,012,2022-09-27_14h38.29.068,test2,2022.2.4,59.84011654360488,
0,0,0,0,5,0,5,0,329.177401065,329.177401065,329.177401065,329.177401065,329.177401065,329.177401065,329.177401065,1,-1,azul,1,['N_B'],331.31307605099994,331.31307605099994,331.31307605099994,331.31307605099994,333.332067013,333.332067013,333.332067013,333.332067013,333.332067013,333.332067013,333.332067013,333.332067013,335.367481461,335.367481461,335.367481461,335.367481461,,,,,,,,,,,,,,,,,,,,,,,,,,,,,,,,,,,,,,,10,012,2022-09-27_14h38.29.068,test2,2022.2.4,59.84011654360488,
0,0,0,0,6,0,6,0,335.367481461,335.367481461,335.367481461,335.367481461,335.367481461,335.367481461,335.367481461,1,1,azul,1,['N_B'],338.35432953,338.35432953,338.35432953,338.35432953,340.372622877,340.372622877,340.372622877,340.372622877,340.372622877,340.372622877,340.372622877,340.372622877,342.40938149300007,342.40938149300007,342.40938149300007,342.40938149300007,,,,,,,,,,,,,,,,,,,,,,,,,,,,,,,,,,,,,,,10,012,2022-09-27_14h38.29.068,test2,2022.2.4,59.84011654360488,
0,0,0,0,7,0,7,0,342.40938149300007,342.40938149300007,342.40938149300007,342.40938149300007,342.40938149300007,342.40938149300007,342.40938149300007,1,-1,azul,0,['N_A'],344.69379112800004,344.69379112800004,344.69379112800004,344.69379112800004,346.73042457400004,346.73042457400004,346.73042457400004,346.73042457400004,346.73042457400004,346.73042457400004,346.73042457400004,346.73042457400004,348.7658945669999,348.7658945669999,348.7658945669999,348.7658945669999,,,,,,,,,,,,,,,,,,,,,,,,,,,,,,,,,,,,,,,10,012,2022-09-27_14h38.29.068,test2,2022.2.4,59.84011654360488,
0,0,0,0,8,0,8,0,348.7658945669999,348.7658945669999,348.7658945669999,348.7658945669999,348.7658945669999,348.7658945669999,348.7658945669999,-1,-1,azul,1,['N_A'],350.2340127870001,350.2340127870001,350.2340127870001,350.2340127870001,352.25329213299995,352.25329213299995,352.25329213299995,352.25329213299995,352.25329213299995,352.25329213299995,352.25329213299995,352.25329213299995,354.27204390400004,354.27204390400004,354.27204390400004,354.27204390400004,,,,,,,,,,,,,,,,,,,,,,,,,,,,,,,,,,,,,,,10,012,2022-09-27_14h38.29.068,test2,2022.2.4,59.84011654360488,
0,0,0,0,9,0,9,0,354.27204390400004,354.27204390400004,354.27204390400004,354.27204390400004,354.27204390400004,354.27204390400004,354.27204390400004,-1,1,azul,1,['N_A'],357.6760444360001,357.6760444360001,357.6760444360001,357.6760444360001,359.694419198,359.694419198,359.694419198,359.694419198,359.694419198,359.694419198,359.694419198,359.694419198,361.71305473099994,361.71305473099994,361.71305473099994,361.71305473099994,,,,,,,,,,,,,,,,,,,,,,,,,,,,,,,,,,,,,,,10,012,2022-09-27_14h38.29.068,test2,2022.2.4,59.84011654360488,
0,0,0,0,10,0,10,0,361.71305473099994,361.71305473099994,361.71305473099994,361.71305473099994,361.71305473099994,361.71305473099994,361.71305473099994,-1,-1,azul,0,['N_B'],363.782407584,363.782407584,363.782407584,363.782407584,365.818776921,365.818776921,365.818776921,365.818776921,365.818776921,365.818776921,365.818776921,365.818776921,367.83594268800005,367.83594268800005,367.83594268800005,367.83594268800005,,,,,,,,,,,,,,,,,,,,,,,,,,,,,,,,,,,,,,,10,012,2022-09-27_14h38.29.068,test2,2022.2.4,59.84011654360488,
0,0,0,0,11,0,11,0,367.83594268800005,367.83594268800005,367.83594268800005,367.83594268800005,367.83594268800005,367.83594268800005,367.83594268800005,-1,-1,rojo,1,['N_B'],370.1064799720001,370.1064799720001,370.1064799720001,370.1064799720001,372.1256047979999,372.1256047979999,372.1256047979999,372.1256047979999,372.1256047979999,372.1256047979999,372.1256047979999,372.1256047979999,374.143119661,374.143119661,374.143119661,374.143119661,,,,,,,,,,,,,,,,,,,,,,,,,,,,,,,,,,,,,,,10,012,2022-09-27_14h38.29.068,test2,2022.2.4,59.84011654360488,
0,0,0,0,12,0,12,0,374.143119661,374.143119661,374.143119661,374.143119661,374.143119661,374.143119661,374.143119661,-1,1,rojo,1,['N_B'],376.946773345,376.946773345,376.946773345,376.946773345,378.9653164580001,378.9653164580001,378.9653164580001,378.9653164580001,378.9653164580001,378.9653164580001,378.9653164580001,378.9653164580001,380.984620091,380.984620091,380.984620091,380.984620091,,,,,,,,,,,,,,,,,,,,,,,,,,,,,,,,,,,,,,,10,012,2022-09-27_14h38.29.068,test2,2022.2.4,59.84011654360488,
0,0,0,0,13,0,13,0,380.984620091,380.984620091,380.984620091,380.984620091,380.984620091,380.984620091,380.984620091,-1,-1,rojo,0,['N_A'],383.63664139900004,383.63664139900004,383.63664139900004,383.63664139900004,385.65638483400005,385.65638483400005,385.65638483400005,385.65638483400005,385.65638483400005,385.65638483400005,385.65638483400005,385.65638483400005,387.67474342799994,387.67474342799994,387.67474342799994,387.67474342799994,,,,,,,,,,,,,,,,,,,,,,,,,,,,,,,,,,,,,,,10,012,2022-09-27_14h38.29.068,test2,2022.2.4,59.84011654360488,
0,0,0,0,14,0,14,0,387.67474342799994,387.67474342799994,387.67474342799994,387.67474342799994,387.67474342799994,387.67474342799994,387.67474342799994,-1,1,azul,0,['N_B'],392.013705254,392.013705254,392.013705254,392.013705254,394.0323061770001,394.0323061770001,394.0323061770001,394.0323061770001,394.0323061770001,394.0323061770001,394.0323061770001,394.0323061770001,396.050575288,396.050575288,396.050575288,396.050575288,,,,,,,,,,,,,,,,,,,,,,,,,,,,,,,,,,,,,,,10,012,2022-09-27_14h38.29.068,test2,2022.2.4,59.84011654360488,
0,0,0,0,15,0,15,0,396.050575288,396.050575288,396.050575288,396.050575288,396.050575288,396.050575288,396.050575288,1,-1,azul,1,['N_B'],397.5022884630001,397.5022884630001,397.5022884630001,397.5022884630001,399.5389393429999,399.5389393429999,399.5389393429999,399.5389393429999,399.5389393429999,399.5389393429999,399.5389393429999,399.5389393429999,401.55678408100005,401.55678408100005,401.55678408100005,401.55678408100005,,,,,,,,,,,,,,,,,,,,,,,,,,,,,,,,,,,,,,,10,012,2022-09-27_14h38.29.068,test2,2022.2.4,59.84011654360488,
0,0,0,0,16,0,16,0,401.55678408100005,401.55678408100005,401.55678408100005,401.55678408100005,401.55678408100005,401.55678408100005,401.55678408100005,1,-1,azul,0,['N_A'],402.991575656,402.991575656,402.991575656,402.991575656,405.01069750399995,405.01069750399995,405.01069750399995,405.01069750399995,405.01069750399995,405.01069750399995,405.01069750399995,405.01069750399995,407.029670301,407.029670301,407.029670301,407.029670301,,,,,,,,,,,,,,,,,,,,,,,,,,,,,,,,,,,,,,,10,012,2022-09-27_14h38.29.068,test2,2022.2.4,59.84011654360488,
0,0,0,0,17,0,17,0,407.029670301,407.029670301,407.029670301,407.029670301,407.029670301,407.029670301,407.029670301,1,1,rojo,1,['N_A'],408.66484581299994,408.66484581299994,408.66484581299994,408.66484581299994,410.68369153900005,410.68369153900005,410.68369153900005,410.68369153900005,410.68369153900005,410.68369153900005,410.68369153900005,410.68369153900005,412.703923532,412.703923532,412.703923532,412.703923532,,,,,,,,,,,,,,,,,,,,,,,,,,,,,,,,,,,,,,,10,012,2022-09-27_14h38.29.068,test2,2022.2.4,59.84011654360488,
0,0,0,0,18,0,18,0,412.703923532,412.703923532,412.703923532,412.703923532,412.703923532,412.703923532,412.703923532,-1,-1,azul,1,['N_A'],414.63788259499995,414.63788259499995,414.63788259499995,414.63788259499995,416.65695719300004,416.65695719300004,416.65695719300004,416.65695719300004,416.65695719300004,416.65695719300004,416.65695719300004,416.65695719300004,418.6758948790001,418.6758948790001,418.6758948790001,418.6758948790001,,,,,,,,,,,,,,,,,,,,,,,,,,,,,,,,,,,,,,,10,012,2022-09-27_14h38.29.068,test2,2022.2.4,59.84011654360488,
0,0,0,0,19,0,19,0,418.6758948790001,418.6758948790001,418.6758948790001,418.6758948790001,418.6758948790001,418.6758948790001,418.6758948790001,1,1,rojo,1,['N_A'],421.14551326000003,421.14551326000003,421.14551326000003,421.14551326000003,423.16390039600003,423.16390039600003,423.16390039600003,423.16390039600003,423.16390039600003,423.16390039600003,423.16390039600003,423.16390039600003,425.18329617000006,425.18329617000006,425.18329617000006,425.18329617000006,,,,,,,,,,,,,,,,,,,,,,,,,,,,,,,,,,,,,,,10,012,2022-09-27_14h38.29.068,test2,2022.2.4,59.84011654360488,
0,0,0,0,20,0,20,0,425.18329617000006,425.18329617000006,425.18329617000006,425.18329617000006,425.18329617000006,425.18329617000006,425.18329617000006,1,-1,rojo,1,['N_A'],427.9031684360001,427.9031684360001,427.9031684360001,427.9031684360001,429.9389419810001,429.9389419810001,429.9389419810001,429.9389419810001,429.9389419810001,429.9389419810001,429.9389419810001,429.9389419810001,431.95675913799994,431.95675913799994,431.95675913799994,431.95675913799994,,,,,,,,,,,,,,,,,,,,,,,,,,,,,,,,,,,,,,,10,012,2022-09-27_14h38.29.068,test2,2022.2.4,59.84011654360488,
0,0,0,0,21,0,21,0,431.95675913799994,431.95675913799994,431.95675913799994,431.95675913799994,431.95675913799994,431.95675913799994,431.95675913799994,1,-1,rojo,1,['N_A'],433.39214674900006,433.39214674900006,433.39214674900006,433.39214674900006,435.428841605,435.428841605,435.428841605,435.428841605,435.428841605,435.428841605,435.428841605,435.428841605,437.4468995860001,437.4468995860001,437.4468995860001,437.4468995860001,,,,,,,,,,,,,,,,,,,,,,,,,,,,,,,,,,,,,,,10,012,2022-09-27_14h38.29.068,test2,2022.2.4,59.84011654360488,
0,0,0,0,22,0,22,0,437.4468995860001,437.4468995860001,437.4468995860001,437.4468995860001,437.4468995860001,437.4468995860001,437.4468995860001,-1,-1,azul,0,['N_B'],440.20024539400004,440.20024539400004,440.20024539400004,440.20024539400004,442.21896991200003,442.21896991200003,442.21896991200003,442.21896991200003,442.21896991200003,442.21896991200003,442.21896991200003,442.21896991200003,444.2373311330001,444.2373311330001,444.2373311330001,444.2373311330001,,,,,,,,,,,,,,,,,,,,,,,,,,,,,,,,,,,,,,,10,012,2022-09-27_14h38.29.068,test2,2022.2.4,59.84011654360488,
0,0,0,0,23,0,23,0,444.2373311330001,444.2373311330001,444.2373311330001,444.2373311330001,444.2373311330001,444.2373311330001,444.2373311330001,-1,1,rojo,1,['N_B'],445.70615460400006,445.70615460400006,445.70615460400006,445.70615460400006,447.7259393390001,447.7259393390001,447.7259393390001,447.7259393390001,447.7259393390001,447.7259393390001,447.7259393390001,447.7259393390001,449.7431708800001,449.7431708800001,449.7431708800001,449.7431708800001,,,,,,,,,,,,,,,,,,,,,,,,,,,,,,,,,,,,,,,10,012,2022-09-27_14h38.29.068,test2,2022.2.4,59.84011654360488,
0,0,0,0,24,0,24,0,449.7431708800001,449.7431708800001,449.7431708800001,449.7431708800001,449.7431708800001,449.7431708800001,449.7431708800001,1,1,azul,1,['N_B'],451.228680048,451.228680048,451.228680048,451.228680048,453.24832019400003,453.24832019400003,453.24832019400003,453.24832019400003,453.24832019400003,453.24832019400003,453.24832019400003,453.24832019400003,455.265785533,455.265785533,455.265785533,455.265785533,,,,,,,,,,,,,,,,,,,,,,,,,,,,,,,,,,,,,,,10,012,2022-09-27_14h38.29.068,test2,2022.2.4,59.84011654360488,
0,0,0,0,25,0,25,0,455.265785533,455.265785533,455.265785533,455.265785533,455.265785533,455.265785533,455.265785533,-1,-1,rojo,1,['N_B'],456.63457584700006,456.63457584700006,456.63457584700006,456.63457584700006,458.6707757160001,458.6707757160001,458.6707757160001,458.6707757160001,458.6707757160001,458.6707757160001,458.6707757160001,458.6707757160001,460.68865762300004,460.68865762300004,460.68865762300004,460.68865762300004,,,,,,,,,,,,,,,,,,,,,,,,,,,,,,,,,,,,,,,10,012,2022-09-27_14h38.29.068,test2,2022.2.4,59.84011654360488,
0,0,0,0,26,0,26,0,460.68865762300004,460.68865762300004,460.68865762300004,460.68865762300004,460.68865762300004,460.68865762300004,460.68865762300004,-1,-1,rojo,1,['N_B'],462.29059340100014,462.29059340100014,462.29059340100014,462.29059340100014,464.32736851800007,464.32736851800007,464.32736851800007,464.32736851800007,464.32736851800007,464.32736851800007,464.32736851800007,464.32736851800007,466.34476424,466.34476424,466.34476424,466.34476424,,,,,,,,,,,,,,,,,,,,,,,,,,,,,,,,,,,,,,,10,012,2022-09-27_14h38.29.068,test2,2022.2.4,59.84011654360488,
0,0,0,0,27,0,27,0,466.34476424,466.34476424,466.34476424,466.34476424,466.34476424,466.34476424,466.34476424,-1,-1,rojo,1,['N_B'],467.77968819,467.77968819,467.77968819,467.77968819,469.79943296199997,469.79943296199997,469.79943296199997,469.79943296199997,469.79943296199997,469.79943296199997,469.79943296199997,469.79943296199997,471.8172642190001,471.8172642190001,471.8172642190001,471.8172642190001,,,,,,,,,,,,,,,,,,,,,,,,,,,,,,,,,,,,,,,10,012,2022-09-27_14h38.29.068,test2,2022.2.4,59.84011654360488,
0,0,0,0,28,0,28,0,471.8172642190001,471.8172642190001,471.8172642190001,471.8172642190001,471.8172642190001,471.8172642190001,471.8172642190001,1,1,azul,1,['N_B'],474.971018696,474.971018696,474.971018696,474.971018696,476.99063956,476.99063956,476.99063956,476.99063956,476.99063956,476.99063956,476.99063956,476.99063956,479.0089327720001,479.0089327720001,479.0089327720001,479.0089327720001,,,,,,,,,,,,,,,,,,,,,,,,,,,,,,,,,,,,,,,10,012,2022-09-27_14h38.29.068,test2,2022.2.4,59.84011654360488,
0,0,0,0,29,0,29,0,479.0089327720001,479.0089327720001,479.0089327720001,479.0089327720001,479.0089327720001,479.0089327720001,479.0089327720001,1,-1,azul,1,['N_B'],480.595013452,480.595013452,480.595013452,480.595013452,482.61299719300007,482.61299719300007,482.61299719300007,482.61299719300007,482.61299719300007,482.61299719300007,482.61299719300007,482.61299719300007,484.632484374,484.632484374,484.632484374,484.632484374,,,,,,,,,,,,,,,,,,,,,,,,,,,,,,,,,,,,,,,10,012,2022-09-27_14h38.29.068,test2,2022.2.4,59.84011654360488,
0,0,0,0,30,0,30,0,484.632484374,484.632484374,484.632484374,484.632484374,484.632484374,484.632484374,484.632484374,1,1,azul,0,['N_A'],488.33667301799994,488.33667301799994,488.33667301799994,488.33667301799994,490.354609032,490.354609032,490.354609032,490.354609032,490.354609032,490.354609032,490.354609032,490.354609032,492.37337941700014,492.37337941700014,492.37337941700014,492.37337941700014,,,,,,,,,,,,,,,,,,,,,,,,,,,,,,,,,,,,,,,10,012,2022-09-27_14h38.29.068,test2,2022.2.4,59.84011654360488,
0,0,0,0,31,0,31,0,492.37337941700014,492.37337941700014,492.37337941700014,492.37337941700014,492.37337941700014,492.37337941700014,492.37337941700014,1,-1,rojo,0,['N_B'],493.84152146200006,493.84152146200006,493.84152146200006,493.84152146200006,495.8615263380001,495.8615263380001,495.8615263380001,495.8615263380001,495.8615263380001,495.8615263380001,495.8615263380001,495.8615263380001,497.88005790499994,497.88005790499994,497.88005790499994,497.88005790499994,,,,,,,,,,,,,,,,,,,,,,,,,,,,,,,,,,,,,,,10,012,2022-09-27_14h38.29.068,test2,2022.2.4,59.84011654360488,
0,0,0,0,32,0,32,0,497.88005790499994,497.88005790499994,497.88005790499994,497.88005790499994,497.88005790499994,497.88005790499994,497.88005790499994,-1,1,rojo,1,['N_B'],499.315287583,499.315287583,499.315287583,499.315287583,501.334495273,501.334495273,501.334495273,501.334495273,501.334495273,501.334495273,501.334495273,501.334495273,503.352923134,503.352923134,503.352923134,503.352923134,,,,,,,,,,,,,,,,,,,,,,,,,,,,,,,,,,,,,,,10,012,2022-09-27_14h38.29.068,test2,2022.2.4,59.84011654360488,
0,0,0,0,33,0,33,0,503.352923134,503.352923134,503.352923134,503.352923134,503.352923134,503.352923134,503.352923134,1,1,azul,1,['N_B'],505.47143215300014,505.47143215300014,505.47143215300014,505.47143215300014,507.4906628960001,507.4906628960001,507.4906628960001,507.4906628960001,507.4906628960001,507.4906628960001,507.4906628960001,507.4906628960001,509.508898056,509.508898056,509.508898056,509.508898056,,,,,,,,,,,,,,,,,,,,,,,,,,,,,,,,,,,,,,,10,012,2022-09-27_14h38.29.068,test2,2022.2.4,59.84011654360488,
0,0,0,0,34,0,34,0,509.508898056,509.508898056,509.508898056,509.508898056,509.508898056,509.508898056,509.508898056,1,-1,azul,1,['N_B'],510.8620226930001,510.8620226930001,510.8620226930001,510.8620226930001,512.896668403,512.896668403,512.896668403,512.896668403,512.896668403,512.896668403,512.896668403,512.896668403,514.915704528,514.915704528,514.915704528,514.915704528,,,,,,,,,,,,,,,,,,,,,,,,,,,,,,,,,,,,,,,10,012,2022-09-27_14h38.29.068,test2,2022.2.4,59.84011654360488,
0,0,0,0,35,0,35,0,514.915704528,514.915704528,514.915704528,514.915704528,514.915704528,514.915704528,514.915704528,1,-1,azul,1,['N_B'],516.7506150840001,516.7506150840001,516.7506150840001,516.7506150840001,518.7700195620001,518.7700195620001,518.7700195620001,518.7700195620001,518.7700195620001,518.7700195620001,518.7700195620001,518.7700195620001,520.78800242,520.78800242,520.78800242,520.78800242,,,,,,,,,,,,,,,,,,,,,,,,,,,,,,,,,,,,,,,10,012,2022-09-27_14h38.29.068,test2,2022.2.4,59.84011654360488,
0,0,0,0,36,0,36,0,520.78800242,520.78800242,520.78800242,520.78800242,520.78800242,520.78800242,520.78800242,1,1,azul,1,['N_B'],522.340559009,522.340559009,522.340559009,522.340559009,524.3591581879999,524.3591581879999,524.3591581879999,524.3591581879999,524.3591581879999,524.3591581879999,524.3591581879999,524.3591581879999,526.3776192490001,526.3776192490001,526.3776192490001,526.3776192490001,,,,,,,,,,,,,,,,,,,,,,,,,,,,,,,,,,,,,,,10,012,2022-09-27_14h38.29.068,test2,2022.2.4,59.84011654360488,
0,0,0,0,37,0,37,0,526.3776192490001,526.3776192490001,526.3776192490001,526.3776192490001,526.3776192490001,526.3776192490001,526.3776192490001,-1,-1,rojo,0,['N_A'],527.830697148,527.830697148,527.830697148,527.830697148,529.8658225309999,529.8658225309999,529.8658225309999,529.8658225309999,529.8658225309999,529.8658225309999,529.8658225309999,529.8658225309999,531.8839599639999,531.8839599639999,531.8839599639999,531.8839599639999,,,,,,,,,,,,,,,,,,,,,,,,,,,,,,,,,,,,,,,10,012,2022-09-27_14h38.29.068,test2,2022.2.4,59.84011654360488,
0,0,0,0,38,0,38,0,531.8839599639999,531.8839599639999,531.8839599639999,531.8839599639999,531.8839599639999,531.8839599639999,531.8839599639999,-1,-1,azul,1,['N_A'],533.336106607,533.336106607,533.336106607,533.336106607,535.372300894,535.372300894,535.372300894,535.372300894,535.372300894,535.372300894,535.372300894,535.372300894,537.390319381,537.390319381,537.390319381,537.390319381,,,,,,,,,,,,,,,,,,,,,,,,,,,,,,,,,,,,,,,10,012,2022-09-27_14h38.29.068,test2,2022.2.4,59.84011654360488,
0,0,0,0,39,0,39,0,537.390319381,537.390319381,537.390319381,537.390319381,537.390319381,537.390319381,537.390319381,1,-1,rojo,1,['N_A'],538.758127707,538.758127707,538.758127707,538.758127707,540.794707318,540.794707318,540.794707318,540.794707318,540.794707318,540.794707318,540.794707318,540.794707318,542.812228075,542.812228075,542.812228075,542.812228075,,,,,,,,,,,,,,,,,,,,,,,,,,,,,,,,,,,,,,,10,012,2022-09-27_14h38.29.068,test2,2022.2.4,59.84011654360488,
0,0,0,0,40,0,40,0,542.812228075,542.812228075,542.812228075,542.812228075,542.812228075,542.812228075,542.812228075,1,-1,rojo,0,['N_B'],544.2311364400001,544.2311364400001,544.2311364400001,544.2311364400001,546.267651112,546.267651112,546.267651112,546.267651112,546.267651112,546.267651112,546.267651112,546.267651112,548.285187419,548.285187419,548.285187419,548.285187419,,,,,,,,,,,,,,,,,,,,,,,,,,,,,,,,,,,,,,,10,012,2022-09-27_14h38.29.068,test2,2022.2.4,59.84011654360488,
0,0,0,0,41,0,41,0,548.285187419,548.285187419,548.285187419,548.285187419,548.285187419,548.285187419,548.285187419,1,-1,azul,1,['N_B'],549.703581207,549.703581207,549.703581207,549.703581207,551.7398184080001,551.7398184080001,551.7398184080001,551.7398184080001,551.7398184080001,551.7398184080001,551.7398184080001,551.7398184080001,553.7590538370001,553.7590538370001,553.7590538370001,553.7590538370001,,,,,,,,,,,,,,,,,,,,,,,,,,,,,,,,,,,,,,,10,012,2022-09-27_14h38.29.068,test2,2022.2.4,59.84011654360488,
0,0,0,0,42,0,42,0,553.7590538370001,553.7590538370001,553.7590538370001,553.7590538370001,553.7590538370001,553.7590538370001,553.7590538370001,-1,-1,rojo,1,['N_B'],555.126308685,555.126308685,555.126308685,555.126308685,557.162755494,557.162755494,557.162755494,557.162755494,557.162755494,557.162755494,557.162755494,557.162755494,559.181511334,559.181511334,559.181511334,559.181511334,,,,,,,,,,,,,,,,,,,,,,,,,,,,,,,,,,,,,,,10,012,2022-09-27_14h38.29.068,test2,2022.2.4,59.84011654360488,
0,0,0,0,43,0,43,0,559.181511334,559.181511334,559.181511334,559.181511334,559.181511334,559.181511334,559.181511334,1,-1,azul,1,['N_B'],560.5658442499999,560.5658442499999,560.5658442499999,560.5658442499999,562.6016409570001,562.6016409570001,562.6016409570001,562.6016409570001,562.6016409570001,562.6016409570001,562.6016409570001,562.6016409570001,564.6199707520001,564.6199707520001,564.6199707520001,564.6199707520001,,,,,,,,,,,,,,,,,,,,,,,,,,,,,,,,,,,,,,,10,012,2022-09-27_14h38.29.068,test2,2022.2.4,59.84011654360488,
0,0,0,0,44,0,44,0,564.6199707520001,564.6199707520001,564.6199707520001,564.6199707520001,564.6199707520001,564.6199707520001,564.6199707520001,-1,-1,rojo,1,['N_B'],566.4556821929999,566.4556821929999,566.4556821929999,566.4556821929999,568.47472052,568.47472052,568.47472052,568.47472052,568.47472052,568.47472052,568.47472052,568.47472052,570.492805555,570.492805555,570.492805555,570.492805555,,,,,,,,,,,,,,,,,,,,,,,,,,,,,,,,,,,,,,,10,012,2022-09-27_14h38.29.068,test2,2022.2.4,59.84011654360488,
0,0,0,0,45,0,45,0,570.492805555,570.492805555,570.492805555,570.492805555,570.492805555,570.492805555,570.492805555,1,1,azul,1,['N_B'],574.447801943,574.447801943,574.447801943,574.447801943,576.466283224,576.466283224,576.466283224,576.466283224,576.466283224,576.466283224,576.466283224,576.466283224,578.4854342499999,578.4854342499999,578.4854342499999,578.4854342499999,,,,,,,,,,,,,,,,,,,,,,,,,,,,,,,,,,,,,,,10,012,2022-09-27_14h38.29.068,test2,2022.2.4,59.84011654360488,
0,0,0,0,46,0,46,0,578.4854342499999,578.4854342499999,578.4854342499999,578.4854342499999,578.4854342499999,578.4854342499999,578.4854342499999,-1,-1,rojo,0,['N_A'],580.237482229,580.237482229,580.237482229,580.237482229,582.2733385309999,582.2733385309999,582.2733385309999,582.2733385309999,582.2733385309999,582.2733385309999,582.2733385309999,582.2733385309999,584.291991142,584.291991142,584.291991142,584.291991142,,,,,,,,,,,,,,,,,,,,,,,,,,,,,,,,,,,,,,,10,012,2022-09-27_14h38.29.068,test2,2022.2.4,59.84011654360488,
0,0,0,0,47,0,47,0,584.291991142,584.291991142,584.291991142,584.291991142,584.291991142,584.291991142,584.291991142,1,-1,rojo,1,['N_A'],585.926580126,585.926580126,585.926580126,585.926580126,587.96376039,587.96376039,587.96376039,587.96376039,587.96376039,587.96376039,587.96376039,587.96376039,589.9809379879999,589.9809379879999,589.9809379879999,589.9809379879999,,,,,,,,,,,,,,,,,,,,,,,,,,,,,,,,,,,,,,,10,012,2022-09-27_14h38.29.068,test2,2022.2.4,59.84011654360488,
0,0,0,0,48,0,48,0,589.9809379879999,589.9809379879999,589.9809379879999,589.9809379879999,589.9809379879999,589.9809379879999,589.9809379879999,1,-1,rojo,1,['N_A'],591.949731301,591.949731301,591.949731301,591.949731301,593.986218468,593.986218468,593.986218468,593.986218468,593.986218468,593.986218468,593.986218468,593.986218468,596.0044608300001,596.0044608300001,596.0044608300001,596.0044608300001,,,,,,,,,,,,,,,,,,,,,,,,,,,,,,,,,,,,,,,10,012,2022-09-27_14h38.29.068,test2,2022.2.4,59.84011654360488,
0,0,0,0,49,0,49,0,596.0044608300001,596.0044608300001,596.0044608300001,596.0044608300001,596.0044608300001,596.0044608300001,596.0044608300001,1,-1,rojo,0,['N_B'],597.5068491390001,597.5068491390001,597.5068491390001,597.5068491390001,599.525742961,599.525742961,599.525742961,599.525742961,599.525742961,599.525742961,599.525742961,599.525742961,601.5445292600001,601.5445292600001,601.5445292600001,601.5445292600001,,,,,,,,,,,,,,,,,,,,,,,,,,,,,,,,,,,,,,,10,012,2022-09-27_14h38.29.068,test2,2022.2.4,59.84011654360488,
0,0,0,0,50,0,50,0,601.5445292600001,601.5445292600001,601.5445292600001,601.5445292600001,601.5445292600001,601.5445292600001,601.5445292600001,-1,1,rojo,1,['N_B'],603.2965071750001,603.2965071750001,603.2965071750001,603.2965071750001,605.315514027,605.315514027,605.315514027,605.315514027,605.315514027,605.315514027,605.315514027,605.315514027,607.33464907,607.33464907,607.33464907,607.33464907,,,,,,,,,,,,,,,,,,,,,,,,,,,,,,,,,,,,,,,10,012,2022-09-27_14h38.29.068,test2,2022.2.4,59.84011654360488,
0,0,0,0,51,0,51,0,607.33464907,607.33464907,607.33464907,607.33464907,607.33464907,607.33464907,607.33464907,1,-1,azul,1,['N_B'],608.669848336,608.669848336,608.669848336,608.669848336,610.7050415300001,610.7050415300001,610.7050415300001,610.7050415300001,610.7050415300001,610.7050415300001,610.7050415300001,610.7050415300001,612.722942649,612.722942649,612.722942649,612.722942649,,,,,,,,,,,,,,,,,,,,,,,,,,,,,,,,,,,,,,,10,012,2022-09-27_14h38.29.068,test2,2022.2.4,59.84011654360488,
0,0,0,0,52,0,52,0,612.722942649,612.722942649,612.722942649,612.722942649,612.722942649,612.722942649,612.722942649,1,-1,azul,1,['N_B'],614.3757272230001,614.3757272230001,614.3757272230001,614.3757272230001,616.4116718270001,616.4116718270001,616.4116718270001,616.4116718270001,616.4116718270001,616.4116718270001,616.4116718270001,616.4116718270001,618.4296037380001,618.4296037380001,618.4296037380001,618.4296037380001,,,,,,,,,,,,,,,,,,,,,,,,,,,,,,,,,,,,,,,10,012,2022-09-27_14h38.29.068,test2,2022.2.4,59.84011654360488,
0,0,0,0,53,0,53,0,618.4296037380001,618.4296037380001,618.4296037380001,618.4296037380001,618.4296037380001,618.4296037380001,618.4296037380001,-1,-1,rojo,1,['N_B'],619.814882043,619.814882043,619.814882043,619.814882043,621.8511075150001,621.8511075150001,621.8511075150001,621.8511075150001,621.8511075150001,621.8511075150001,621.8511075150001,621.8511075150001,623.869090369,623.869090369,623.869090369,623.869090369,,,,,,,,,,,,,,,,,,,,,,,,,,,,,,,,,,,,,,,10,012,2022-09-27_14h38.29.068,test2,2022.2.4,59.84011654360488,
0,0,0,0,54,0,54,0,623.869090369,623.869090369,623.869090369,623.869090369,623.869090369,623.869090369,623.869090369,-1,-1,rojo,1,['N_B'],625.2543132300001,625.2543132300001,625.2543132300001,625.2543132300001,627.273104133,627.273104133,627.273104133,627.273104133,627.273104133,627.273104133,627.273104133,627.273104133,629.2923600529999,629.2923600529999,629.2923600529999,629.2923600529999,,,,,,,,,,,,,,,,,,,,,,,,,,,,,,,,,,,,,,,10,012,2022-09-27_14h38.29.068,test2,2022.2.4,59.84011654360488,
0,0,0,0,55,0,55,0,629.2923600529999,629.2923600529999,629.2923600529999,629.2923600529999,629.2923600529999,629.2923600529999,629.2923600529999,1,1,azul,1,['N_B'],630.6771318960001,630.6771318960001,630.6771318960001,630.6771318960001,632.694817042,632.694817042,632.694817042,632.694817042,632.694817042,632.694817042,632.694817042,632.694817042,634.7144882599999,634.7144882599999,634.7144882599999,634.7144882599999,,,,,,,,,,,,,,,,,,,,,,,,,,,,,,,,,,,,,,,10,012,2022-09-27_14h38.29.068,test2,2022.2.4,59.84011654360488,
0,0,0,0,56,0,56,0,634.7144882599999,634.7144882599999,634.7144882599999,634.7144882599999,634.7144882599999,634.7144882599999,634.7144882599999,1,-1,azul,1,['N_B'],636.2166078470001,636.2166078470001,636.2166078470001,636.2166078470001,638.252197876,638.252197876,638.252197876,638.252197876,638.252197876,638.252197876,638.252197876,638.252197876,640.2705334610001,640.2705334610001,640.2705334610001,640.2705334610001,,,,,,,,,,,,,,,,,,,,,,,,,,,,,,,,,,,,,,,10,012,2022-09-27_14h38.29.068,test2,2022.2.4,59.84011654360488,
0,0,0,0,57,0,57,0,640.2705334610001,640.2705334610001,640.2705334610001,640.2705334610001,640.2705334610001,640.2705334610001,640.2705334610001,1,-1,azul,1,['N_B'],641.789123052,641.789123052,641.789123052,641.789123052,643.8079481359999,643.8079481359999,643.8079481359999,643.8079481359999,643.8079481359999,643.8079481359999,643.8079481359999,643.8079481359999,645.827130302,645.827130302,645.827130302,645.827130302,,,,,,,,,,,,,,,,,,,,,,,,,,,,,,,,,,,,,,,10,012,2022-09-27_14h38.29.068,test2,2022.2.4,59.84011654360488,
0,0,0,0,58,0,58,0,645.827130302,645.827130302,645.827130302,645.827130302,645.827130302,645.827130302,645.827130302,1,1,azul,1,['N_B'],648.02871262,648.02871262,648.02871262,648.02871262,650.048160083,650.048160083,650.048160083,650.048160083,650.048160083,650.048160083,650.048160083,650.048160083,652.06645023,652.06645023,652.06645023,652.06645023,,,,,,,,,,,,,,,,,,,,,,,,,,,,,,,,,,,,,,,10,012,2022-09-27_14h38.29.068,test2,2022.2.4,59.84011654360488,
0,0,0,0,59,0,59,0,652.06645023,652.06645023,652.06645023,652.06645023,652.06645023,652.06645023,652.06645023,1,1,azul,1,['N_B'],653.9362995560001,653.9362995560001,653.9362995560001,653.9362995560001,655.954515993,655.954515993,655.954515993,655.954515993,655.954515993,655.954515993,655.954515993,655.954515993,657.9735490670001,657.9735490670001,657.9735490670001,657.9735490670001,,,,,,,,,,,,,,,,,,,,,,,,,,,,,,,,,,,,,,,10,012,2022-09-27_14h38.29.068,test2,2022.2.4,59.84011654360488,
0,0,0,0,60,0,60,0,657.9735490670001,657.9735490670001,657.9735490670001,657.9735490670001,657.9735490670001,657.9735490670001,657.9735490670001,1,-1,azul,1,['N_B'],659.374922067,659.374922067,659.374922067,659.374922067,661.39389617,661.39389617,661.39389617,661.39389617,661.39389617,661.39389617,661.39389617,661.39389617,663.412310072,663.412310072,663.412310072,663.412310072,,,,,,,,,,,,,,,,,,,,,,,,,,,,,,,,,,,,,,,10,012,2022-09-27_14h38.29.068,test2,2022.2.4,59.84011654360488,
0,0,0,0,61,0,61,0,663.412310072,663.412310072,663.412310072,663.412310072,663.412310072,663.412310072,663.412310072,1,1,azul,1,['N_B'],664.781126619,664.781126619,664.781126619,664.781126619,666.7991721550001,666.7991721550001,666.7991721550001,666.7991721550001,666.7991721550001,666.7991721550001,666.7991721550001,666.7991721550001,668.8184809380001,668.8184809380001,668.8184809380001,668.8184809380001,,,,,,,,,,,,,,,,,,,,,,,,,,,,,,,,,,,,,,,10,012,2022-09-27_14h38.29.068,test2,2022.2.4,59.84011654360488,
0,0,0,0,62,0,62,0,668.8184809380001,668.8184809380001,668.8184809380001,668.8184809380001,668.8184809380001,668.8184809380001,668.8184809380001,1,-1,azul,0,['N_A'],670.303195934,670.303195934,670.303195934,670.303195934,672.3396098540001,672.3396098540001,672.3396098540001,672.3396098540001,672.3396098540001,672.3396098540001,672.3396098540001,672.3396098540001,674.357806461,674.357806461,674.357806461,674.357806461,,,,,,,,,,,,,,,,,,,,,,,,,,,,,,,,,,,,,,,10,012,2022-09-27_14h38.29.068,test2,2022.2.4,59.84011654360488,
0,0,0,0,63,0,63,0,674.357806461,674.357806461,674.357806461,674.357806461,674.357806461,674.357806461,674.357806461,1,-1,rojo,1,['N_A'],676.143798273,676.143798273,676.143798273,676.143798273,678.179635955,678.179635955,678.179635955,678.179635955,678.179635955,678.179635955,678.179635955,678.179635955,680.197766591,680.197766591,680.197766591,680.197766591,,,,,,,,,,,,,,,,,,,,,,,,,,,,,,,,,,,,,,,10,012,2022-09-27_14h38.29.068,test2,2022.2.4,59.84011654360488,
0,0,0,0,64,0,64,0,680.197766591,680.197766591,680.197766591,680.197766591,680.197766591,680.197766591,680.197766591,1,-1,rojo,1,['N_A'],681.66634493,681.66634493,681.66634493,681.66634493,683.702638178,683.702638178,683.702638178,683.702638178,683.702638178,683.702638178,683.702638178,683.702638178,685.7206214020001,685.7206214020001,685.7206214020001,685.7206214020001,,,,,,,,,,,,,,,,,,,,,,,,,,,,,,,,,,,,,,,10,012,2022-09-27_14h38.29.068,test2,2022.2.4,59.84011654360488,
0,0,0,0,65,0,65,0,685.7206214020001,685.7206214020001,685.7206214020001,685.7206214020001,685.7206214020001,685.7206214020001,685.7206214020001,1,-1,rojo,1,['N_A'],687.7223559810001,687.7223559810001,687.7223559810001,687.7223559810001,689.7583680619999,689.7583680619999,689.7583680619999,689.7583680619999,689.7583680619999,689.7583680619999,689.7583680619999,689.7583680619999,691.7770794030001,691.7770794030001,691.7770794030001,691.7770794030001,,,,,,,,,,,,,,,,,,,,,,,,,,,,,,,,,,,,,,,10,012,2022-09-27_14h38.29.068,test2,2022.2.4,59.84011654360488,
0,0,0,0,66,0,66,0,691.7770794030001,691.7770794030001,691.7770794030001,691.7770794030001,691.7770794030001,691.7770794030001,691.7770794030001,1,-1,rojo,1,['N_A'],693.41265465,693.41265465,693.41265465,693.41265465,695.4483852060001,695.4483852060001,695.4483852060001,695.4483852060001,695.4483852060001,695.4483852060001,695.4483852060001,695.4483852060001,697.466651328,697.466651328,697.466651328,697.466651328,,,,,,,,,,,,,,,,,,,,,,,,,,,,,,,,,,,,,,,10,012,2022-09-27_14h38.29.068,test2,2022.2.4,59.84011654360488,
0,0,0,0,67,0,67,0,697.466651328,697.466651328,697.466651328,697.466651328,697.466651328,697.466651328,697.466651328,1,-1,rojo,1,['N_A'],699.152409922,699.152409922,699.152409922,699.152409922,701.1882902799999,701.1882902799999,701.1882902799999,701.1882902799999,701.1882902799999,701.1882902799999,701.1882902799999,701.1882902799999,703.206466038,703.206466038,703.206466038,703.206466038,,,,,,,,,,,,,,,,,,,,,,,,,,,,,,,,,,,,,,,10,012,2022-09-27_14h38.29.068,test2,2022.2.4,59.84011654360488,
0,0,0,0,68,0,68,0,703.206466038,703.206466038,703.206466038,703.206466038,703.206466038,703.206466038,703.206466038,1,-1,rojo,1,['N_A'],704.7247585030001,704.7247585030001,704.7247585030001,704.7247585030001,706.7608932960001,706.7608932960001,706.7608932960001,706.7608932960001,706.7608932960001,706.7608932960001,706.7608932960001,706.7608932960001,708.779293144,708.779293144,708.779293144,708.779293144,,,,,,,,,,,,,,,,,,,,,,,,,,,,,,,,,,,,,,,10,012,2022-09-27_14h38.29.068,test2,2022.2.4,59.84011654360488,
0,0,0,0,69,0,69,0,708.779293144,708.779293144,708.779293144,708.779293144,708.779293144,708.779293144,708.779293144,-1,-1,azul,1,['N_A'],710.4149344860001,710.4149344860001,710.4149344860001,710.4149344860001,712.4336294020001,712.4336294020001,712.4336294020001,712.4336294020001,712.4336294020001,712.4336294020001,712.4336294020001,712.4336294020001,714.4526490080001,714.4526490080001,714.4526490080001,714.4526490080001,,,,,,,,,,,,,,,,,,,,,,,,,,,,,,,,,,,,,,,10,012,2022-09-27_14h38.29.068,test2,2022.2.4,59.84011654360488,
0,0,0,0,70,0,70,0,714.4526490080001,714.4526490080001,714.4526490080001,714.4526490080001,714.4526490080001,714.4526490080001,714.4526490080001,-1,1,azul,1,['N_A'],715.9869143320001,715.9869143320001,715.9869143320001,715.9869143320001,718.0067246750001,718.0067246750001,718.0067246750001,718.0067246750001,718.0067246750001,718.0067246750001,718.0067246750001,718.0067246750001,720.0248480490001,720.0248480490001,720.0248480490001,720.0248480490001,,,,,,,,,,,,,,,,,,,,,,,,,,,,,,,,,,,,,,,10,012,2022-09-27_14h38.29.068,test2,2022.2.4,59.84011654360488,
0,0,0,0,71,0,71,0,720.0248480490001,720.0248480490001,720.0248480490001,720.0248480490001,720.0248480490001,720.0248480490001,720.0248480490001,-1,1,azul,1,['N_A'],721.4096084650001,721.4096084650001,721.4096084650001,721.4096084650001,723.428441918,723.428441918,723.428441918,723.428441918,723.428441918,723.428441918,723.428441918,723.428441918,725.4476323160001,725.4476323160001,725.4476323160001,725.4476323160001,,,,,,,,,,,,,,,,,,,,,,,,,,,,,,,,,,,,,,,10,012,2022-09-27_14h38.29.068,test2,2022.2.4,59.84011654360488,
0,0,0,0,72,0,72,0,725.4476323160001,725.4476323160001,725.4476323160001,725.4476323160001,725.4476323160001,725.4476323160001,725.4476323160001,1,-1,rojo,1,['N_A'],726.833403386,726.833403386,726.833403386,726.833403386,728.8521942670001,728.8521942670001,728.8521942670001,728.8521942670001,728.8521942670001,728.8521942670001,728.8521942670001,728.8521942670001,730.8702031419999,730.8702031419999,730.8702031419999,730.8702031419999,,,,,,,,,,,,,,,,,,,,,,,,,,,,,,,,,,,,,,,10,012,2022-09-27_14h38.29.068,test2,2022.2.4,59.84011654360488,
0,0,0,0,73,0,73,0,730.8702031419999,730.8702031419999,730.8702031419999,730.8702031419999,730.8702031419999,730.8702031419999,730.8702031419999,-1,1,azul,1,['N_A'],732.855307228,732.855307228,732.855307228,732.855307228,734.874667057,734.874667057,734.874667057,734.874667057,734.874667057,734.874667057,734.874667057,734.874667057,736.894408151,736.894408151,736.894408151,736.894408151,,,,,,,,,,,,,,,,,,,,,,,,,,,,,,,,,,,,,,,10,012,2022-09-27_14h38.29.068,test2,2022.2.4,59.84011654360488,
0,0,0,0,74,0,74,0,736.894408151,736.894408151,736.894408151,736.894408151,736.894408151,736.894408151,736.894408151,1,-1,rojo,1,['N_A'],738.362549239,738.362549239,738.362549239,738.362549239,740.398565268,740.398565268,740.398565268,740.398565268,740.398565268,740.398565268,740.398565268,740.398565268,742.4164207130001,742.4164207130001,742.4164207130001,742.4164207130001,,,,,,,,,,,,,,,,,,,,,,,,,,,,,,,,,,,,,,,10,012,2022-09-27_14h38.29.068,test2,2022.2.4,59.84011654360488,
0,0,0,0,75,0,75,0,742.4164207130001,742.4164207130001,742.4164207130001,742.4164207130001,742.4164207130001,742.4164207130001,742.4164207130001,-1,-1,azul,1,['N_A'],744.002479531,744.002479531,744.002479531,744.002479531,746.0206302739999,746.0206302739999,746.0206302739999,746.0206302739999,746.0206302739999,746.0206302739999,746.0206302739999,746.0206302739999,748.0387614800001,748.0387614800001,748.0387614800001,748.0387614800001,,,,,,,,,,,,,,,,,,,,,,,,,,,,,,,,,,,,,,,10,012,2022-09-27_14h38.29.068,test2,2022.2.4,59.84011654360488,
0,0,0,0,76,0,76,0,748.0387614800001,748.0387614800001,748.0387614800001,748.0387614800001,748.0387614800001,748.0387614800001,748.0387614800001,1,1,rojo,0,['N_B'],749.608255262,749.608255262,749.608255262,749.608255262,751.627365578,751.627365578,751.627365578,751.627365578,751.627365578,751.627365578,751.627365578,751.627365578,753.6453224969999,753.6453224969999,753.6453224969999,753.6453224969999,,,,,,,,,,,,,,,,,,,,,,,,,,,,,,,,,,,,,,,10,012,2022-09-27_14h38.29.068,test2,2022.2.4,59.84011654360488,
0,0,0,0,77,0,77,0,753.6453224969999,753.6453224969999,753.6453224969999,753.6453224969999,753.6453224969999,753.6453224969999,753.6453224969999,-1,-1,rojo,1,['N_B'],755.029757117,755.029757117,755.029757117,755.029757117,757.0494272080001,757.0494272080001,757.0494272080001,757.0494272080001,757.0494272080001,757.0494272080001,757.0494272080001,757.0494272080001,759.06789739,759.06789739,759.06789739,759.06789739,,,,,,,,,,,,,,,,,,,,,,,,,,,,,,,,,,,,,,,10,012,2022-09-27_14h38.29.068,test2,2022.2.4,59.84011654360488,
0,0,0,0,78,0,78,0,759.06789739,759.06789739,759.06789739,759.06789739,759.06789739,759.06789739,759.06789739,-1,1,rojo,1,['N_B'],760.4866987859999,760.4866987859999,760.4866987859999,760.4866987859999,762.5046957860001,762.5046957860001,762.5046957860001,762.5046957860001,762.5046957860001,762.5046957860001,762.5046957860001,762.5046957860001,764.52407729,764.52407729,764.52407729,764.52407729,,,,,,,,,,,,,,,,,,,,,,,,,,,,,,,,,,,,,,,10,012,2022-09-27_14h38.29.068,test2,2022.2.4,59.84011654360488,
0,0,0,0,79,0,79,0,764.52407729,764.52407729,764.52407729,764.52407729,764.52407729,764.52407729,764.52407729,1,-1,azul,1,['N_B'],765.9257372789999,765.9257372789999,765.9257372789999,765.9257372789999,767.962252807,767.962252807,767.962252807,767.962252807,767.962252807,767.962252807,767.962252807,767.962252807,769.9795823820001,769.9795823820001,769.9795823820001,769.9795823820001,,,,,,,,,,,,,,,,,,,,,,,,,,,,,,,,,,,,,,,10,012,2022-09-27_14h38.29.068,test2,2022.2.4,59.84011654360488,
0,0,0,0,80,0,80,0,769.9795823820001,769.9795823820001,769.9795823820001,769.9795823820001,769.9795823820001,769.9795823820001,769.9795823820001,1,-1,azul,1,['N_B'],771.6656535650001,771.6656535650001,771.6656535650001,771.6656535650001,773.7020114139999,773.7020114139999,773.7020114139999,773.7020114139999,773.7020114139999,773.7020114139999,773.7020114139999,773.7020114139999,775.7194955470001,775.7194955470001,775.7194955470001,775.7194955470001,,,,,,,,,,,,,,,,,,,,,,,,,,,,,,,,,,,,,,,10,012,2022-09-27_14h38.29.068,test2,2022.2.4,59.84011654360488,
0,0,0,0,81,0,81,0,775.7194955470001,775.7194955470001,775.7194955470001,775.7194955470001,775.7194955470001,775.7194955470001,775.7194955470001,1,-1,azul,1,['N_B'],777.5213154659999,777.5213154659999,777.5213154659999,777.5213154659999,779.540888306,779.540888306,779.540888306,779.540888306,779.540888306,779.540888306,779.540888306,779.540888306,781.559521622,781.559521622,781.559521622,781.559521622,,,,,,,,,,,,,,,,,,,,,,,,,,,,,,,,,,,,,,,10,012,2022-09-27_14h38.29.068,test2,2022.2.4,59.84011654360488,
0,0,0,0,82,0,82,0,781.559521622,781.559521622,781.559521622,781.559521622,781.559521622,781.559521622,781.559521622,1,1,azul,1,['N_B'],783.6114926230001,783.6114926230001,783.6114926230001,783.6114926230001,785.630288835,785.630288835,785.630288835,785.630288835,785.630288835,785.630288835,785.630288835,785.630288835,787.650918015,787.650918015,787.650918015,787.650918015,,,,,,,,,,,,,,,,,,,,,,,,,,,,,,,,,,,,,,,10,012,2022-09-27_14h38.29.068,test2,2022.2.4,59.84011654360488,
0,0,0,0,83,0,83,0,787.650918015,787.650918015,787.650918015,787.650918015,787.650918015,787.650918015,787.650918015,-1,-1,rojo,1,['N_B'],789.1186265120001,789.1186265120001,789.1186265120001,789.1186265120001,791.154033524,791.154033524,791.154033524,791.154033524,791.154033524,791.154033524,791.154033524,791.154033524,793.172264356,793.172264356,793.172264356,793.172264356,,,,,,,,,,,,,,,,,,,,,,,,,,,,,,,,,,,,,,,10,012,2022-09-27_14h38.29.068,test2,2022.2.4,59.84011654360488,
0,0,0,0,84,0,84,0,793.172264356,793.172264356,793.172264356,793.172264356,793.172264356,793.172264356,793.172264356,1,-1,azul,0,['N_A'],796.3595844120001,796.3595844120001,796.3595844120001,796.3595844120001,798.3788503330001,798.3788503330001,798.3788503330001,798.3788503330001,798.3788503330001,798.3788503330001,798.3788503330001,798.3788503330001,800.396995614,800.396995614,800.396995614,800.396995614,,,,,,,,,,,,,,,,,,,,,,,,,,,,,,,,,,,,,,,10,012,2022-09-27_14h38.29.068,test2,2022.2.4,59.84011654360488,
0,0,0,0,85,0,85,0,800.396995614,800.396995614,800.396995614,800.396995614,800.396995614,800.396995614,800.396995614,1,1,rojo,1,['N_A'],802.0492772250001,802.0492772250001,802.0492772250001,802.0492772250001,804.0681033120001,804.0681033120001,804.0681033120001,804.0681033120001,804.0681033120001,804.0681033120001,804.0681033120001,804.0681033120001,806.0861529740001,806.0861529740001,806.0861529740001,806.0861529740001,,,,,,,,,,,,,,,,,,,,,,,,,,,,,,,,,,,,,,,10,012,2022-09-27_14h38.29.068,test2,2022.2.4,59.84011654360488,
0,0,0,0,86,0,86,0,806.0861529740001,806.0861529740001,806.0861529740001,806.0861529740001,806.0861529740001,806.0861529740001,806.0861529740001,-1,1,azul,1,['N_A'],807.5719110870001,807.5719110870001,807.5719110870001,807.5719110870001,809.5915635590001,809.5915635590001,809.5915635590001,809.5915635590001,809.5915635590001,809.5915635590001,809.5915635590001,809.5915635590001,811.60958803,811.60958803,811.60958803,811.60958803,,,,,,,,,,,,,,,,,,,,,,,,,,,,,,,,,,,,,,,10,012,2022-09-27_14h38.29.068,test2,2022.2.4,59.84011654360488,
0,0,0,0,87,0,87,0,811.60958803,811.60958803,811.60958803,811.60958803,811.60958803,811.60958803,811.60958803,1,1,rojo,1,['N_A'],813.178097369,813.178097369,813.178097369,813.178097369,815.197499261,815.197499261,815.197499261,815.197499261,815.197499261,815.197499261,815.197499261,815.197499261,817.216166279,817.216166279,817.216166279,817.216166279,,,,,,,,,,,,,,,,,,,,,,,,,,,,,,,,,,,,,,,10,012,2022-09-27_14h38.29.068,test2,2022.2.4,59.84011654360488,
0,0,0,0,88,0,88,0,817.216166279,817.216166279,817.216166279,817.216166279,817.216166279,817.216166279,817.216166279,1,1,rojo,1,['N_A'],818.6165396140001,818.6165396140001,818.6165396140001,818.6165396140001,820.6370370160001,820.6370370160001,820.6370370160001,820.6370370160001,820.6370370160001,820.6370370160001,820.6370370160001,820.6370370160001,822.655458782,822.655458782,822.655458782,822.655458782,,,,,,,,,,,,,,,,,,,,,,,,,,,,,,,,,,,,,,,10,012,2022-09-27_14h38.29.068,test2,2022.2.4,59.84011654360488,
0,0,0,0,89,0,89,0,822.655458782,822.655458782,822.655458782,822.655458782,822.655458782,822.655458782,822.655458782,-1,1,azul,1,['N_A'],824.007351738,824.007351738,824.007351738,824.007351738,826.024827476,826.024827476,826.024827476,826.024827476,826.024827476,826.024827476,826.024827476,826.024827476,828.0440088250001,828.0440088250001,828.0440088250001,828.0440088250001,,,,,,,,,,,,,,,,,,,,,,,,,,,,,,,,,,,,,,,10,012,2022-09-27_14h38.29.068,test2,2022.2.4,59.84011654360488,
0,0,0,0,90,0,90,0,828.0440088250001,828.0440088250001,828.0440088250001,828.0440088250001,828.0440088250001,828.0440088250001,828.0440088250001,1,-1,rojo,1,['N_A'],829.42882911,829.42882911,829.42882911,829.42882911,831.4478394680001,831.4478394680001,831.4478394680001,831.4478394680001,831.4478394680001,831.4478394680001,831.4478394680001,831.4478394680001,833.4665248320001,833.4665248320001,833.4665248320001,833.4665248320001,,,,,,,,,,,,,,,,,,,,,,,,,,,,,,,,,,,,,,,10,012,2022-09-27_14h38.29.068,test2,2022.2.4,59.84011654360488,
0,0,0,0,91,0,91,0,833.4665248320001,833.4665248320001,833.4665248320001,833.4665248320001,833.4665248320001,833.4665248320001,833.4665248320001,1,1,rojo,1,['N_A'],834.902277029,834.902277029,834.902277029,834.902277029,836.921292531,836.921292531,836.921292531,836.921292531,836.921292531,836.921292531,836.921292531,836.921292531,838.939335787,838.939335787,838.939335787,838.939335787,,,,,,,,,,,,,,,,,,,,,,,,,,,,,,,,,,,,,,,10,012,2022-09-27_14h38.29.068,test2,2022.2.4,59.84011654360488,
0,0,0,0,92,0,92,0,838.939335787,838.939335787,838.939335787,838.939335787,838.939335787,838.939335787,838.939335787,1,-1,rojo,1,['N_A'],840.4072862900001,840.4072862900001,840.4072862900001,840.4072862900001,842.4270249909999,842.4270249909999,842.4270249909999,842.4270249909999,842.4270249909999,842.4270249909999,842.4270249909999,842.4270249909999,844.445969666,844.445969666,844.445969666,844.445969666,,,,,,,,,,,,,,,,,,,,,,,,,,,,,,,,,,,,,,,10,012,2022-09-27_14h38.29.068,test2,2022.2.4,59.84011654360488,
0,0,0,0,93,0,93,0,844.445969666,844.445969666,844.445969666,844.445969666,844.445969666,844.445969666,844.445969666,1,1,rojo,1,['N_A'],845.7632411370001,845.7632411370001,845.7632411370001,845.7632411370001,847.782937669,847.782937669,847.782937669,847.782937669,847.782937669,847.782937669,847.782937669,847.782937669,849.800886934,849.800886934,849.800886934,849.800886934,,,,,,,,,,,,,,,,,,,,,,,,,,,,,,,,,,,,,,,10,012,2022-09-27_14h38.29.068,test2,2022.2.4,59.84011654360488,
0,0,0,0,94,0,94,0,849.800886934,849.800886934,849.800886934,849.800886934,849.800886934,849.800886934,849.800886934,-1,-1,azul,1,['N_A'],851.236516305,851.236516305,851.236516305,851.236516305,853.272487819,853.272487819,853.272487819,853.272487819,853.272487819,853.272487819,853.272487819,853.272487819,855.2904403650001,855.2904403650001,855.2904403650001,855.2904403650001,,,,,,,,,,,,,,,,,,,,,,,,,,,,,,,,,,,,,,,10,012,2022-09-27_14h38.29.068,test2,2022.2.4,59.84011654360488,
0,0,0,0,95,0,95,0,855.2904403650001,855.2904403650001,855.2904403650001,855.2904403650001,855.2904403650001,855.2904403650001,855.2904403650001,1,-1,rojo,1,['N_A'],856.692598492,856.692598492,856.692598492,856.692598492,858.728144586,858.728144586,858.728144586,858.728144586,858.728144586,858.728144586,858.728144586,858.728144586,860.7464554710001,860.7464554710001,860.7464554710001,860.7464554710001,,,,,,,,,,,,,,,,,,,,,,,,,,,,,,,,,,,,,,,10,012,2022-09-27_14h38.29.068,test2,2022.2.4,59.84011654360488,
0,0,0,0,96,0,96,0,860.7464554710001,860.7464554710001,860.7464554710001,860.7464554710001,860.7464554710001,860.7464554710001,860.7464554710001,-1,-1,azul,1,['N_A'],862.1488252170001,862.1488252170001,862.1488252170001,862.1488252170001,864.1844403460001,864.1844403460001,864.1844403460001,864.1844403460001,864.1844403460001,864.1844403460001,864.1844403460001,864.1844403460001,866.202988783,866.202988783,866.202988783,866.202988783,,,,,,,,,,,,,,,,,,,,,,,,,,,,,,,,,,,,,,,10,012,2022-09-27_14h38.29.068,test2,2022.2.4,59.84011654360488,
0,0,0,0,97,0,97,0,866.202988783,866.202988783,866.202988783,866.202988783,866.202988783,866.202988783,866.202988783,1,-1,rojo,1,['N_A'],868.121934099,868.121934099,868.121934099,868.121934099,870.157741616,870.157741616,870.157741616,870.157741616,870.157741616,870.157741616,870.157741616,870.157741616,872.175769051,872.175769051,872.175769051,872.175769051,,,,,,,,,,,,,,,,,,,,,,,,,,,,,,,,,,,,,,,10,012,2022-09-27_14h38.29.068,test2,2022.2.4,59.84011654360488,
0,0,0,0,98,0,98,0,872.175769051,872.175769051,872.175769051,872.175769051,872.175769051,872.175769051,872.175769051,-1,-1,azul,1,['N_A'],874.344744443,874.344744443,874.344744443,874.344744443,876.3818503630001,876.3818503630001,876.3818503630001,876.3818503630001,876.3818503630001,876.3818503630001,876.3818503630001,876.3818503630001,878.4004589090001,878.4004589090001,878.4004589090001,878.4004589090001,,,,,,,,,,,,,,,,,,,,,,,,,,,,,,,,,,,,,,,10,012,2022-09-27_14h38.29.068,test2,2022.2.4,59.84011654360488,
0,0,0,0,99,0,99,0,878.4004589090001,878.4004589090001,878.4004589090001,878.4004589090001,878.4004589090001,878.4004589090001,878.4004589090001,1,-1,rojo,1,['N_A'],879.88482848,879.88482848,879.88482848,879.88482848,881.904333979,881.904333979,881.904333979,881.904333979,881.904333979,881.904333979,881.904333979,881.904333979,883.9229683039999,883.9229683039999,883.9229683039999,883.9229683039999,,,,,,,,,,,,,,,,,,,,,,,,,,,,,,,,,,,,,,,10,012,2022-09-27_14h38.29.068,test2,2022.2.4,59.84011654360488,
0,0,0,0,100,0,100,0,883.9229683039999,883.9229683039999,883.9229683039999,883.9229683039999,883.9229683039999,883.9229683039999,883.9229683039999,1,1,rojo,1,['N_A'],888.1605363330001,888.1605363330001,888.1605363330001,888.1605363330001,890.17895999,890.17895999,890.17895999,890.17895999,890.17895999,890.17895999,890.17895999,890.17895999,892.198644054,892.198644054,892.198644054,892.198644054,,,,,,,,,,,,,,,,,,,,,,,,,,,,,,,,,,,,,,,10,012,2022-09-27_14h38.29.068,test2,2022.2.4,59.84011654360488,
0,0,0,0,101,0,101,0,892.198644054,892.198644054,892.198644054,892.198644054,892.198644054,892.198644054,892.198644054,1,-1,rojo,1,['N_A'],894.967612412,894.967612412,894.967612412,894.967612412,897.004855449,897.004855449,897.004855449,897.004855449,897.004855449,897.004855449,897.004855449,897.004855449,899.023515081,899.023515081,899.023515081,899.023515081,,,,,,,,,,,,,,,,,,,,,,,,,,,,,,,,,,,,,,,10,012,2022-09-27_14h38.29.068,test2,2022.2.4,59.84011654360488,
0,0,0,0,102,0,102,0,899.023515081,899.023515081,899.023515081,899.023515081,899.023515081,899.023515081,899.023515081,-1,-1,azul,1,['N_A'],900.7246659159999,900.7246659159999,900.7246659159999,900.7246659159999,902.7610198190001,902.7610198190001,902.7610198190001,902.7610198190001,902.7610198190001,902.7610198190001,902.7610198190001,902.7610198190001,904.7787422960001,904.7787422960001,904.7787422960001,904.7787422960001,,,,,,,,,,,,,,,,,,,,,,,,,,,,,,,,,,,,,,,10,012,2022-09-27_14h38.29.068,test2,2022.2.4,59.84011654360488,
0,0,0,0,103,0,103,0,904.7787422960001,904.7787422960001,904.7787422960001,904.7787422960001,904.7787422960001,904.7787422960001,904.7787422960001,1,-1,rojo,1,['N_A'],906.2634698640001,906.2634698640001,906.2634698640001,906.2634698640001,908.283439785,908.283439785,908.283439785,908.283439785,908.283439785,908.283439785,908.283439785,908.283439785,910.3015958699999,910.3015958699999,910.3015958699999,910.3015958699999,,,,,,,,,,,,,,,,,,,,,,,,,,,,,,,,,,,,,,,10,012,2022-09-27_14h38.29.068,test2,2022.2.4,59.84011654360488,
0,0,0,0,104,0,104,0,910.3015958699999,910.3015958699999,910.3015958699999,910.3015958699999,910.3015958699999,910.3015958699999,910.3015958699999,1,1,rojo,1,['N_A'],911.787023088,911.787023088,911.787023088,911.787023088,913.8051524389999,913.8051524389999,913.8051524389999,913.8051524389999,913.8051524389999,913.8051524389999,913.8051524389999,913.8051524389999,915.824117519,915.824117519,915.824117519,915.824117519,,,,,,,,,,,,,,,,,,,,,,,,,,,,,,,,,,,,,,,10,012,2022-09-27_14h38.29.068,test2,2022.2.4,59.84011654360488,
0,0,0,0,105,0,105,0,915.824117519,915.824117519,915.824117519,915.824117519,915.824117519,915.824117519,915.824117519,-1,-1,azul,1,['N_A'],917.1923697420001,917.1923697420001,917.1923697420001,917.1923697420001,919.211125643,919.211125643,919.211125643,919.211125643,919.211125643,919.211125643,919.211125643,919.211125643,921.230962175,921.230962175,921.230962175,921.230962175,,,,,,,,,,,,,,,,,,,,,,,,,,,,,,,,,,,,,,,10,012,2022-09-27_14h38.29.068,test2,2022.2.4,59.84011654360488,
0,0,0,0,106,0,106,0,921.230962175,921.230962175,921.230962175,921.230962175,921.230962175,921.230962175,921.230962175,1,1,rojo,1,['N_A'],923.266255592,923.266255592,923.266255592,923.266255592,925.284583428,925.284583428,925.284583428,925.284583428,925.284583428,925.284583428,925.284583428,925.284583428,927.303636253,927.303636253,927.303636253,927.303636253,,,,,,,,,,,,,,,,,,,,,,,,,,,,,,,,,,,,,,,10,012,2022-09-27_14h38.29.068,test2,2022.2.4,59.84011654360488,
0,0,0,0,107,0,107,0,927.303636253,927.303636253,927.303636253,927.303636253,927.303636253,927.303636253,927.303636253,1,-1,rojo,1,['N_A'],928.688883331,928.688883331,928.688883331,928.688883331,930.7076795930001,930.7076795930001,930.7076795930001,930.7076795930001,930.7076795930001,930.7076795930001,930.7076795930001,930.7076795930001,932.726370969,932.726370969,932.726370969,932.726370969,,,,,,,,,,,,,,,,,,,,,,,,,,,,,,,,,,,,,,,10,012,2022-09-27_14h38.29.068,test2,2022.2.4,59.84011654360488,
0,0,0,0,108,0,108,0,932.726370969,932.726370969,932.726370969,932.726370969,932.726370969,932.726370969,932.726370969,1,1,rojo,1,['N_A'],934.361103613,934.361103613,934.361103613,934.361103613,936.3812000470001,936.3812000470001,936.3812000470001,936.3812000470001,936.3812000470001,936.3812000470001,936.3812000470001,936.3812000470001,938.4002851680001,938.4002851680001,938.4002851680001,938.4002851680001,,,,,,,,,,,,,,,,,,,,,,,,,,,,,,,,,,,,,,,10,012,2022-09-27_14h38.29.068,test2,2022.2.4,59.84011654360488,
0,0,0,0,109,0,109,0,938.4002851680001,938.4002851680001,938.4002851680001,938.4002851680001,938.4002851680001,938.4002851680001,938.4002851680001,1,1,rojo,1,['N_A'],941.8364710879999,941.8364710879999,941.8364710879999,941.8364710879999,943.855505288,943.855505288,943.855505288,943.855505288,943.855505288,943.855505288,943.855505288,943.855505288,945.873714744,945.873714744,945.873714744,945.873714744,,,,,,,,,,,,,,,,,,,,,,,,,,,,,,,,,,,,,,,10,012,2022-09-27_14h38.29.068,test2,2022.2.4,59.84011654360488,
0,0,0,0,110,0,110,0,945.873714744,945.873714744,945.873714744,945.873714744,945.873714744,945.873714744,945.873714744,-1,-1,azul,1,['N_A'],948.043372898,948.043372898,948.043372898,948.043372898,950.07947011,950.07947011,950.07947011,950.07947011,950.07947011,950.07947011,950.07947011,950.07947011,952.0972264430001,952.0972264430001,952.0972264430001,952.0972264430001,,,,,,,,,,,,,,,,,,,,,,,,,,,,,,,,,,,,,,,10,012,2022-09-27_14h38.29.068,test2,2022.2.4,59.84011654360488,
0,0,0,0,111,0,111,0,952.0972264430001,952.0972264430001,952.0972264430001,952.0972264430001,952.0972264430001,952.0972264430001,952.0972264430001,1,-1,rojo,1,['N_A'],954.150061528,954.150061528,954.150061528,954.150061528,956.186475932,956.186475932,956.186475932,956.186475932,956.186475932,956.186475932,956.186475932,956.186475932,958.2042611549999,958.2042611549999,958.2042611549999,958.2042611549999,,,,,,,,,,,,,,,,,,,,,,,,,,,,,,,,,,,,,,,10,012,2022-09-27_14h38.29.068,test2,2022.2.4,59.84011654360488,
0,0,0,0,112,0,112,0,958.2042611549999,958.2042611549999,958.2042611549999,958.2042611549999,958.2042611549999,958.2042611549999,958.2042611549999,1,-1,rojo,1,['N_A'],960.0231502729999,960.0231502729999,960.0231502729999,960.0231502729999,962.041395222,962.041395222,962.041395222,962.041395222,962.041395222,962.041395222,962.041395222,962.041395222,964.060642667,964.060642667,964.060642667,964.060642667,,,,,,,,,,,,,,,,,,,,,,,,,,,,,,,,,,,,,,,10,012,2022-09-27_14h38.29.068,test2,2022.2.4,59.84011654360488,
0,0,0,0,113,0,113,0,964.060642667,964.060642667,964.060642667,964.060642667,964.060642667,964.060642667,964.060642667,1,1,rojo,1,['N_A'],965.6122088820001,965.6122088820001,965.6122088820001,965.6122088820001,967.6326761230001,967.6326761230001,967.6326761230001,967.6326761230001,967.6326761230001,967.6326761230001,967.6326761230001,967.6326761230001,969.65122925,969.65122925,969.65122925,969.65122925,,,,,,,,,,,,,,,,,,,,,,,,,,,,,,,,,,,,,,,10,012,2022-09-27_14h38.29.068,test2,2022.2.4,59.84011654360488,
0,0,0,0,114,0,114,0,969.65122925,969.65122925,969.65122925,969.65122925,969.65122925,969.65122925,969.65122925,1,1,rojo,1,['N_A'],971.08473668,971.08473668,971.08473668,971.08473668,973.104762734,973.104762734,973.104762734,973.104762734,973.104762734,973.104762734,973.104762734,973.104762734,975.1235813679999,975.1235813679999,975.1235813679999,975.1235813679999,,,,,,,,,,,,,,,,,,,,,,,,,,,,,,,,,,,,,,,10,012,2022-09-27_14h38.29.068,test2,2022.2.4,59.84011654360488,
0,0,0,0,115,0,115,0,975.1235813679999,975.1235813679999,975.1235813679999,975.1235813679999,975.1235813679999,975.1235813679999,975.1235813679999,-1,-1,azul,1,['N_A'],976.808578324,976.808578324,976.808578324,976.808578324,978.8270721990001,978.8270721990001,978.8270721990001,978.8270721990001,978.8270721990001,978.8270721990001,978.8270721990001,978.8270721990001,980.845784576,980.845784576,980.845784576,980.845784576,,,,,,,,,,,,,,,,,,,,,,,,,,,,,,,,,,,,,,,10,012,2022-09-27_14h38.29.068,test2,2022.2.4,59.84011654360488,
0,0,0,0,116,0,116,0,980.845784576,980.845784576,980.845784576,980.845784576,980.845784576,980.845784576,980.845784576,1,1,rojo,1,['N_A'],987.770396371,987.770396371,987.770396371,987.770396371,989.7893930270001,989.7893930270001,989.7893930270001,989.7893930270001,989.7893930270001,989.7893930270001,989.7893930270001,989.7893930270001,991.80762737,991.80762737,991.80762737,991.80762737,,,,,,,,,,,,,,,,,,,,,,,,,,,,,,,,,,,,,,,10,012,2022-09-27_14h38.29.068,test2,2022.2.4,59.84011654360488,
0,0,0,0,117,0,117,0,991.80762737,991.80762737,991.80762737,991.80762737,991.80762737,991.80762737,991.80762737,1,-1,rojo,1,['N_A'],993.6111695579999,993.6111695579999,993.6111695579999,993.6111695579999,995.646785794,995.646785794,995.646785794,995.646785794,995.646785794,995.646785794,995.646785794,995.646785794,997.6642830249999,997.6642830249999,997.6642830249999,997.6642830249999,,,,,,,,,,,,,,,,,,,,,,,,,,,,,,,,,,,,,,,10,012,2022-09-27_14h38.29.068,test2,2022.2.4,59.84011654360488,
0,0,0,0,118,0,118,0,997.6642830249999,997.6642830249999,997.6642830249999,997.6642830249999,997.6642830249999,997.6642830249999,997.6642830249999,1,-1,rojo,1,['N_A'],999.2997235629999,999.2997235629999,999.2997235629999,999.2997235629999,1001.335631802,1001.335631802,1001.335631802,1001.335631802,1001.335631802,1001.335631802,1001.335631802,1001.335631802,1003.355043742,1003.355043742,1003.355043742,1003.355043742,,,,,,,,,,,,,,,,,,,,,,,,,,,,,,,,,,,,,,,10,012,2022-09-27_14h38.29.068,test2,2022.2.4,59.84011654360488,
0,0,0,0,119,0,119,0,1003.355043742,1003.355043742,1003.355043742,1003.355043742,1003.355043742,1003.355043742,1003.355043742,1,-1,rojo,1,['N_A'],1004.8896123620001,1004.8896123620001,1004.8896123620001,1004.8896123620001,1006.9083789980001,1006.9083789980001,1006.9083789980001,1006.9083789980001,1006.9083789980001,1006.9083789980001,1006.9083789980001,1006.9083789980001,1008.927031673,1008.927031673,1008.927031673,1008.927031673,,,,,,,,,,,,,,,,,,,,,,,,,,,,,,,,,,,,,,,10,012,2022-09-27_14h38.29.068,test2,2022.2.4,59.84011654360488,
0,0,0,0,120,0,120,0,1008.927031673,1008.927031673,1008.927031673,1008.927031673,1008.927031673,1008.927031673,1008.927031673,1,1,rojo,1,['N_A'],1011.5635431239999,1011.5635431239999,1011.5635431239999,1011.5635431239999,1013.58179822,1013.58179822,1013.58179822,1013.58179822,1013.58179822,1013.58179822,1013.58179822,1013.58179822,1015.601487924,1015.601487924,1015.601487924,1015.601487924,,,,,,,,,,,,,,,,,,,,,,,,,,,,,,,,,,,,,,,10,012,2022-09-27_14h38.29.068,test2,2022.2.4,59.84011654360488,
0,0,0,0,121,0,121,0,1015.601487924,1015.601487924,1015.601487924,1015.601487924,1015.601487924,1015.601487924,1015.601487924,1,-1,rojo,1,['N_A'],1017.152647646,1017.152647646,1017.152647646,1017.152647646,1019.1886583050001,1019.1886583050001,1019.1886583050001,1019.1886583050001,1019.1886583050001,1019.1886583050001,1019.1886583050001,1019.1886583050001,1021.207013997,1021.207013997,1021.207013997,1021.207013997,,,,,,,,,,,,,,,,,,,,,,,,,,,,,,,,,,,,,,,10,012,2022-09-27_14h38.29.068,test2,2022.2.4,59.84011654360488,
0,0,0,0,122,0,122,0,1021.207013997,1021.207013997,1021.207013997,1021.207013997,1021.207013997,1021.207013997,1021.207013997,1,-1,rojo,1,['N_A'],1022.892430604,1022.892430604,1022.892430604,1022.892430604,1024.911132793,1024.911132793,1024.911132793,1024.911132793,1024.911132793,1024.911132793,1024.911132793,1024.911132793,1026.9302477330002,1026.9302477330002,1026.9302477330002,1026.9302477330002,,,,,,,,,,,,,,,,,,,,,,,,,,,,,,,,,,,,,,,10,012,2022-09-27_14h38.29.068,test2,2022.2.4,59.84011654360488,
0,0,0,0,123,0,123,0,1026.9302477330002,1026.9302477330002,1026.9302477330002,1026.9302477330002,1026.9302477330002,1026.9302477330002,1026.9302477330002,-1,1,azul,1,['N_A'],1028.4989284170001,1028.4989284170001,1028.4989284170001,1028.4989284170001,1030.5184013409998,1030.5184013409998,1030.5184013409998,1030.5184013409998,1030.5184013409998,1030.5184013409998,1030.5184013409998,1030.5184013409998,1032.535988476,1032.535988476,1032.535988476,1032.535988476,,,,,,,,,,,,,,,,,,,,,,,,,,,,,,,,,,,,,,,10,012,2022-09-27_14h38.29.068,test2,2022.2.4,59.84011654360488,
0,0,0,0,124,0,124,0,1032.535988476,1032.535988476,1032.535988476,1032.535988476,1032.535988476,1032.535988476,1032.535988476,1,1,rojo,1,['N_A'],1034.6224593400002,1034.6224593400002,1034.6224593400002,1034.6224593400002,1036.6404994069999,1036.6404994069999,1036.6404994069999,1036.6404994069999,1036.6404994069999,1036.6404994069999,1036.6404994069999,1036.6404994069999,1038.659584558,1038.659584558,1038.659584558,1038.659584558,,,,,,,,,,,,,,,,,,,,,,,,,,,,,,,,,,,,,,,10,012,2022-09-27_14h38.29.068,test2,2022.2.4,59.84011654360488,
0,0,0,0,125,0,125,0,1038.659584558,1038.659584558,1038.659584558,1038.659584558,1038.659584558,1038.659584558,1038.659584558,1,-1,rojo,1,['N_A'],1043.06441628,1043.06441628,1043.06441628,1043.06441628,1045.100690785,1045.100690785,1045.100690785,1045.100690785,1045.100690785,1045.100690785,1045.100690785,1045.100690785,1047.118640267,1047.118640267,1047.118640267,1047.118640267,,,,,,,,,,,,,,,,,,,,,,,,,,,,,,,,,,,,,,,10,012,2022-09-27_14h38.29.068,test2,2022.2.4,59.84011654360488,
0,0,0,0,126,0,126,0,1047.118640267,1047.118640267,1047.118640267,1047.118640267,1047.118640267,1047.118640267,1047.118640267,1,-1,rojo,1,['N_A'],1048.821441824,1048.821441824,1048.821441824,1048.821441824,1050.8574957229998,1050.8574957229998,1050.8574957229998,1050.8574957229998,1050.8574957229998,1050.8574957229998,1050.8574957229998,1050.8574957229998,1052.875928682,1052.875928682,1052.875928682,1052.875928682,,,,,,,,,,,,,,,,,,,,,,,,,,,,,,,,,,,,,,,10,012,2022-09-27_14h38.29.068,test2,2022.2.4,59.84011654360488,
0,0,0,0,127,0,127,0,1052.875928682,1052.875928682,1052.875928682,1052.875928682,1052.875928682,1052.875928682,1052.875928682,-1,-1,azul,1,['N_A'],1054.2768294890002,1054.2768294890002,1054.2768294890002,1054.2768294890002,1056.2961296039998,1056.2961296039998,1056.2961296039998,1056.2961296039998,1056.2961296039998,1056.2961296039998,1056.2961296039998,1056.2961296039998,1058.31547594,1058.31547594,1058.31547594,1058.31547594,,,,,,,,,,,,,,,,,,,,,,,,,,,,,,,,,,,,,,,10,012,2022-09-27_14h38.29.068,test2,2022.2.4,59.84011654360488,
0,0,0,0,128,0,128,0,1058.31547594,1058.31547594,1058.31547594,1058.31547594,1058.31547594,1058.31547594,1058.31547594,1,1,rojo,1,['N_A'],1059.7177011909998,1059.7177011909998,1059.7177011909998,1059.7177011909998,1061.735129305,1061.735129305,1061.735129305,1061.735129305,1061.735129305,1061.735129305,1061.735129305,1061.735129305,1063.7539260899998,1063.7539260899998,1063.7539260899998,1063.7539260899998,,,,,,,,,,,,,,,,,,,,,,,,,,,,,,,,,,,,,,,10,012,2022-09-27_14h38.29.068,test2,2022.2.4,59.84011654360488,
0,0,0,0,129,0,129,0,1063.7539260899998,1063.7539260899998,1063.7539260899998,1063.7539260899998,1063.7539260899998,1063.7539260899998,1063.7539260899998,-1,-1,azul,1,['N_A'],1065.8233885569998,1065.8233885569998,1065.8233885569998,1065.8233885569998,1067.859119026,1067.859119026,1067.859119026,1067.859119026,1067.859119026,1067.859119026,1067.859119026,1067.859119026,1069.877247885,1069.877247885,1069.877247885,1069.877247885,,,,,,,,,,,,,,,,,,,,,,,,,,,,,,,,,,,,,,,10,012,2022-09-27_14h38.29.068,test2,2022.2.4,59.84011654360488,
0,0,0,0,130,0,130,0,1069.877247885,1069.877247885,1069.877247885,1069.877247885,1069.877247885,1069.877247885,1069.877247885,-1,-1,azul,1,['N_A'],1071.4299787149998,1071.4299787149998,1071.4299787149998,1071.4299787149998,1073.4477232630002,1073.4477232630002,1073.4477232630002,1073.4477232630002,1073.4477232630002,1073.4477232630002,1073.4477232630002,1073.4477232630002,1075.4672170570002,1075.4672170570002,1075.4672170570002,1075.4672170570002,,,,,,,,,,,,,,,,,,,,,,,,,,,,,,,,,,,,,,,10,012,2022-09-27_14h38.29.068,test2,2022.2.4,59.84011654360488,
0,0,0,0,131,0,131,0,1075.4672170570002,1075.4672170570002,1075.4672170570002,1075.4672170570002,1075.4672170570002,1075.4672170570002,1075.4672170570002,1,1,rojo,1,['N_A'],1076.902526241,1076.902526241,1076.902526241,1076.902526241,1078.920579959,1078.920579959,1078.920579959,1078.920579959,1078.920579959,1078.920579959,1078.920579959,1078.920579959,1080.940515456,1080.940515456,1080.940515456,1080.940515456,,,,,,,,,,,,,,,,,,,,,,,,,,,,,,,,,,,,,,,10,012,2022-09-27_14h38.29.068,test2,2022.2.4,59.84011654360488,
0,0,0,0,132,0,132,0,1080.940515456,1080.940515456,1080.940515456,1080.940515456,1080.940515456,1080.940515456,1080.940515456,-1,-1,azul,1,['N_A'],1082.775282398,1082.775282398,1082.775282398,1082.775282398,1084.811745821,1084.811745821,1084.811745821,1084.811745821,1084.811745821,1084.811745821,1084.811745821,1084.811745821,1086.82924474,1086.82924474,1086.82924474,1086.82924474,,,,,,,,,,,,,,,,,,,,,,,,,,,,,,,,,,,,,,,10,012,2022-09-27_14h38.29.068,test2,2022.2.4,59.84011654360488,
0,0,0,0,133,0,133,0,1086.82924474,1086.82924474,1086.82924474,1086.82924474,1086.82924474,1086.82924474,1086.82924474,-1,-1,azul,1,['N_A'],1088.8486034840003,1088.8486034840003,1088.8486034840003,1088.8486034840003,1090.885355673,1090.885355673,1090.885355673,1090.885355673,1090.885355673,1090.885355673,1090.885355673,1090.885355673,1092.90371649,1092.90371649,1092.90371649,1092.90371649,,,,,,,,,,,,,,,,,,,,,,,,,,,,,,,,,,,,,,,10,012,2022-09-27_14h38.29.068,test2,2022.2.4,59.84011654360488,
0,0,0,0,134,0,134,0,1092.90371649,1092.90371649,1092.90371649,1092.90371649,1092.90371649,1092.90371649,1092.90371649,1,-1,rojo,1,['N_A'],1094.521839861,1094.521839861,1094.521839861,1094.521839861,1096.5404345370002,1096.5404345370002,1096.5404345370002,1096.5404345370002,1096.5404345370002,1096.5404345370002,1096.5404345370002,1096.5404345370002,1098.560166497,1098.560166497,1098.560166497,1098.560166497,,,,,,,,,,,,,,,,,,,,,,,,,,,,,,,,,,,,,,,10,012,2022-09-27_14h38.29.068,test2,2022.2.4,59.84011654360488,
0,0,0,0,135,0,135,0,1098.560166497,1098.560166497,1098.560166497,1098.560166497,1098.560166497,1098.560166497,1098.560166497,-1,1,azul,1,['N_A'],1100.995396849,1100.995396849,1100.995396849,1100.995396849,1103.014006374,1103.014006374,1103.014006374,1103.014006374,1103.014006374,1103.014006374,1103.014006374,1103.014006374,1105.0339309370002,1105.0339309370002,1105.0339309370002,1105.0339309370002,,,,,,,,,,,,,,,,,,,,,,,,,,,,,,,,,,,,,,,10,012,2022-09-27_14h38.29.068,test2,2022.2.4,59.84011654360488,
0,0,0,0,136,0,136,0,1105.0339309370002,1105.0339309370002,1105.0339309370002,1105.0339309370002,1105.0339309370002,1105.0339309370002,1105.0339309370002,-1,-1,azul,1,['N_A'],1107.669009714,1107.669009714,1107.669009714,1107.669009714,1109.705977951,1109.705977951,1109.705977951,1109.705977951,1109.705977951,1109.705977951,1109.705977951,1109.705977951,1111.723468781,1111.723468781,1111.723468781,1111.723468781,,,,,,,,,,,,,,,,,,,,,,,,,,,,,,,,,,,,,,,10,012,2022-09-27_14h38.29.068,test2,2022.2.4,59.84011654360488,
0,0,0,0,137,0,137,0,1111.723468781,1111.723468781,1111.723468781,1111.723468781,1111.723468781,1111.723468781,1111.723468781,1,-1,rojo,1,['N_A'],1113.241911052,1113.241911052,1113.241911052,1113.241911052,1115.2786897679998,1115.2786897679998,1115.2786897679998,1115.2786897679998,1115.2786897679998,1115.2786897679998,1115.2786897679998,1115.2786897679998,1117.2968455220002,1117.2968455220002,1117.2968455220002,1117.2968455220002,,,,,,,,,,,,,,,,,,,,,,,,,,,,,,,,,,,,,,,10,012,2022-09-27_14h38.29.068,test2,2022.2.4,59.84011654360488,
0,0,0,0,138,0,138,0,1117.2968455220002,1117.2968455220002,1117.2968455220002,1117.2968455220002,1117.2968455220002,1117.2968455220002,1117.2968455220002,-1,-1,azul,1,['N_A'],1119.2649550750002,1119.2649550750002,1119.2649550750002,1119.2649550750002,1121.3018227510001,1121.3018227510001,1121.3018227510001,1121.3018227510001,1121.3018227510001,1121.3018227510001,1121.3018227510001,1121.3018227510001,1123.319984623,1123.319984623,1123.319984623,1123.319984623,,,,,,,,,,,,,,,,,,,,,,,,,,,,,,,,,,,,,,,10,012,2022-09-27_14h38.29.068,test2,2022.2.4,59.84011654360488,
0,0,0,0,139,0,139,0,1123.319984623,1123.319984623,1123.319984623,1123.319984623,1123.319984623,1123.319984623,1123.319984623,1,-1,rojo,1,['N_A'],1125.0888156280002,1125.0888156280002,1125.0888156280002,1125.0888156280002,1127.1248796290001,1127.1248796290001,1127.1248796290001,1127.1248796290001,1127.1248796290001,1127.1248796290001,1127.1248796290001,1127.1248796290001,1129.143012525,1129.143012525,1129.143012525,1129.143012525,,,,,,,,,,,,,,,,,,,,,,,,,,,,,,,,,,,,,,,10,012,2022-09-27_14h38.29.068,test2,2022.2.4,59.84011654360488,
0,0,0,0,140,0,140,0,1129.143012525,1129.143012525,1129.143012525,1129.143012525,1129.143012525,1129.143012525,1129.143012525,-1,-1,azul,1,['N_A'],1131.0283730390001,1131.0283730390001,1131.0283730390001,1131.0283730390001,1133.0650611720002,1133.0650611720002,1133.0650611720002,1133.0650611720002,1133.0650611720002,1133.0650611720002,1133.0650611720002,1133.0650611720002,1135.083307758,1135.083307758,1135.083307758,1135.083307758,,,,,,,,,,,,,,,,,,,,,,,,,,,,,,,,,,,,,,,10,012,2022-09-27_14h38.29.068,test2,2022.2.4,59.84011654360488,
0,0,0,0,141,0,141,0,1135.083307758,1135.083307758,1135.083307758,1135.083307758,1135.083307758,1135.083307758,1135.083307758,1,-1,rojo,1,['N_A'],1136.551019727,1136.551019727,1136.551019727,1136.551019727,1138.5708684850001,1138.5708684850001,1138.5708684850001,1138.5708684850001,1138.5708684850001,1138.5708684850001,1138.5708684850001,1138.5708684850001,1140.589534368,1140.589534368,1140.589534368,1140.589534368,,,,,,,,,,,,,,,,,,,,,,,,,,,,,,,,,,,,,,,10,012,2022-09-27_14h38.29.068,test2,2022.2.4,59.84011654360488,
0,0,0,0,142,0,142,0,1140.589534368,1140.589534368,1140.589534368,1140.589534368,1140.589534368,1140.589534368,1140.589534368,1,1,rojo,1,['N_A'],1142.6747554469998,1142.6747554469998,1142.6747554469998,1142.6747554469998,1144.693008501,1144.693008501,1144.693008501,1144.693008501,1144.693008501,1144.693008501,1144.693008501,1144.693008501,1146.7120004439998,1146.7120004439998,1146.7120004439998,1146.7120004439998,,,,,,,,,,,,,,,,,,,,,,,,,,,,,,,,,,,,,,,10,012,2022-09-27_14h38.29.068,test2,2022.2.4,59.84011654360488,
0,0,0,0,143,0,143,0,1146.7120004439998,1146.7120004439998,1146.7120004439998,1146.7120004439998,1146.7120004439998,1146.7120004439998,1146.7120004439998,1,-1,rojo,1,['N_A'],1148.581947752,1148.581947752,1148.581947752,1148.581947752,1150.617320718,1150.617320718,1150.617320718,1150.617320718,1150.617320718,1150.617320718,1150.617320718,1150.617320718,1152.6352678009998,1152.6352678009998,1152.6352678009998,1152.6352678009998,,,,,,,,,,,,,,,,,,,,,,,,,,,,,,,,,,,,,,,10,012,2022-09-27_14h38.29.068,test2,2022.2.4,59.84011654360488,
0,0,0,0,144,0,144,0,1152.6352678009998,1152.6352678009998,1152.6352678009998,1152.6352678009998,1152.6352678009998,1152.6352678009998,1152.6352678009998,1,-1,rojo,1,['N_A'],1154.4047111139998,1154.4047111139998,1154.4047111139998,1154.4047111139998,1156.44072082,1156.44072082,1156.44072082,1156.44072082,1156.44072082,1156.44072082,1156.44072082,1156.44072082,1158.4586837020001,1158.4586837020001,1158.4586837020001,1158.4586837020001,,,,,,,,,,,,,,,,,,,,,,,,,,,,,,,,,,,,,,,10,012,2022-09-27_14h38.29.068,test2,2022.2.4,59.84011654360488,
0,0,0,0,145,0,145,0,1158.4586837020001,1158.4586837020001,1158.4586837020001,1158.4586837020001,1158.4586837020001,1158.4586837020001,1158.4586837020001,-1,-1,azul,1,['N_A'],1160.377660058,1160.377660058,1160.377660058,1160.377660058,1162.413991765,1162.413991765,1162.413991765,1162.413991765,1162.413991765,1162.413991765,1162.413991765,1162.413991765,1164.431863292,1164.431863292,1164.431863292,1164.431863292,,,,,,,,,,,,,,,,,,,,,,,,,,,,,,,,,,,,,,,10,012,2022-09-27_14h38.29.068,test2,2022.2.4,59.84011654360488,
0,0,0,0,146,0,146,0,1164.431863292,1164.431863292,1164.431863292,1164.431863292,1164.431863292,1164.431863292,1164.431863292,1,-1,rojo,1,['N_A'],1166.13465675,1166.13465675,1166.13465675,1166.13465675,1168.170218452,1168.170218452,1168.170218452,1168.170218452,1168.170218452,1168.170218452,1168.170218452,1168.170218452,1170.188739702,1170.188739702,1170.188739702,1170.188739702,,,,,,,,,,,,,,,,,,,,,,,,,,,,,,,,,,,,,,,10,012,2022-09-27_14h38.29.068,test2,2022.2.4,59.84011654360488,
0,0,0,0,147,0,147,0,1170.188739702,1170.188739702,1170.188739702,1170.188739702,1170.188739702,1170.188739702,1170.188739702,-1,-1,azul,1,['N_A'],1171.690869693,1171.690869693,1171.690869693,1171.690869693,1173.709085772,1173.709085772,1173.709085772,1173.709085772,1173.709085772,1173.709085772,1173.709085772,1173.709085772,1175.727493028,1175.727493028,1175.727493028,1175.727493028,,,,,,,,,,,,,,,,,,,,,,,,,,,,,,,,,,,,,,,10,012,2022-09-27_14h38.29.068,test2,2022.2.4,59.84011654360488,
0,0,0,0,148,0,148,0,1175.727493028,1175.727493028,1175.727493028,1175.727493028,1175.727493028,1175.727493028,1175.727493028,1,1,rojo,1,['N_A'],1177.6468783699997,1177.6468783699997,1177.6468783699997,1177.6468783699997,1179.6663920229998,1179.6663920229998,1179.6663920229998,1179.6663920229998,1179.6663920229998,1179.6663920229998,1179.6663920229998,1179.6663920229998,1181.6839781549997,1181.6839781549997,1181.6839781549997,1181.6839781549997,,,,,,,,,,,,,,,,,,,,,,,,,,,,,,,,,,,,,,,10,012,2022-09-27_14h38.29.068,test2,2022.2.4,59.84011654360488,
0,0,0,0,149,0,149,0,1181.6839781549997,1181.6839781549997,1181.6839781549997,1181.6839781549997,1181.6839781549997,1181.6839781549997,1181.6839781549997,-1,1,azul,1,['N_A'],1183.286477788,1183.286477788,1183.286477788,1183.286477788,1185.304923605,1185.304923605,1185.304923605,1185.304923605,1185.304923605,1185.304923605,1185.304923605,1185.304923605,1187.323487961,1187.323487961,1187.323487961,1187.323487961,,,,,,,,,,,,,,,,,,,,,,,,,,,,,,,,,,,,,,,10,012,2022-09-27_14h38.29.068,test2,2022.2.4,59.84011654360488,
0,0,0,0,150,0,150,0,1187.323487961,1187.323487961,1187.323487961,1187.323487961,1187.323487961,1187.323487961,1187.323487961,1,-1,rojo,1,['N_A'],1189.075805202,1189.075805202,1189.075805202,1189.075805202,1191.0955438279998,1191.0955438279998,1191.0955438279998,1191.0955438279998,1191.0955438279998,1191.0955438279998,1191.0955438279998,1191.0955438279998,1193.1141134149998,1193.1141134149998,1193.1141134149998,1193.1141134149998,,,,,,,,,,,,,,,,,,,,,,,,,,,,,,,,,,,,,,,10,012,2022-09-27_14h38.29.068,test2,2022.2.4,59.84011654360488,
0,0,0,0,151,0,151,0,1193.1141134149998,1193.1141134149998,1193.1141134149998,1193.1141134149998,1193.1141134149998,1193.1141134149998,1193.1141134149998,-1,1,azul,1,['N_A'],1194.7489861220001,1194.7489861220001,1194.7489861220001,1194.7489861220001,1196.7678029949998,1196.7678029949998,1196.7678029949998,1196.7678029949998,1196.7678029949998,1196.7678029949998,1196.7678029949998,1196.7678029949998,1198.786574834,1198.786574834,1198.786574834,1198.786574834,,,,,,,,,,,,,,,,,,,,,,,,,,,,,,,,,,,,,,,10,012,2022-09-27_14h38.29.068,test2,2022.2.4,59.84011654360488,
0,0,0,0,152,0,152,0,1198.786574834,1198.786574834,1198.786574834,1198.786574834,1198.786574834,1198.786574834,1198.786574834,1,-1,rojo,1,['N_A'],1201.389177981,1201.389177981,1201.389177981,1201.389177981,1203.425250534,1203.425250534,1203.425250534,1203.425250534,1203.425250534,1203.425250534,1203.425250534,1203.425250534,1205.443308121,1205.443308121,1205.443308121,1205.443308121,,,,,,,,,,,,,,,,,,,,,,,,,,,,,,,,,,,,,,,10,012,2022-09-27_14h38.29.068,test2,2022.2.4,59.84011654360488,
0,0,0,0,153,0,153,0,1205.443308121,1205.443308121,1205.443308121,1205.443308121,1205.443308121,1205.443308121,1205.443308121,1,-1,rojo,1,['N_A'],1212.2014342359998,1212.2014342359998,1212.2014342359998,1212.2014342359998,1214.220384745,1214.220384745,1214.220384745,1214.220384745,1214.220384745,1214.220384745,1214.220384745,1214.220384745,1216.238770848,1216.238770848,1216.238770848,1216.238770848,,,,,,,,,,,,,,,,,,,,,,,,,,,,,,,,,,,,,,,10,012,2022-09-27_14h38.29.068,test2,2022.2.4,59.84011654360488,
0,0,0,0,154,0,154,0,1216.238770848,1216.238770848,1216.238770848,1216.238770848,1216.238770848,1216.238770848,1216.238770848,1,1,rojo,1,['N_A'],1217.875168646,1217.875168646,1217.875168646,1217.875168646,1219.8935628529998,1219.8935628529998,1219.8935628529998,1219.8935628529998,1219.8935628529998,1219.8935628529998,1219.8935628529998,1219.8935628529998,1221.9124420939997,1221.9124420939997,1221.9124420939997,1221.9124420939997,,,,,,,,,,,,,,,,,,,,,,,,,,,,,,,,,,,,,,,10,012,2022-09-27_14h38.29.068,test2,2022.2.4,59.84011654360488,
0,0,0,0,155,0,155,0,1221.9124420939997,1221.9124420939997,1221.9124420939997,1221.9124420939997,1221.9124420939997,1221.9124420939997,1221.9124420939997,1,-1,rojo,1,['N_A'],1223.3479257059998,1223.3479257059998,1223.3479257059998,1223.3479257059998,1225.383468551,1225.383468551,1225.383468551,1225.383468551,1225.383468551,1225.383468551,1225.383468551,1225.383468551,1227.4010568149997,1227.4010568149997,1227.4010568149997,1227.4010568149997,,,,,,,,,,,,,,,,,,,,,,,,,,,,,,,,,,,,,,,10,012,2022-09-27_14h38.29.068,test2,2022.2.4,59.84011654360488,
0,0,0,0,156,0,156,0,1227.4010568149997,1227.4010568149997,1227.4010568149997,1227.4010568149997,1227.4010568149997,1227.4010568149997,1227.4010568149997,1,-1,rojo,1,['N_A'],1228.8867478369998,1228.8867478369998,1228.8867478369998,1228.8867478369998,1230.923119686,1230.923119686,1230.923119686,1230.923119686,1230.923119686,1230.923119686,1230.923119686,1230.923119686,1232.9406379449997,1232.9406379449997,1232.9406379449997,1232.9406379449997,,,,,,,,,,,,,,,,,,,,,,,,,,,,,,,,,,,,,,,10,012,2022-09-27_14h38.29.068,test2,2022.2.4,59.84011654360488,
0,0,0,0,157,0,157,0,1232.9406379449997,1232.9406379449997,1232.9406379449997,1232.9406379449997,1232.9406379449997,1232.9406379449997,1232.9406379449997,-1,-1,azul,1,['N_A'],1234.54286702,1234.54286702,1234.54286702,1234.54286702,1236.56090433,1236.56090433,1236.56090433,1236.56090433,1236.56090433,1236.56090433,1236.56090433,1236.56090433,1238.580593693,1238.580593693,1238.580593693,1238.580593693,,,,,,,,,,,,,,,,,,,,,,,,,,,,,,,,,,,,,,,10,012,2022-09-27_14h38.29.068,test2,2022.2.4,59.84011654360488,
0,0,0,0,158,0,158,0,1238.580593693,1238.580593693,1238.580593693,1238.580593693,1238.580593693,1238.580593693,1238.580593693,1,1,rojo,1,['N_A'],1243.21846318,1243.21846318,1243.21846318,1243.21846318,1245.2374179859999,1245.2374179859999,1245.2374179859999,1245.2374179859999,1245.2374179859999,1245.2374179859999,1245.2374179859999,1245.2374179859999,1247.2571207219999,1247.2571207219999,1247.2571207219999,1247.2571207219999,,,,,,,,,,,,,,,,,,,,,,,,,,,,,,,,,,,,,,,10,012,2022-09-27_14h38.29.068,test2,2022.2.4,59.84011654360488,
0,0,0,0,159,0,159,0,1247.2571207219999,1247.2571207219999,1247.2571207219999,1247.2571207219999,1247.2571207219999,1247.2571207219999,1247.2571207219999,1,-1,rojo,1,['N_A'],1248.6581369249998,1248.6581369249998,1248.6581369249998,1248.6581369249998,1250.677443608,1250.677443608,1250.677443608,1250.677443608,1250.677443608,1250.677443608,1250.677443608,1250.677443608,1252.6957044199999,1252.6957044199999,1252.6957044199999,1252.6957044199999,,,,,,,,,,,,,,,,,,,,,,,,,,,,,,,,,,,,,,,10,012,2022-09-27_14h38.29.068,test2,2022.2.4,59.84011654360488,
0,0,0,0,160,0,160,0,1252.6957044199999,1252.6957044199999,1252.6957044199999,1252.6957044199999,1252.6957044199999,1252.6957044199999,1252.6957044199999,1,1,rojo,1,['N_A'],1254.147159267,1254.147159267,1254.147159267,1254.147159267,1256.166258137,1256.166258137,1256.166258137,1256.166258137,1256.166258137,1256.166258137,1256.166258137,1256.166258137,1258.1853115640001,1258.1853115640001,1258.1853115640001,1258.1853115640001,,,,,,,,,,,,,,,,,,,,,,,,,,,,,,,,,,,,,,,10,012,2022-09-27_14h38.29.068,test2,2022.2.4,59.84011654360488,
0,0,0,0,161,0,161,0,1258.1853115640001,1258.1853115640001,1258.1853115640001,1258.1853115640001,1258.1853115640001,1258.1853115640001,1258.1853115640001,1,-1,rojo,1,['N_A'],1265.393823039,1265.393823039,1265.393823039,1265.393823039,1267.4299210089998,1267.4299210089998,1267.4299210089998,1267.4299210089998,1267.4299210089998,1267.4299210089998,1267.4299210089998,1267.4299210089998,1269.447550341,1269.447550341,1269.447550341,1269.447550341,,,,,,,,,,,,,,,,,,,,,,,,,,,,,,,,,,,,,,,10,012,2022-09-27_14h38.29.068,test2,2022.2.4,59.84011654360488,
0,0,0,0,162,0,162,0,1269.447550341,1269.447550341,1269.447550341,1269.447550341,1269.447550341,1269.447550341,1269.447550341,1,-1,rojo,1,['N_A'],1270.9166000219998,1270.9166000219998,1270.9166000219998,1270.9166000219998,1272.935993342,1272.935993342,1272.935993342,1272.935993342,1272.935993342,1272.935993342,1272.935993342,1272.935993342,1274.953349634,1274.953349634,1274.953349634,1274.953349634,,,,,,,,,,,,,,,,,,,,,,,,,,,,,,,,,,,,,,,10,012,2022-09-27_14h38.29.068,test2,2022.2.4,59.84011654360488,
0,0,0,0,163,0,163,0,1274.953349634,1274.953349634,1274.953349634,1274.953349634,1274.953349634,1274.953349634,1274.953349634,1,1,rojo,1,['N_A'],1276.3558220699997,1276.3558220699997,1276.3558220699997,1276.3558220699997,1278.373987598,1278.373987598,1278.373987598,1278.373987598,1278.373987598,1278.373987598,1278.373987598,1278.373987598,1280.393056249,1280.393056249,1280.393056249,1280.393056249,,,,,,,,,,,,,,,,,,,,,,,,,,,,,,,,,,,,,,,10,012,2022-09-27_14h38.29.068,test2,2022.2.4,59.84011654360488,
0,0,0,0,164,0,164,0,1280.393056249,1280.393056249,1280.393056249,1280.393056249,1280.393056249,1280.393056249,1280.393056249,1,-1,rojo,1,['N_A'],1281.977762248,1281.977762248,1281.977762248,1281.977762248,1284.0145192199998,1284.0145192199998,1284.0145192199998,1284.0145192199998,1284.0145192199998,1284.0145192199998,1284.0145192199998,1284.0145192199998,1286.032583182,1286.032583182,1286.032583182,1286.032583182,,,,,,,,,,,,,,,,,,,,,,,,,,,,,,,,,,,,,,,10,012,2022-09-27_14h38.29.068,test2,2022.2.4,59.84011654360488,
0,0,0,0,165,0,165,0,1286.032583182,1286.032583182,1286.032583182,1286.032583182,1286.032583182,1286.032583182,1286.032583182,-1,-1,azul,1,['N_A'],1287.567860749,1287.567860749,1287.567860749,1287.567860749,1289.603602142,1289.603602142,1289.603602142,1289.603602142,1289.603602142,1289.603602142,1289.603602142,1289.603602142,1291.6218505309998,1291.6218505309998,1291.6218505309998,1291.6218505309998,,,,,,,,,,,,,,,,,,,,,,,,,,,,,,,,,,,,,,,10,012,2022-09-27_14h38.29.068,test2,2022.2.4,59.84011654360488,
0,0,0,0,166,0,166,0,1291.6218505309998,1291.6218505309998,1291.6218505309998,1291.6218505309998,1291.6218505309998,1291.6218505309998,1291.6218505309998,1,-1,rojo,1,['N_A'],1294.1251673349998,1294.1251673349998,1294.1251673349998,1294.1251673349998,1296.1444460029998,1296.1444460029998,1296.1444460029998,1296.1444460029998,1296.1444460029998,1296.1444460029998,1296.1444460029998,1296.1444460029998,1298.1629555099998,1298.1629555099998,1298.1629555099998,1298.1629555099998,,,,,,,,,,,,,,,,,,,,,,,,,,,,,,,,,,,,,,,10,012,2022-09-27_14h38.29.068,test2,2022.2.4,59.84011654360488,
0,0,0,0,167,0,167,0,1298.1629555099998,1298.1629555099998,1298.1629555099998,1298.1629555099998,1298.1629555099998,1298.1629555099998,1298.1629555099998,1,1,rojo,1,['N_A'],1300.0483627630001,1300.0483627630001,1300.0483627630001,1300.0483627630001,1302.0677039449997,1302.0677039449997,1302.0677039449997,1302.0677039449997,1302.0677039449997,1302.0677039449997,1302.0677039449997,1302.0677039449997,1304.086482538,1304.086482538,1304.086482538,1304.086482538,,,,,,,,,,,,,,,,,,,,,,,,,,,,,,,,,,,,,,,10,012,2022-09-27_14h38.29.068,test2,2022.2.4,59.84011654360488,
0,0,0,0,168,0,168,0,1304.086482538,1304.086482538,1304.086482538,1304.086482538,1304.086482538,1304.086482538,1304.086482538,1,1,rojo,1,['N_A'],1305.637783968,1305.637783968,1305.637783968,1305.637783968,1307.657344447,1307.657344447,1307.657344447,1307.657344447,1307.657344447,1307.657344447,1307.657344447,1307.657344447,1309.6756814269997,1309.6756814269997,1309.6756814269997,1309.6756814269997,,,,,,,,,,,,,,,,,,,,,,,,,,,,,,,,,,,,,,,10,012,2022-09-27_14h38.29.068,test2,2022.2.4,59.84011654360488,
0,0,0,0,169,0,169,0,1309.6756814269997,1309.6756814269997,1309.6756814269997,1309.6756814269997,1309.6756814269997,1309.6756814269997,1309.6756814269997,1,1,rojo,1,['N_A'],1311.0936838069997,1311.0936838069997,1311.0936838069997,1311.0936838069997,1313.1135019999997,1313.1135019999997,1313.1135019999997,1313.1135019999997,1313.1135019999997,1313.1135019999997,1313.1135019999997,1313.1135019999997,1315.1326744479998,1315.1326744479998,1315.1326744479998,1315.1326744479998,,,,,,,,,,,,,,,,,,,,,,,,,,,,,,,,,,,,,,,10,012,2022-09-27_14h38.29.068,test2,2022.2.4,59.84011654360488,
0,0,0,0,170,0,170,0,1315.1326744479998,1315.1326744479998,1315.1326744479998,1315.1326744479998,1315.1326744479998,1315.1326744479998,1315.1326744479998,-1,1,azul,1,['N_A'],1316.5166099449998,1316.5166099449998,1316.5166099449998,1316.5166099449998,1318.5348958710001,1318.5348958710001,1318.5348958710001,1318.5348958710001,1318.5348958710001,1318.5348958710001,1318.5348958710001,1318.5348958710001,1320.554385798,1320.554385798,1320.554385798,1320.554385798,,,,,,,,,,,,,,,,,,,,,,,,,,,,,,,,,,,,,,,10,012,2022-09-27_14h38.29.068,test2,2022.2.4,59.84011654360488,
0,0,0,0,171,0,171,0,1320.554385798,1320.554385798,1320.554385798,1320.554385798,1320.554385798,1320.554385798,1320.554385798,1,-1,rojo,1,['N_A'],1322.0389400479999,1322.0389400479999,1322.0389400479999,1322.0389400479999,1324.0583892659997,1324.0583892659997,1324.0583892659997,1324.0583892659997,1324.0583892659997,1324.0583892659997,1324.0583892659997,1324.0583892659997,1326.076719011,1326.076719011,1326.076719011,1326.076719011,,,,,,,,,,,,,,,,,,,,,,,,,,,,,,,,,,,,,,,10,012,2022-09-27_14h38.29.068,test2,2022.2.4,59.84011654360488,
0,0,0,0,172,0,172,0,1326.076719011,1326.076719011,1326.076719011,1326.076719011,1326.076719011,1326.076719011,1326.076719011,1,1,rojo,1,['N_A'],1327.495956073,1327.495956073,1327.495956073,1327.495956073,1329.5151593209998,1329.5151593209998,1329.5151593209998,1329.5151593209998,1329.5151593209998,1329.5151593209998,1329.5151593209998,1329.5151593209998,1331.5325224089997,1331.5325224089997,1331.5325224089997,1331.5325224089997,,,,,,,,,,,,,,,,,,,,,,,,,,,,,,,,,,,,,,,10,012,2022-09-27_14h38.29.068,test2,2022.2.4,59.84011654360488,
0,0,0,0,173,0,173,0,1331.5325224089997,1331.5325224089997,1331.5325224089997,1331.5325224089997,1331.5325224089997,1331.5325224089997,1331.5325224089997,1,1,rojo,1,['N_A'],1333.3021316919999,1333.3021316919999,1333.3021316919999,1333.3021316919999,1335.3204195929998,1335.3204195929998,1335.3204195929998,1335.3204195929998,1335.3204195929998,1335.3204195929998,1335.3204195929998,1335.3204195929998,1337.3391501809997,1337.3391501809997,1337.3391501809997,1337.3391501809997,,,,,,,,,,,,,,,,,,,,,,,,,,,,,,,,,,,,,,,10,012,2022-09-27_14h38.29.068,test2,2022.2.4,59.84011654360488,
0,0,0,0,174,0,174,0,1337.3391501809997,1337.3391501809997,1337.3391501809997,1337.3391501809997,1337.3391501809997,1337.3391501809997,1337.3391501809997,1,-1,rojo,1,['N_A'],1338.741054008,1338.741054008,1338.741054008,1338.741054008,1340.7775784299997,1340.7775784299997,1340.7775784299997,1340.7775784299997,1340.7775784299997,1340.7775784299997,1340.7775784299997,1340.7775784299997,1342.7950586029997,1342.7950586029997,1342.7950586029997,1342.7950586029997,,,,,,,,,,,,,,,,,,,,,,,,,,,,,,,,,,,,,,,10,012,2022-09-27_14h38.29.068,test2,2022.2.4,59.84011654360488,
0,0,0,0,175,0,175,0,1342.7950586029997,1342.7950586029997,1342.7950586029997,1342.7950586029997,1342.7950586029997,1342.7950586029997,1342.7950586029997,-1,-1,azul,1,['N_A'],1344.2637840859998,1344.2637840859998,1344.2637840859998,1344.2637840859998,1346.2997049649998,1346.2997049649998,1346.2997049649998,1346.2997049649998,1346.2997049649998,1346.2997049649998,1346.2997049649998,1346.2997049649998,1348.3180558,1348.3180558,1348.3180558,1348.3180558,,,,,,,,,,,,,,,,,,,,,,,,,,,,,,,,,,,,,,,10,012,2022-09-27_14h38.29.068,test2,2022.2.4,59.84011654360488,
0,0,0,0,176,0,176,0,1348.3180558,1348.3180558,1348.3180558,1348.3180558,1348.3180558,1348.3180558,1348.3180558,1,-1,rojo,1,['N_A'],1349.736513165,1349.736513165,1349.736513165,1349.736513165,1351.772926603,1351.772926603,1351.772926603,1351.772926603,1351.772926603,1351.772926603,1351.772926603,1351.772926603,1353.79116978,1353.79116978,1353.79116978,1353.79116978,,,,,,,,,,,,,,,,,,,,,,,,,,,,,,,,,,,,,,,10,012,2022-09-27_14h38.29.068,test2,2022.2.4,59.84011654360488,
0,0,0,0,177,0,177,0,1353.79116978,1353.79116978,1353.79116978,1353.79116978,1353.79116978,1353.79116978,1353.79116978,1,-1,rojo,1,['N_A'],1355.726433325,1355.726433325,1355.726433325,1355.726433325,1357.7623511399997,1357.7623511399997,1357.7623511399997,1357.7623511399997,1357.7623511399997,1357.7623511399997,1357.7623511399997,1357.7623511399997,1359.7804193729999,1359.7804193729999,1359.7804193729999,1359.7804193729999,,,,,,,,,,,,,,,,,,,,,,,,,,,,,,,,,,,,,,,10,012,2022-09-27_14h38.29.068,test2,2022.2.4,59.84011654360488,
0,0,0,0,178,0,178,0,1359.7804193729999,1359.7804193729999,1359.7804193729999,1359.7804193729999,1359.7804193729999,1359.7804193729999,1359.7804193729999,1,-1,rojo,1,['N_A'],1361.199389161,1361.199389161,1361.199389161,1361.199389161,1363.2350818149998,1363.2350818149998,1363.2350818149998,1363.2350818149998,1363.2350818149998,1363.2350818149998,1363.2350818149998,1363.2350818149998,1365.253253717,1365.253253717,1365.253253717,1365.253253717,,,,,,,,,,,,,,,,,,,,,,,,,,,,,,,,,,,,,,,10,012,2022-09-27_14h38.29.068,test2,2022.2.4,59.84011654360488,
0,0,0,0,179,0,179,0,1365.253253717,1365.253253717,1365.253253717,1365.253253717,1365.253253717,1365.253253717,1365.253253717,1,-1,rojo,1,['N_A'],1366.7382042039999,1366.7382042039999,1366.7382042039999,1366.7382042039999,1368.774406046,1368.774406046,1368.774406046,1368.774406046,1368.774406046,1368.774406046,1368.774406046,1368.774406046,1370.792651022,1370.792651022,1370.792651022,1370.792651022,,,,,,,,,,,,,,,,,,,,,,,,,,,,,,,,,,,,,,,10,012,2022-09-27_14h38.29.068,test2,2022.2.4,59.84011654360488,
0,0,0,0,180,0,180,0,1370.792651022,1370.792651022,1370.792651022,1370.792651022,1370.792651022,1370.792651022,1370.792651022,-1,-1,azul,1,['N_A'],1372.611953645,1372.611953645,1372.611953645,1372.611953645,1374.648151799,1374.648151799,1374.648151799,1374.648151799,1374.648151799,1374.648151799,1374.648151799,1374.648151799,1376.6659337799997,1376.6659337799997,1376.6659337799997,1376.6659337799997,,,,,,,,,,,,,,,,,,,,,,,,,,,,,,,,,,,,,,,10,012,2022-09-27_14h38.29.068,test2,2022.2.4,59.84011654360488,
0,0,0,0,181,0,181,0,1376.6659337799997,1376.6659337799997,1376.6659337799997,1376.6659337799997,1376.6659337799997,1376.6659337799997,1376.6659337799997,1,-1,rojo,1,['N_A'],1378.1679873150001,1378.1679873150001,1378.1679873150001,1378.1679873150001,1380.204291943,1380.204291943,1380.204291943,1380.204291943,1380.204291943,1380.204291943,1380.204291943,1380.204291943,1382.2220082609997,1382.2220082609997,1382.2220082609997,1382.2220082609997,,,,,,,,,,,,,,,,,,,,,,,,,,,,,,,,,,,,,,,10,012,2022-09-27_14h38.29.068,test2,2022.2.4,59.84011654360488,
0,0,0,0,182,0,182,0,1382.2220082609997,1382.2220082609997,1382.2220082609997,1382.2220082609997,1382.2220082609997,1382.2220082609997,1382.2220082609997,1,-1,rojo,1,['N_A'],1383.6243652069998,1383.6243652069998,1383.6243652069998,1383.6243652069998,1385.6597673339998,1385.6597673339998,1385.6597673339998,1385.6597673339998,1385.6597673339998,1385.6597673339998,1385.6597673339998,1385.6597673339998,1387.677689707,1387.677689707,1387.677689707,1387.677689707,,,,,,,,,,,,,,,,,,,,,,,,,,,,,,,,,,,,,,,10,012,2022-09-27_14h38.29.068,test2,2022.2.4,59.84011654360488,
0,0,0,0,183,0,183,0,1387.677689707,1387.677689707,1387.677689707,1387.677689707,1387.677689707,1387.677689707,1387.677689707,1,-1,rojo,1,['N_A'],1389.6641622849997,1389.6641622849997,1389.6641622849997,1389.6641622849997,1391.699934612,1391.699934612,1391.699934612,1391.699934612,1391.699934612,1391.699934612,1391.699934612,1391.699934612,1393.718029133,1393.718029133,1393.718029133,1393.718029133,,,,,,,,,,,,,,,,,,,,,,,,,,,,,,,,,,,,,,,10,012,2022-09-27_14h38.29.068,test2,2022.2.4,59.84011654360488,
0,0,0,0,184,0,184,0,1393.718029133,1393.718029133,1393.718029133,1393.718029133,1393.718029133,1393.718029133,1393.718029133,1,-1,rojo,1,['N_A'],1395.1197887879998,1395.1197887879998,1395.1197887879998,1395.1197887879998,1397.1391185530001,1397.1391185530001,1397.1391185530001,1397.1391185530001,1397.1391185530001,1397.1391185530001,1397.1391185530001,1397.1391185530001,1399.157252298,1399.157252298,1399.157252298,1399.157252298,,,,,,,,,,,,,,,,,,,,,,,,,,,,,,,,,,,,,,,10,012,2022-09-27_14h38.29.068,test2,2022.2.4,59.84011654360488,
0,0,0,0,185,0,185,0,1399.157252298,1399.157252298,1399.157252298,1399.157252298,1399.157252298,1399.157252298,1399.157252298,1,1,rojo,1,['N_A'],1400.525695496,1400.525695496,1400.525695496,1400.525695496,1402.544407813,1402.544407813,1402.544407813,1402.544407813,1402.544407813,1402.544407813,1402.544407813,1402.544407813,1404.563819471,1404.563819471,1404.563819471,1404.563819471,,,,,,,,,,,,,,,,,,,,,,,,,,,,,,,,,,,,,,,10,012,2022-09-27_14h38.29.068,test2,2022.2.4,59.84011654360488,
0,0,0,0,186,0,186,0,1404.563819471,1404.563819471,1404.563819471,1404.563819471,1404.563819471,1404.563819471,1404.563819471,1,-1,rojo,1,['N_A'],1406.13179344,1406.13179344,1406.13179344,1406.13179344,1408.1685712620001,1408.1685712620001,1408.1685712620001,1408.1685712620001,1408.1685712620001,1408.1685712620001,1408.1685712620001,1408.1685712620001,1410.1869305139999,1410.1869305139999,1410.1869305139999,1410.1869305139999,,,,,,,,,,,,,,,,,,,,,,,,,,,,,,,,,,,,,,,10,012,2022-09-27_14h38.29.068,test2,2022.2.4,59.84011654360488,
0,0,0,0,187,0,187,0,1410.1869305139999,1410.1869305139999,1410.1869305139999,1410.1869305139999,1410.1869305139999,1410.1869305139999,1410.1869305139999,1,-1,rojo,1,['N_A'],1411.721008679,1411.721008679,1411.721008679,1411.721008679,1413.7577495689998,1413.7577495689998,1413.7577495689998,1413.7577495689998,1413.7577495689998,1413.7577495689998,1413.7577495689998,1413.7577495689998,1415.7768033919997,1415.7768033919997,1415.7768033919997,1415.7768033919997,,,,,,,,,,,,,,,,,,,,,,,,,,,,,,,,,,,,,,,10,012,2022-09-27_14h38.29.068,test2,2022.2.4,59.84011654360488,
0,0,0,0,188,0,188,0,1415.7768033919997,1415.7768033919997,1415.7768033919997,1415.7768033919997,1415.7768033919997,1415.7768033919997,1415.7768033919997,1,-1,rojo,1,['N_A'],1417.662222043,1417.662222043,1417.662222043,1417.662222043,1419.6976127469998,1419.6976127469998,1419.6976127469998,1419.6976127469998,1419.6976127469998,1419.6976127469998,1419.6976127469998,1419.6976127469998,1421.715506483,1421.715506483,1421.715506483,1421.715506483,,,,,,,,,,,,,,,,,,,,,,,,,,,,,,,,,,,,,,,10,012,2022-09-27_14h38.29.068,test2,2022.2.4,59.84011654360488,
0,0,0,0,189,0,189,0,1421.715506483,1421.715506483,1421.715506483,1421.715506483,1421.715506483,1421.715506483,1421.715506483,-1,-1,azul,1,['N_A'],1423.2845967590001,1423.2845967590001,1423.2845967590001,1423.2845967590001,1425.3033872729998,1425.3033872729998,1425.3033872729998,1425.3033872729998,1425.3033872729998,1425.3033872729998,1425.3033872729998,1425.3033872729998,1427.321577909,1427.321577909,1427.321577909,1427.321577909,,,,,,,,,,,,,,,,,,,,,,,,,,,,,,,,,,,,,,,10,012,2022-09-27_14h38.29.068,test2,2022.2.4,59.84011654360488,
