trials_2.thisRepN,trials_2.thisTrialN,trials_2.thisN,trials_2.thisIndex,trials.thisRepN,trials.thisTrialN,trials.thisN,trials.thisIndex,Instrucción2.started,N_A_4.started,N_B_4.started,Exitos_3.started,Dias_3.started,Stimuli_1.started,Stimuli_2.started,Transitions,Rewards,Mode,Stay,Neighbour,Stimuli_3.started,Modo.started,Dias2.started,Exitos2.started,Stimuli_3.stopped,Modo.stopped,Dias2.stopped,Exitos2.stopped,Reward.started,Stimuli_reward.started,Exitos3.started,Dias3.started,Reward.stopped,Stimuli_reward.stopped,Exitos3.stopped,Dias3.stopped,Cue_text.started,Stimuli_4.started,Exitos4.started,Dias4.started,Stimuli_3_3.started,Stimuli_2_3.started,Instrucción.started,N_A.started,N_B.started,N_C.started,Exitos_2.started,Dias_2.started,Stimuli_1_3.started,Stimuli_3_2.started,Stimuli_2_2.started,Pregunta.started,N_A_2.started,N_B_2.started,N_C_2.started,Exitos5.started,Dias5.started,Stimuli_1_2.started,Resp_final_1,Modo2.started,Modo1.started,Pregunta_4.started,Modo3.started,Exitos7.started,Dias6.started,Resp_final_2,Modo1_2.started,Pregunta_3.started,Modo2_2.started,Exitos8.started,Dias7.started,Resp_final_3,Mensaje_Final2.started,Exitos6.started,participant,session,date,expName,psychopyVersion,frameRate,
0,0,0,0,0,0,0,0,25.15131118299996,25.15131118299996,25.15131118299996,25.15131118299996,25.15131118299996,25.15131118299996,25.15131118299996,0,0,0,0,['N_A'],32.558302718999585,32.558302718999585,32.558302718999585,32.558302718999585,34.594626400999914,34.594626400999914,34.594626400999914,34.594626400999914,34.594626400999914,34.594626400999914,34.594626400999914,34.594626400999914,36.629819174999284,36.629819174999284,36.629819174999284,36.629819174999284,,,,,,,,,,,,,,,,,,,,,,,,,,,,,,,,,,,,,,,10,010,2022-09-26_10h40.57.664,test2,2022.2.4,59.838697132751754,
0,0,0,0,1,0,1,0,36.629819174999284,36.629819174999284,36.629819174999284,36.629819174999284,36.629819174999284,36.629819174999284,36.629819174999284,1,-1,rojo,0,['N_B'],42.870374889999766,42.870374889999766,42.870374889999766,42.870374889999766,44.90583144199991,44.90583144199991,44.90583144199991,44.90583144199991,44.90583144199991,44.90583144199991,44.90583144199991,44.90583144199991,46.94102597799974,46.94102597799974,46.94102597799974,46.94102597799974,,,,,,,,,,,,,,,,,,,,,,,,,,,,,,,,,,,,,,,10,010,2022-09-26_10h40.57.664,test2,2022.2.4,59.838697132751754,
0,0,0,0,2,0,2,0,46.94102597799974,46.94102597799974,46.94102597799974,46.94102597799974,46.94102597799974,46.94102597799974,46.94102597799974,-1,-1,rojo,1,['N_B'],52.88090564199956,52.88090564199956,52.88090564199956,52.88090564199956,54.91717045099995,54.91717045099995,54.91717045099995,54.91717045099995,54.91717045099995,54.91717045099995,54.91717045099995,54.91717045099995,56.95237378499951,56.95237378499951,56.95237378499951,56.95237378499951,,,,,,,,,,,,,,,,,,,,,,,,,,,,,,,,,,,,,,,10,010,2022-09-26_10h40.57.664,test2,2022.2.4,59.838697132751754,
0,0,0,0,3,0,3,0,56.95237378499951,56.95237378499951,56.95237378499951,56.95237378499951,56.95237378499951,56.95237378499951,56.95237378499951,1,-1,azul,0,['N_A'],61.106614143000115,61.106614143000115,61.106614143000115,61.106614143000115,63.14265637399967,63.14265637399967,63.14265637399967,63.14265637399967,63.14265637399967,63.14265637399967,63.14265637399967,63.14265637399967,65.17787521299942,65.17787521299942,65.17787521299942,65.17787521299942,,,,,,,,,,,,,,,,,,,,,,,,,,,,,,,,,,,,,,,10,010,2022-09-26_10h40.57.664,test2,2022.2.4,59.838697132751754,
0,0,0,0,4,0,4,0,65.17787521299942,65.17787521299942,65.17787521299942,65.17787521299942,65.17787521299942,65.17787521299942,65.17787521299942,1,-1,rojo,1,['N_A'],72.53570639600002,72.53570639600002,72.53570639600002,72.53570639600002,74.5717919079998,74.5717919079998,74.5717919079998,74.5717919079998,74.5717919079998,74.5717919079998,74.5717919079998,74.5717919079998,76.60695002200009,76.60695002200009,76.60695002200009,76.60695002200009,,,,,,,,,,,,,,,,,,,,,,,,,,,,,,,,,,,,,,,10,010,2022-09-26_10h40.57.664,test2,2022.2.4,59.838697132751754,
0,0,0,0,5,0,5,0,76.60695002200009,76.60695002200009,76.60695002200009,76.60695002200009,76.60695002200009,76.60695002200009,76.60695002200009,-1,1,azul,1,['N_A'],80.39402944099947,80.39402944099947,80.39402944099947,80.39402944099947,82.41262271199957,82.41262271199957,82.41262271199957,82.41262271199957,82.41262271199957,82.41262271199957,82.41262271199957,82.41262271199957,84.44982119399992,84.44982119399992,84.44982119399992,84.44982119399992,,,,,,,,,,,,,,,,,,,,,,,,,,,,,,,,,,,,,,,10,010,2022-09-26_10h40.57.664,test2,2022.2.4,59.838697132751754,
0,0,0,0,6,0,6,0,84.44982119399992,84.44982119399992,84.44982119399992,84.44982119399992,84.44982119399992,84.44982119399992,84.44982119399992,-1,-1,azul,0,['N_B'],88.45300802199927,88.45300802199927,88.45300802199927,88.45300802199927,90.48872574899997,90.48872574899997,90.48872574899997,90.48872574899997,90.48872574899997,90.48872574899997,90.48872574899997,90.48872574899997,92.52437581599952,92.52437581599952,92.52437581599952,92.52437581599952,,,,,,,,,,,,,,,,,,,,,,,,,,,,,,,,,,,,,,,10,010,2022-09-26_10h40.57.664,test2,2022.2.4,59.838697132751754,
0,0,0,0,7,0,7,0,92.52437581599952,92.52437581599952,92.52437581599952,92.52437581599952,92.52437581599952,92.52437581599952,92.52437581599952,1,-1,azul,1,['N_B'],96.24487408699952,96.24487408699952,96.24487408699952,96.24487408699952,98.26425892799944,98.26425892799944,98.26425892799944,98.26425892799944,98.26425892799944,98.26425892799944,98.26425892799944,98.26425892799944,100.29924989799929,100.29924989799929,100.29924989799929,100.29924989799929,,,,,,,,,,,,,,,,,,,,,,,,,,,,,,,,,,,,,,,10,010,2022-09-26_10h40.57.664,test2,2022.2.4,59.838697132751754,
0,0,0,0,8,0,8,0,100.29924989799929,100.29924989799929,100.29924989799929,100.29924989799929,100.29924989799929,100.29924989799929,100.29924989799929,1,1,azul,1,['N_B'],106.2238739759996,106.2238739759996,106.2238739759996,106.2238739759996,108.24221200200009,108.24221200200009,108.24221200200009,108.24221200200009,108.24221200200009,108.24221200200009,108.24221200200009,108.24221200200009,110.25992512899938,110.25992512899938,110.25992512899938,110.25992512899938,,,,,,,,,,,,,,,,,,,,,,,,,,,,,,,,,,,,,,,10,010,2022-09-26_10h40.57.664,test2,2022.2.4,59.838697132751754,
0,0,0,0,9,0,9,0,110.25992512899938,110.25992512899938,110.25992512899938,110.25992512899938,110.25992512899938,110.25992512899938,110.25992512899938,1,1,azul,1,['N_B'],114.98200368899961,114.98200368899961,114.98200368899961,114.98200368899961,117.00099795200003,117.00099795200003,117.00099795200003,117.00099795200003,117.00099795200003,117.00099795200003,117.00099795200003,117.00099795200003,119.02058024799953,119.02058024799953,119.02058024799953,119.02058024799953,,,,,,,,,,,,,,,,,,,,,,,,,,,,,,,,,,,,,,,10,010,2022-09-26_10h40.57.664,test2,2022.2.4,59.838697132751754,
0,0,0,0,10,0,10,0,119.02058024799953,119.02058024799953,119.02058024799953,119.02058024799953,119.02058024799953,119.02058024799953,119.02058024799953,1,-1,azul,0,['N_A'],123.49213705999955,123.49213705999955,123.49213705999955,123.49213705999955,125.5277471899999,125.5277471899999,125.5277471899999,125.5277471899999,125.5277471899999,125.5277471899999,125.5277471899999,125.5277471899999,127.54611288699925,127.54611288699925,127.54611288699925,127.54611288699925,,,,,,,,,,,,,,,,,,,,,,,,,,,,,,,,,,,,,,,10,010,2022-09-26_10h40.57.664,test2,2022.2.4,59.838697132751754,
0,0,0,0,11,0,11,0,127.54611288699925,127.54611288699925,127.54611288699925,127.54611288699925,127.54611288699925,127.54611288699925,127.54611288699925,1,-1,rojo,1,['N_A'],131.55075234200012,131.55075234200012,131.55075234200012,131.55075234200012,133.56963291800002,133.56963291800002,133.56963291800002,133.56963291800002,133.56963291800002,133.56963291800002,133.56963291800002,133.56963291800002,135.58777269199982,135.58777269199982,135.58777269199982,135.58777269199982,,,,,,,,,,,,,,,,,,,,,,,,,,,,,,,,,,,,,,,10,010,2022-09-26_10h40.57.664,test2,2022.2.4,59.838697132751754,
0,0,0,0,12,0,12,0,135.58777269199982,135.58777269199982,135.58777269199982,135.58777269199982,135.58777269199982,135.58777269199982,135.58777269199982,1,1,rojo,1,['N_A'],142.02911792399937,142.02911792399937,142.02911792399937,142.02911792399937,144.04876760499974,144.04876760499974,144.04876760499974,144.04876760499974,144.04876760499974,144.04876760499974,144.04876760499974,144.04876760499974,146.06607810399964,146.06607810399964,146.06607810399964,146.06607810399964,,,,,,,,,,,,,,,,,,,,,,,,,,,,,,,,,,,,,,,10,010,2022-09-26_10h40.57.664,test2,2022.2.4,59.838697132751754,
0,0,0,0,13,0,13,0,146.06607810399964,146.06607810399964,146.06607810399964,146.06607810399964,146.06607810399964,146.06607810399964,146.06607810399964,1,1,rojo,1,['N_A'],153.2071543209995,153.2071543209995,153.2071543209995,153.2071543209995,155.22653972899934,155.22653972899934,155.22653972899934,155.22653972899934,155.22653972899934,155.22653972899934,155.22653972899934,155.22653972899934,157.24548620599944,157.24548620599944,157.24548620599944,157.24548620599944,,,,,,,,,,,,,,,,,,,,,,,,,,,,,,,,,,,,,,,10,010,2022-09-26_10h40.57.664,test2,2022.2.4,59.838697132751754,
0,0,0,0,14,0,14,0,157.24548620599944,157.24548620599944,157.24548620599944,157.24548620599944,157.24548620599944,157.24548620599944,157.24548620599944,1,-1,rojo,0,['N_B'],160.59885960700012,160.59885960700012,160.59885960700012,160.59885960700012,162.63532358499924,162.63532358499924,162.63532358499924,162.63532358499924,162.63532358499924,162.63532358499924,162.63532358499924,162.63532358499924,164.6535747729995,164.6535747729995,164.6535747729995,164.6535747729995,,,,,,,,,,,,,,,,,,,,,,,,,,,,,,,,,,,,,,,10,010,2022-09-26_10h40.57.664,test2,2022.2.4,59.838697132751754,
0,0,0,0,15,0,15,0,164.6535747729995,164.6535747729995,164.6535747729995,164.6535747729995,164.6535747729995,164.6535747729995,164.6535747729995,1,-1,azul,0,['N_A'],171.72783305899975,171.72783305899975,171.72783305899975,171.72783305899975,173.765389141,173.765389141,173.765389141,173.765389141,173.765389141,173.765389141,173.765389141,173.765389141,175.78277557099955,175.78277557099955,175.78277557099955,175.78277557099955,,,,,,,,,,,,,,,,,,,,,,,,,,,,,,,,,,,,,,,10,010,2022-09-26_10h40.57.664,test2,2022.2.4,59.838697132751754,
0,0,0,0,16,0,16,0,175.78277557099955,175.78277557099955,175.78277557099955,175.78277557099955,175.78277557099955,175.78277557099955,175.78277557099955,-1,-1,azul,1,['N_A'],179.0026709699996,179.0026709699996,179.0026709699996,179.0026709699996,181.0386997810001,181.0386997810001,181.0386997810001,181.0386997810001,181.0386997810001,181.0386997810001,181.0386997810001,181.0386997810001,183.05694173899974,183.05694173899974,183.05694173899974,183.05694173899974,,,,,,,,,,,,,,,,,,,,,,,,,,,,,,,,,,,,,,,10,010,2022-09-26_10h40.57.664,test2,2022.2.4,59.838697132751754,
0,0,0,0,17,0,17,0,183.05694173899974,183.05694173899974,183.05694173899974,183.05694173899974,183.05694173899974,183.05694173899974,183.05694173899974,-1,-1,azul,1,['N_A'],191.03261989599923,191.03261989599923,191.03261989599923,191.03261989599923,193.06882749099987,193.06882749099987,193.06882749099987,193.06882749099987,193.06882749099987,193.06882749099987,193.06882749099987,193.06882749099987,195.08719458399992,195.08719458399992,195.08719458399992,195.08719458399992,,,,,,,,,,,,,,,,,,,,,,,,,,,,,,,,,,,,,,,10,010,2022-09-26_10h40.57.664,test2,2022.2.4,59.838697132751754,
0,0,0,0,18,0,18,0,195.08719458399992,195.08719458399992,195.08719458399992,195.08719458399992,195.08719458399992,195.08719458399992,195.08719458399992,1,-1,rojo,0,['N_B'],197.7064993999993,197.7064993999993,197.7064993999993,197.7064993999993,199.74336987900006,199.74336987900006,199.74336987900006,199.74336987900006,199.74336987900006,199.74336987900006,199.74336987900006,199.74336987900006,201.7607347789999,201.7607347789999,201.7607347789999,201.7607347789999,,,,,,,,,,,,,,,,,,,,,,,,,,,,,,,,,,,,,,,10,010,2022-09-26_10h40.57.664,test2,2022.2.4,59.838697132751754,
0,0,0,0,19,0,19,0,201.7607347789999,201.7607347789999,201.7607347789999,201.7607347789999,201.7607347789999,201.7607347789999,201.7607347789999,1,-1,azul,1,['N_B'],209.35272265299955,209.35272265299955,209.35272265299955,209.35272265299955,211.3889160029994,211.3889160029994,211.3889160029994,211.3889160029994,211.3889160029994,211.3889160029994,211.3889160029994,211.3889160029994,213.40782991299966,213.40782991299966,213.40782991299966,213.40782991299966,,,,,,,,,,,,,,,,,,,,,,,,,,,,,,,,,,,,,,,10,010,2022-09-26_10h40.57.664,test2,2022.2.4,59.838697132751754,
0,0,0,0,20,0,20,0,213.40782991299966,213.40782991299966,213.40782991299966,213.40782991299966,213.40782991299966,213.40782991299966,213.40782991299966,1,-1,azul,0,['N_A'],217.71270209199974,217.71270209199974,217.71270209199974,217.71270209199974,219.73107566499948,219.73107566499948,219.73107566499948,219.73107566499948,219.73107566499948,219.73107566499948,219.73107566499948,219.73107566499948,221.7496399619995,221.7496399619995,221.7496399619995,221.7496399619995,,,,,,,,,,,,,,,,,,,,,,,,,,,,,,,,,,,,,,,10,010,2022-09-26_10h40.57.664,test2,2022.2.4,59.838697132751754,
0,0,0,0,21,0,21,0,221.7496399619995,221.7496399619995,221.7496399619995,221.7496399619995,221.7496399619995,221.7496399619995,221.7496399619995,-1,1,azul,1,['N_A'],228.54125180399933,228.54125180399933,228.54125180399933,228.54125180399933,230.5598807339993,230.5598807339993,230.5598807339993,230.5598807339993,230.5598807339993,230.5598807339993,230.5598807339993,230.5598807339993,232.5780901600001,232.5780901600001,232.5780901600001,232.5780901600001,,,,,,,,,,,,,,,,,,,,,,,,,,,,,,,,,,,,,,,10,010,2022-09-26_10h40.57.664,test2,2022.2.4,59.838697132751754,
0,0,0,0,22,0,22,0,232.5780901600001,232.5780901600001,232.5780901600001,232.5780901600001,232.5780901600001,232.5780901600001,232.5780901600001,1,-1,rojo,0,['N_B'],236.24987807599973,236.24987807599973,236.24987807599973,236.24987807599973,238.2857396519994,238.2857396519994,238.2857396519994,238.2857396519994,238.2857396519994,238.2857396519994,238.2857396519994,238.2857396519994,240.30455733100007,240.30455733100007,240.30455733100007,240.30455733100007,,,,,,,,,,,,,,,,,,,,,,,,,,,,,,,,,,,,,,,10,010,2022-09-26_10h40.57.664,test2,2022.2.4,59.838697132751754,
0,0,0,0,23,0,23,0,240.30455733100007,240.30455733100007,240.30455733100007,240.30455733100007,240.30455733100007,240.30455733100007,240.30455733100007,-1,-1,rojo,1,['N_B'],245.87629127499986,245.87629127499986,245.87629127499986,245.87629127499986,247.91262794699924,247.91262794699924,247.91262794699924,247.91262794699924,247.91262794699924,247.91262794699924,247.91262794699924,247.91262794699924,249.93075176899947,249.93075176899947,249.93075176899947,249.93075176899947,,,,,,,,,,,,,,,,,,,,,,,,,,,,,,,,,,,,,,,10,010,2022-09-26_10h40.57.664,test2,2022.2.4,59.838697132751754,
0,0,0,0,24,0,24,0,249.93075176899947,249.93075176899947,249.93075176899947,249.93075176899947,249.93075176899947,249.93075176899947,249.93075176899947,1,-1,azul,0,['N_A'],253.45254734399987,253.45254734399987,253.45254734399987,253.45254734399987,255.48811530700004,255.48811530700004,255.48811530700004,255.48811530700004,255.48811530700004,255.48811530700004,255.48811530700004,255.48811530700004,257.5059377439993,257.5059377439993,257.5059377439993,257.5059377439993,,,,,,,,,,,,,,,,,,,,,,,,,,,,,,,,,,,,,,,10,010,2022-09-26_10h40.57.664,test2,2022.2.4,59.838697132751754,
0,0,0,0,25,0,25,0,257.5059377439993,257.5059377439993,257.5059377439993,257.5059377439993,257.5059377439993,257.5059377439993,257.5059377439993,1,-1,rojo,1,['N_A'],261.5110841659998,261.5110841659998,261.5110841659998,261.5110841659998,263.54703628099924,263.54703628099924,263.54703628099924,263.54703628099924,263.54703628099924,263.54703628099924,263.54703628099924,263.54703628099924,265.56454186799965,265.56454186799965,265.56454186799965,265.56454186799965,,,,,,,,,,,,,,,,,,,,,,,,,,,,,,,,,,,,,,,10,010,2022-09-26_10h40.57.664,test2,2022.2.4,59.838697132751754,
0,0,0,0,26,0,26,0,265.56454186799965,265.56454186799965,265.56454186799965,265.56454186799965,265.56454186799965,265.56454186799965,265.56454186799965,1,-1,rojo,0,['N_B'],268.2850252779999,268.2850252779999,268.2850252779999,268.2850252779999,270.32127562299956,270.32127562299956,270.32127562299956,270.32127562299956,270.32127562299956,270.32127562299956,270.32127562299956,270.32127562299956,272.33940484199957,272.33940484199957,272.33940484199957,272.33940484199957,,,,,,,,,,,,,,,,,,,,,,,,,,,,,,,,,,,,,,,10,010,2022-09-26_10h40.57.664,test2,2022.2.4,59.838697132751754,
0,0,0,0,27,0,27,0,272.33940484199957,272.33940484199957,272.33940484199957,272.33940484199957,272.33940484199957,272.33940484199957,272.33940484199957,1,-1,azul,1,['N_B'],278.6124764749993,278.6124764749993,278.6124764749993,278.6124764749993,280.64883674299926,280.64883674299926,280.64883674299926,280.64883674299926,280.64883674299926,280.64883674299926,280.64883674299926,280.64883674299926,282.66689410099934,282.66689410099934,282.66689410099934,282.66689410099934,,,,,,,,,,,,,,,,,,,,,,,,,,,,,,,,,,,,,,,10,010,2022-09-26_10h40.57.664,test2,2022.2.4,59.838697132751754,
0,0,0,0,28,0,28,0,282.66689410099934,282.66689410099934,282.66689410099934,282.66689410099934,282.66689410099934,282.66689410099934,282.66689410099934,1,-1,azul,0,['N_A'],285.0866088929997,285.0866088929997,285.0866088929997,285.0866088929997,287.10516069799996,287.10516069799996,287.10516069799996,287.10516069799996,287.10516069799996,287.10516069799996,287.10516069799996,287.10516069799996,289.1256985559994,289.1256985559994,289.1256985559994,289.1256985559994,,,,,,,,,,,,,,,,,,,,,,,,,,,,,,,,,,,,,,,10,010,2022-09-26_10h40.57.664,test2,2022.2.4,59.838697132751754,
0,0,0,0,29,0,29,0,289.1256985559994,289.1256985559994,289.1256985559994,289.1256985559994,289.1256985559994,289.1256985559994,289.1256985559994,1,1,rojo,1,['N_A'],296.71577689399965,296.71577689399965,296.71577689399965,296.71577689399965,298.735393211,298.735393211,298.735393211,298.735393211,298.735393211,298.735393211,298.735393211,298.735393211,300.7538321989996,300.7538321989996,300.7538321989996,300.7538321989996,,,,,,,,,,,,,,,,,,,,,,,,,,,,,,,,,,,,,,,10,010,2022-09-26_10h40.57.664,test2,2022.2.4,59.838697132751754,
0,0,0,0,30,0,30,0,300.7538321989996,300.7538321989996,300.7538321989996,300.7538321989996,300.7538321989996,300.7538321989996,300.7538321989996,-1,-1,azul,0,['N_B'],305.3429693709995,305.3429693709995,305.3429693709995,305.3429693709995,307.36212560199965,307.36212560199965,307.36212560199965,307.36212560199965,307.36212560199965,307.36212560199965,307.36212560199965,307.36212560199965,309.38027867299934,309.38027867299934,309.38027867299934,309.38027867299934,,,,,,,,,,,,,,,,,,,,,,,,,,,,,,,,,,,,,,,10,010,2022-09-26_10h40.57.664,test2,2022.2.4,59.838697132751754,
0,0,0,0,31,0,31,0,309.38027867299934,309.38027867299934,309.38027867299934,309.38027867299934,309.38027867299934,309.38027867299934,309.38027867299934,-1,1,rojo,1,['N_B'],315.8547606309994,315.8547606309994,315.8547606309994,315.8547606309994,317.8727217609994,317.8727217609994,317.8727217609994,317.8727217609994,317.8727217609994,317.8727217609994,317.8727217609994,317.8727217609994,319.89175169600003,319.89175169600003,319.89175169600003,319.89175169600003,,,,,,,,,,,,,,,,,,,,,,,,,,,,,,,,,,,,,,,10,010,2022-09-26_10h40.57.664,test2,2022.2.4,59.838697132751754,
0,0,0,0,32,0,32,0,319.89175169600003,319.89175169600003,319.89175169600003,319.89175169600003,319.89175169600003,319.89175169600003,319.89175169600003,1,-1,azul,0,['N_A'],327.26654804699956,327.26654804699956,327.26654804699956,327.26654804699956,329.30268111199985,329.30268111199985,329.30268111199985,329.30268111199985,329.30268111199985,329.30268111199985,329.30268111199985,329.30268111199985,331.3204605709998,331.3204605709998,331.3204605709998,331.3204605709998,,,,,,,,,,,,,,,,,,,,,,,,,,,,,,,,,,,,,,,10,010,2022-09-26_10h40.57.664,test2,2022.2.4,59.838697132751754,
0,0,0,0,33,0,33,0,331.3204605709998,331.3204605709998,331.3204605709998,331.3204605709998,331.3204605709998,331.3204605709998,331.3204605709998,-1,-1,azul,0,['N_B'],336.0922098609999,336.0922098609999,336.0922098609999,336.0922098609999,338.11151198399966,338.11151198399966,338.11151198399966,338.11151198399966,338.11151198399966,338.11151198399966,338.11151198399966,338.11151198399966,340.1302009689998,340.1302009689998,340.1302009689998,340.1302009689998,,,,,,,,,,,,,,,,,,,,,,,,,,,,,,,,,,,,,,,10,010,2022-09-26_10h40.57.664,test2,2022.2.4,59.838697132751754,
0,0,0,0,34,0,34,0,340.1302009689998,340.1302009689998,340.1302009689998,340.1302009689998,340.1302009689998,340.1302009689998,340.1302009689998,-1,1,rojo,1,['N_B'],347.0545525849993,347.0545525849993,347.0545525849993,347.0545525849993,349.0745602019997,349.0745602019997,349.0745602019997,349.0745602019997,349.0745602019997,349.0745602019997,349.0745602019997,349.0745602019997,351.092677613,351.092677613,351.092677613,351.092677613,,,,,,,,,,,,,,,,,,,,,,,,,,,,,,,,,,,,,,,10,010,2022-09-26_10h40.57.664,test2,2022.2.4,59.838697132751754,
0,0,0,0,35,0,35,0,351.092677613,351.092677613,351.092677613,351.092677613,351.092677613,351.092677613,351.092677613,1,-1,azul,0,['N_A'],354.9139915179994,354.9139915179994,354.9139915179994,354.9139915179994,356.93261800799974,356.93261800799974,356.93261800799974,356.93261800799974,356.93261800799974,356.93261800799974,356.93261800799974,356.93261800799974,358.95153469699926,358.95153469699926,358.95153469699926,358.95153469699926,,,,,,,,,,,,,,,,,,,,,,,,,,,,,,,,,,,,,,,10,010,2022-09-26_10h40.57.664,test2,2022.2.4,59.838697132751754,
0,0,0,0,36,0,36,0,358.95153469699926,358.95153469699926,358.95153469699926,358.95153469699926,358.95153469699926,358.95153469699926,358.95153469699926,1,1,rojo,1,['N_A'],363.47350807099974,363.47350807099974,363.47350807099974,363.47350807099974,365.49139354899944,365.49139354899944,365.49139354899944,365.49139354899944,365.49139354899944,365.49139354899944,365.49139354899944,365.49139354899944,367.5110790339995,367.5110790339995,367.5110790339995,367.5110790339995,,,,,,,,,,,,,,,,,,,,,,,,,,,,,,,,,,,,,,,10,010,2022-09-26_10h40.57.664,test2,2022.2.4,59.838697132751754,
0,0,0,0,37,0,37,0,367.5110790339995,367.5110790339995,367.5110790339995,367.5110790339995,367.5110790339995,367.5110790339995,367.5110790339995,-1,-1,azul,0,['N_B'],372.61669485699986,372.61669485699986,372.61669485699986,372.61669485699986,374.652323669,374.652323669,374.652323669,374.652323669,374.652323669,374.652323669,374.652323669,374.652323669,376.6712865740001,376.6712865740001,376.6712865740001,376.6712865740001,,,,,,,,,,,,,,,,,,,,,,,,,,,,,,,,,,,,,,,10,010,2022-09-26_10h40.57.664,test2,2022.2.4,59.838697132751754,
0,0,0,0,38,0,38,0,376.6712865740001,376.6712865740001,376.6712865740001,376.6712865740001,376.6712865740001,376.6712865740001,376.6712865740001,-1,-1,rojo,0,['N_A'],382.0264746739995,382.0264746739995,382.0264746739995,382.0264746739995,384.0458662259998,384.0458662259998,384.0458662259998,384.0458662259998,384.0458662259998,384.0458662259998,384.0458662259998,384.0458662259998,386.0641654309993,386.0641654309993,386.0641654309993,386.0641654309993,,,,,,,,,,,,,,,,,,,,,,,,,,,,,,,,,,,,,,,10,010,2022-09-26_10h40.57.664,test2,2022.2.4,59.838697132751754,
0,0,0,0,39,0,39,0,386.0641654309993,386.0641654309993,386.0641654309993,386.0641654309993,386.0641654309993,386.0641654309993,386.0641654309993,1,1,rojo,1,['N_A'],392.8882793019993,392.8882793019993,392.8882793019993,392.8882793019993,394.90866306299995,394.90866306299995,394.90866306299995,394.90866306299995,394.90866306299995,394.90866306299995,394.90866306299995,394.90866306299995,396.9264782729997,396.9264782729997,396.9264782729997,396.9264782729997,,,,,,,,,,,,,,,,,,,,,,,,,,,,,,,,,,,,,,,10,010,2022-09-26_10h40.57.664,test2,2022.2.4,59.838697132751754,
0,0,0,0,40,0,40,0,396.9264782729997,396.9264782729997,396.9264782729997,396.9264782729997,396.9264782729997,396.9264782729997,396.9264782729997,1,1,rojo,1,['N_A'],399.7297423209993,399.7297423209993,399.7297423209993,399.7297423209993,401.74866060099976,401.74866060099976,401.74866060099976,401.74866060099976,401.74866060099976,401.74866060099976,401.74866060099976,401.74866060099976,403.76707903399983,403.76707903399983,403.76707903399983,403.76707903399983,,,,,,,,,,,,,,,,,,,,,,,,,,,,,,,,,,,,,,,10,010,2022-09-26_10h40.57.664,test2,2022.2.4,59.838697132751754,
0,0,0,0,41,0,41,0,403.76707903399983,403.76707903399983,403.76707903399983,403.76707903399983,403.76707903399983,403.76707903399983,403.76707903399983,1,-1,rojo,0,['N_B'],406.2704512529999,406.2704512529999,406.2704512529999,406.2704512529999,408.3064619699999,408.3064619699999,408.3064619699999,408.3064619699999,408.3064619699999,408.3064619699999,408.3064619699999,408.3064619699999,410.324803257,410.324803257,410.324803257,410.324803257,,,,,,,,,,,,,,,,,,,,,,,,,,,,,,,,,,,,,,,10,010,2022-09-26_10h40.57.664,test2,2022.2.4,59.838697132751754,
0,0,0,0,42,0,42,0,410.324803257,410.324803257,410.324803257,410.324803257,410.324803257,410.324803257,410.324803257,1,-1,azul,0,['N_A'],413.1107475939998,413.1107475939998,413.1107475939998,413.1107475939998,415.1474152609999,415.1474152609999,415.1474152609999,415.1474152609999,415.1474152609999,415.1474152609999,415.1474152609999,415.1474152609999,417.1655536669996,417.1655536669996,417.1655536669996,417.1655536669996,,,,,,,,,,,,,,,,,,,,,,,,,,,,,,,,,,,,,,,10,010,2022-09-26_10h40.57.664,test2,2022.2.4,59.838697132751754,
0,0,0,0,43,0,43,0,417.1655536669996,417.1655536669996,417.1655536669996,417.1655536669996,417.1655536669996,417.1655536669996,417.1655536669996,1,-1,rojo,1,['N_A'],421.3712033169995,421.3712033169995,421.3712033169995,421.3712033169995,423.3900012419999,423.3900012419999,423.3900012419999,423.3900012419999,423.3900012419999,423.3900012419999,423.3900012419999,423.3900012419999,425.4083298989999,425.4083298989999,425.4083298989999,425.4083298989999,,,,,,,,,,,,,,,,,,,,,,,,,,,,,,,,,,,,,,,10,010,2022-09-26_10h40.57.664,test2,2022.2.4,59.838697132751754,
0,0,0,0,44,0,44,0,425.4083298989999,425.4083298989999,425.4083298989999,425.4083298989999,425.4083298989999,425.4083298989999,425.4083298989999,1,1,rojo,0,['N_B'],430.7300644480001,430.7300644480001,430.7300644480001,430.7300644480001,432.74950122799964,432.74950122799964,432.74950122799964,432.74950122799964,432.74950122799964,432.74950122799964,432.74950122799964,432.74950122799964,434.76806521399976,434.76806521399976,434.76806521399976,434.76806521399976,,,,,,,,,,,,,,,,,,,,,,,,,,,,,,,,,,,,,,,10,010,2022-09-26_10h40.57.664,test2,2022.2.4,59.838697132751754,
0,0,0,0,45,0,45,0,434.76806521399976,434.76806521399976,434.76806521399976,434.76806521399976,434.76806521399976,434.76806521399976,434.76806521399976,1,-1,azul,1,['N_B'],440.207771075,440.207771075,440.207771075,440.207771075,442.2436172889993,442.2436172889993,442.2436172889993,442.2436172889993,442.2436172889993,442.2436172889993,442.2436172889993,442.2436172889993,444.26262269699964,444.26262269699964,444.26262269699964,444.26262269699964,,,,,,,,,,,,,,,,,,,,,,,,,,,,,,,,,,,,,,,10,010,2022-09-26_10h40.57.664,test2,2022.2.4,59.838697132751754,
0,0,0,0,46,0,46,0,444.26262269699964,444.26262269699964,444.26262269699964,444.26262269699964,444.26262269699964,444.26262269699964,444.26262269699964,-1,-1,rojo,0,['N_A'],446.4646336579999,446.4646336579999,446.4646336579999,446.4646336579999,448.50076100299975,448.50076100299975,448.50076100299975,448.50076100299975,448.50076100299975,448.50076100299975,448.50076100299975,448.50076100299975,450.51880792299926,450.51880792299926,450.51880792299926,450.51880792299926,,,,,,,,,,,,,,,,,,,,,,,,,,,,,,,,,,,,,,,10,010,2022-09-26_10h40.57.664,test2,2022.2.4,59.838697132751754,
0,0,0,0,47,0,47,0,450.51880792299926,450.51880792299926,450.51880792299926,450.51880792299926,450.51880792299926,450.51880792299926,450.51880792299926,1,-1,rojo,0,['N_B'],454.3738055519998,454.3738055519998,454.3738055519998,454.3738055519998,456.41022616899954,456.41022616899954,456.41022616899954,456.41022616899954,456.41022616899954,456.41022616899954,456.41022616899954,456.41022616899954,458.4281433389997,458.4281433389997,458.4281433389997,458.4281433389997,,,,,,,,,,,,,,,,,,,,,,,,,,,,,,,,,,,,,,,10,010,2022-09-26_10h40.57.664,test2,2022.2.4,59.838697132751754,
0,0,0,0,48,0,48,0,458.4281433389997,458.4281433389997,458.4281433389997,458.4281433389997,458.4281433389997,458.4281433389997,458.4281433389997,1,-1,azul,0,['N_A'],462.26481175799927,462.26481175799927,462.26481175799927,462.26481175799927,464.30216601399934,464.30216601399934,464.30216601399934,464.30216601399934,464.30216601399934,464.30216601399934,464.30216601399934,464.30216601399934,466.32029822499953,466.32029822499953,466.32029822499953,466.32029822499953,,,,,,,,,,,,,,,,,,,,,,,,,,,,,,,,,,,,,,,10,010,2022-09-26_10h40.57.664,test2,2022.2.4,59.838697132751754,
0,0,0,0,49,0,49,0,466.32029822499953,466.32029822499953,466.32029822499953,466.32029822499953,466.32029822499953,466.32029822499953,466.32029822499953,1,-1,rojo,1,['N_A'],469.10567257099956,469.10567257099956,469.10567257099956,469.10567257099956,471.12487102699924,471.12487102699924,471.12487102699924,471.12487102699924,471.12487102699924,471.12487102699924,471.12487102699924,471.12487102699924,473.14456445499945,473.14456445499945,473.14456445499945,473.14456445499945,,,,,,,,,,,,,,,,,,,,,,,,,,,,,,,,,,,,,,,10,010,2022-09-26_10h40.57.664,test2,2022.2.4,59.838697132751754,
0,0,0,0,50,0,50,0,473.14456445499945,473.14456445499945,473.14456445499945,473.14456445499945,473.14456445499945,473.14456445499945,473.14456445499945,1,1,rojo,0,['N_B'],482.05401584099945,482.05401584099945,482.05401584099945,482.05401584099945,484.07342072199936,484.07342072199936,484.07342072199936,484.07342072199936,484.07342072199936,484.07342072199936,484.07342072199936,484.07342072199936,486.09216547599954,486.09216547599954,486.09216547599954,486.09216547599954,,,,,,,,,,,,,,,,,,,,,,,,,,,,,,,,,,,,,,,10,010,2022-09-26_10h40.57.664,test2,2022.2.4,59.838697132751754,
0,0,0,0,51,0,51,0,486.09216547599954,486.09216547599954,486.09216547599954,486.09216547599954,486.09216547599954,486.09216547599954,486.09216547599954,-1,-1,rojo,0,['N_A'],489.9307695339994,489.9307695339994,489.9307695339994,489.9307695339994,491.9652443209998,491.9652443209998,491.9652443209998,491.9652443209998,491.9652443209998,491.9652443209998,491.9652443209998,491.9652443209998,493.9841187100001,493.9841187100001,493.9841187100001,493.9841187100001,,,,,,,,,,,,,,,,,,,,,,,,,,,,,,,,,,,,,,,10,010,2022-09-26_10h40.57.664,test2,2022.2.4,59.838697132751754,
0,0,0,0,52,0,52,0,493.9841187100001,493.9841187100001,493.9841187100001,493.9841187100001,493.9841187100001,493.9841187100001,493.9841187100001,1,-1,rojo,1,['N_A'],501.22461339599977,501.22461339599977,501.22461339599977,501.22461339599977,503.26158753599975,503.26158753599975,503.26158753599975,503.26158753599975,503.26158753599975,503.26158753599975,503.26158753599975,503.26158753599975,505.2790605709997,505.2790605709997,505.2790605709997,505.2790605709997,,,,,,,,,,,,,,,,,,,,,,,,,,,,,,,,,,,,,,,10,010,2022-09-26_10h40.57.664,test2,2022.2.4,59.838697132751754,
0,0,0,0,53,0,53,0,505.2790605709997,505.2790605709997,505.2790605709997,505.2790605709997,505.2790605709997,505.2790605709997,505.2790605709997,1,-1,rojo,0,['N_B'],507.03195330499966,507.03195330499966,507.03195330499966,507.03195330499966,509.06749498299996,509.06749498299996,509.06749498299996,509.06749498299996,509.06749498299996,509.06749498299996,509.06749498299996,509.06749498299996,511.08634903999973,511.08634903999973,511.08634903999973,511.08634903999973,,,,,,,,,,,,,,,,,,,,,,,,,,,,,,,,,,,,,,,10,010,2022-09-26_10h40.57.664,test2,2022.2.4,59.838697132751754,
0,0,0,0,54,0,54,0,511.08634903999973,511.08634903999973,511.08634903999973,511.08634903999973,511.08634903999973,511.08634903999973,511.08634903999973,-1,-1,rojo,1,['N_B'],514.6072909609993,514.6072909609993,514.6072909609993,514.6072909609993,516.6432120959998,516.6432120959998,516.6432120959998,516.6432120959998,516.6432120959998,516.6432120959998,516.6432120959998,516.6432120959998,518.6606184779994,518.6606184779994,518.6606184779994,518.6606184779994,,,,,,,,,,,,,,,,,,,,,,,,,,,,,,,,,,,,,,,10,010,2022-09-26_10h40.57.664,test2,2022.2.4,59.838697132751754,
0,0,0,0,55,0,55,0,518.6606184779994,518.6606184779994,518.6606184779994,518.6606184779994,518.6606184779994,518.6606184779994,518.6606184779994,1,-1,azul,0,['N_A'],525.8350136429999,525.8350136429999,525.8350136429999,525.8350136429999,527.8717380469998,527.8717380469998,527.8717380469998,527.8717380469998,527.8717380469998,527.8717380469998,527.8717380469998,527.8717380469998,529.8897236799994,529.8897236799994,529.8897236799994,529.8897236799994,,,,,,,,,,,,,,,,,,,,,,,,,,,,,,,,,,,,,,,10,010,2022-09-26_10h40.57.664,test2,2022.2.4,59.838697132751754,
0,0,0,0,56,0,56,0,529.8897236799994,529.8897236799994,529.8897236799994,529.8897236799994,529.8897236799994,529.8897236799994,529.8897236799994,1,-1,rojo,1,['N_A'],532.2253224919996,532.2253224919996,532.2253224919996,532.2253224919996,534.2622199339994,534.2622199339994,534.2622199339994,534.2622199339994,534.2622199339994,534.2622199339994,534.2622199339994,534.2622199339994,536.2798920539999,536.2798920539999,536.2798920539999,536.2798920539999,,,,,,,,,,,,,,,,,,,,,,,,,,,,,,,,,,,,,,,10,010,2022-09-26_10h40.57.664,test2,2022.2.4,59.838697132751754,
0,0,0,0,57,0,57,0,536.2798920539999,536.2798920539999,536.2798920539999,536.2798920539999,536.2798920539999,536.2798920539999,536.2798920539999,1,-1,rojo,0,['N_B'],542.1048311609993,542.1048311609993,542.1048311609993,542.1048311609993,544.1393354439997,544.1393354439997,544.1393354439997,544.1393354439997,544.1393354439997,544.1393354439997,544.1393354439997,544.1393354439997,546.1575002629997,546.1575002629997,546.1575002629997,546.1575002629997,,,,,,,,,,,,,,,,,,,,,,,,,,,,,,,,,,,,,,,10,010,2022-09-26_10h40.57.664,test2,2022.2.4,59.838697132751754,
0,0,0,0,58,0,58,0,546.1575002629997,546.1575002629997,546.1575002629997,546.1575002629997,546.1575002629997,546.1575002629997,546.1575002629997,1,-1,azul,0,['N_A'],549.911626999,549.911626999,549.911626999,549.911626999,551.9481189109993,551.9481189109993,551.9481189109993,551.9481189109993,551.9481189109993,551.9481189109993,551.9481189109993,551.9481189109993,553.9669622049996,553.9669622049996,553.9669622049996,553.9669622049996,,,,,,,,,,,,,,,,,,,,,,,,,,,,,,,,,,,,,,,10,010,2022-09-26_10h40.57.664,test2,2022.2.4,59.838697132751754,
0,0,0,0,59,0,59,0,553.9669622049996,553.9669622049996,553.9669622049996,553.9669622049996,553.9669622049996,553.9669622049996,553.9669622049996,1,-1,rojo,0,['N_B'],559.9232187489997,559.9232187489997,559.9232187489997,559.9232187489997,561.942235734,561.942235734,561.942235734,561.942235734,561.942235734,561.942235734,561.942235734,561.942235734,563.9607750949999,563.9607750949999,563.9607750949999,563.9607750949999,,,,,,,,,,,,,,,,,,,,,,,,,,,,,,,,,,,,,,,10,010,2022-09-26_10h40.57.664,test2,2022.2.4,59.838697132751754,
0,0,0,0,60,0,60,0,563.9607750949999,563.9607750949999,563.9607750949999,563.9607750949999,563.9607750949999,563.9607750949999,563.9607750949999,-1,1,rojo,1,['N_B'],573.138011991,573.138011991,573.138011991,573.138011991,575.1567049289997,575.1567049289997,575.1567049289997,575.1567049289997,575.1567049289997,575.1567049289997,575.1567049289997,575.1567049289997,577.175917945,577.175917945,577.175917945,577.175917945,,,,,,,,,,,,,,,,,,,,,,,,,,,,,,,,,,,,,,,10,010,2022-09-26_10h40.57.664,test2,2022.2.4,59.838697132751754,
0,0,0,0,61,0,61,0,577.175917945,577.175917945,577.175917945,577.175917945,577.175917945,577.175917945,577.175917945,1,-1,azul,0,['N_A'],582.1307731329998,582.1307731329998,582.1307731329998,582.1307731329998,584.167228368,584.167228368,584.167228368,584.167228368,584.167228368,584.167228368,584.167228368,584.167228368,586.1854994979994,586.1854994979994,586.1854994979994,586.1854994979994,,,,,,,,,,,,,,,,,,,,,,,,,,,,,,,,,,,,,,,10,010,2022-09-26_10h40.57.664,test2,2022.2.4,59.838697132751754,
0,0,0,0,62,0,62,0,586.1854994979994,586.1854994979994,586.1854994979994,586.1854994979994,586.1854994979994,586.1854994979994,586.1854994979994,1,-1,rojo,0,['N_B'],590.4913310530001,590.4913310530001,590.4913310530001,590.4913310530001,592.5084808149995,592.5084808149995,592.5084808149995,592.5084808149995,592.5084808149995,592.5084808149995,592.5084808149995,592.5084808149995,594.5280959829997,594.5280959829997,594.5280959829997,594.5280959829997,,,,,,,,,,,,,,,,,,,,,,,,,,,,,,,,,,,,,,,10,010,2022-09-26_10h40.57.664,test2,2022.2.4,59.838697132751754,
0,0,0,0,63,0,63,0,594.5280959829997,594.5280959829997,594.5280959829997,594.5280959829997,594.5280959829997,594.5280959829997,594.5280959829997,-1,1,rojo,0,['N_A'],599.8343112039993,599.8343112039993,599.8343112039993,599.8343112039993,601.852083232,601.852083232,601.852083232,601.852083232,601.852083232,601.852083232,601.852083232,601.852083232,603.8717256720001,603.8717256720001,603.8717256720001,603.8717256720001,,,,,,,,,,,,,,,,,,,,,,,,,,,,,,,,,,,,,,,10,010,2022-09-26_10h40.57.664,test2,2022.2.4,59.838697132751754,
0,0,0,0,64,0,64,0,603.8717256720001,603.8717256720001,603.8717256720001,603.8717256720001,603.8717256720001,603.8717256720001,603.8717256720001,1,-1,rojo,0,['N_B'],606.7078868829994,606.7078868829994,606.7078868829994,606.7078868829994,608.7438175950001,608.7438175950001,608.7438175950001,608.7438175950001,608.7438175950001,608.7438175950001,608.7438175950001,608.7438175950001,610.7621380800001,610.7621380800001,610.7621380800001,610.7621380800001,,,,,,,,,,,,,,,,,,,,,,,,,,,,,,,,,,,,,,,10,010,2022-09-26_10h40.57.664,test2,2022.2.4,59.838697132751754,
0,0,0,0,65,0,65,0,610.7621380800001,610.7621380800001,610.7621380800001,610.7621380800001,610.7621380800001,610.7621380800001,610.7621380800001,1,-1,azul,0,['N_A'],617.2698249790001,617.2698249790001,617.2698249790001,617.2698249790001,619.2889832410001,619.2889832410001,619.2889832410001,619.2889832410001,619.2889832410001,619.2889832410001,619.2889832410001,619.2889832410001,621.3078273020001,621.3078273020001,621.3078273020001,621.3078273020001,,,,,,,,,,,,,,,,,,,,,,,,,,,,,,,,,,,,,,,10,010,2022-09-26_10h40.57.664,test2,2022.2.4,59.838697132751754,
0,0,0,0,66,0,66,0,621.3078273020001,621.3078273020001,621.3078273020001,621.3078273020001,621.3078273020001,621.3078273020001,621.3078273020001,1,1,rojo,1,['N_A'],629.0328524379993,629.0328524379993,629.0328524379993,629.0328524379993,631.0519142379999,631.0519142379999,631.0519142379999,631.0519142379999,631.0519142379999,631.0519142379999,631.0519142379999,631.0519142379999,633.0705014599998,633.0705014599998,633.0705014599998,633.0705014599998,,,,,,,,,,,,,,,,,,,,,,,,,,,,,,,,,,,,,,,10,010,2022-09-26_10h40.57.664,test2,2022.2.4,59.838697132751754,
0,0,0,0,67,0,67,0,633.0705014599998,633.0705014599998,633.0705014599998,633.0705014599998,633.0705014599998,633.0705014599998,633.0705014599998,1,-1,rojo,0,['N_B'],635.8733958329994,635.8733958329994,635.8733958329994,635.8733958329994,637.8925407369998,637.8925407369998,637.8925407369998,637.8925407369998,637.8925407369998,637.8925407369998,637.8925407369998,637.8925407369998,639.9119501689993,639.9119501689993,639.9119501689993,639.9119501689993,,,,,,,,,,,,,,,,,,,,,,,,,,,,,,,,,,,,,,,10,010,2022-09-26_10h40.57.664,test2,2022.2.4,59.838697132751754,
0,0,0,0,68,0,68,0,639.9119501689993,639.9119501689993,639.9119501689993,639.9119501689993,639.9119501689993,639.9119501689993,639.9119501689993,1,1,azul,1,['N_B'],642.1139813760001,642.1139813760001,642.1139813760001,642.1139813760001,644.1329075630001,644.1329075630001,644.1329075630001,644.1329075630001,644.1329075630001,644.1329075630001,644.1329075630001,644.1329075630001,646.1521580119997,646.1521580119997,646.1521580119997,646.1521580119997,,,,,,,,,,,,,,,,,,,,,,,,,,,,,,,,,,,,,,,10,010,2022-09-26_10h40.57.664,test2,2022.2.4,59.838697132751754,
0,0,0,0,69,0,69,0,646.1521580119997,646.1521580119997,646.1521580119997,646.1521580119997,646.1521580119997,646.1521580119997,646.1521580119997,1,-1,azul,0,['N_A'],650.1896778370001,650.1896778370001,650.1896778370001,650.1896778370001,652.2087696879998,652.2087696879998,652.2087696879998,652.2087696879998,652.2087696879998,652.2087696879998,652.2087696879998,652.2087696879998,654.227646716,654.227646716,654.227646716,654.227646716,,,,,,,,,,,,,,,,,,,,,,,,,,,,,,,,,,,,,,,10,010,2022-09-26_10h40.57.664,test2,2022.2.4,59.838697132751754,
0,0,0,0,70,0,70,0,654.227646716,654.227646716,654.227646716,654.227646716,654.227646716,654.227646716,654.227646716,1,1,rojo,0,['N_B'],658.2479436139993,658.2479436139993,658.2479436139993,658.2479436139993,660.2678817149999,660.2678817149999,660.2678817149999,660.2678817149999,660.2678817149999,660.2678817149999,660.2678817149999,660.2678817149999,662.2855681229994,662.2855681229994,662.2855681229994,662.2855681229994,,,,,,,,,,,,,,,,,,,,,,,,,,,,,,,,,,,,,,,10,010,2022-09-26_10h40.57.664,test2,2022.2.4,59.838697132751754,
0,0,0,0,71,0,71,0,662.2855681229994,662.2855681229994,662.2855681229994,662.2855681229994,662.2855681229994,662.2855681229994,662.2855681229994,1,-1,azul,0,['N_A'],665.4556153499998,665.4556153499998,665.4556153499998,665.4556153499998,667.4750719439999,667.4750719439999,667.4750719439999,667.4750719439999,667.4750719439999,667.4750719439999,667.4750719439999,667.4750719439999,669.4946832360001,669.4946832360001,669.4946832360001,669.4946832360001,,,,,,,,,,,,,,,,,,,,,,,,,,,,,,,,,,,,,,,10,010,2022-09-26_10h40.57.664,test2,2022.2.4,59.838697132751754,
0,0,0,0,72,0,72,0,669.4946832360001,669.4946832360001,669.4946832360001,669.4946832360001,669.4946832360001,669.4946832360001,669.4946832360001,1,1,rojo,1,['N_A'],673.0481284979996,673.0481284979996,673.0481284979996,673.0481284979996,675.0668405639999,675.0668405639999,675.0668405639999,675.0668405639999,675.0668405639999,675.0668405639999,675.0668405639999,675.0668405639999,677.085589665,677.085589665,677.085589665,677.085589665,,,,,,,,,,,,,,,,,,,,,,,,,,,,,,,,,,,,,,,10,010,2022-09-26_10h40.57.664,test2,2022.2.4,59.838697132751754,
0,0,0,0,73,0,73,0,677.085589665,677.085589665,677.085589665,677.085589665,677.085589665,677.085589665,677.085589665,-1,-1,azul,0,['N_B'],680.3890329659998,680.3890329659998,680.3890329659998,680.3890329659998,682.4258154949994,682.4258154949994,682.4258154949994,682.4258154949994,682.4258154949994,682.4258154949994,682.4258154949994,682.4258154949994,684.4433825079996,684.4433825079996,684.4433825079996,684.4433825079996,,,,,,,,,,,,,,,,,,,,,,,,,,,,,,,,,,,,,,,10,010,2022-09-26_10h40.57.664,test2,2022.2.4,59.838697132751754,
0,0,0,0,74,0,74,0,684.4433825079996,684.4433825079996,684.4433825079996,684.4433825079996,684.4433825079996,684.4433825079996,684.4433825079996,1,-1,azul,0,['N_A'],686.5461474109998,686.5461474109998,686.5461474109998,686.5461474109998,688.5822631219999,688.5822631219999,688.5822631219999,688.5822631219999,688.5822631219999,688.5822631219999,688.5822631219999,688.5822631219999,690.601108461,690.601108461,690.601108461,690.601108461,,,,,,,,,,,,,,,,,,,,,,,,,,,,,,,,,,,,,,,10,010,2022-09-26_10h40.57.664,test2,2022.2.4,59.838697132751754,
0,0,0,0,75,0,75,0,690.601108461,690.601108461,690.601108461,690.601108461,690.601108461,690.601108461,690.601108461,1,-1,rojo,0,['N_B'],694.1885293469995,694.1885293469995,694.1885293469995,694.1885293469995,696.2237217679995,696.2237217679995,696.2237217679995,696.2237217679995,696.2237217679995,696.2237217679995,696.2237217679995,696.2237217679995,698.2418465000001,698.2418465000001,698.2418465000001,698.2418465000001,,,,,,,,,,,,,,,,,,,,,,,,,,,,,,,,,,,,,,,10,010,2022-09-26_10h40.57.664,test2,2022.2.4,59.838697132751754,
0,0,0,0,76,0,76,0,698.2418465000001,698.2418465000001,698.2418465000001,698.2418465000001,698.2418465000001,698.2418465000001,698.2418465000001,1,-1,azul,0,['N_A'],700.928341799,700.928341799,700.928341799,700.928341799,702.9645525319993,702.9645525319993,702.9645525319993,702.9645525319993,702.9645525319993,702.9645525319993,702.9645525319993,702.9645525319993,704.9838745869993,704.9838745869993,704.9838745869993,704.9838745869993,,,,,,,,,,,,,,,,,,,,,,,,,,,,,,,,,,,,,,,10,010,2022-09-26_10h40.57.664,test2,2022.2.4,59.838697132751754,
0,0,0,0,77,0,77,0,704.9838745869993,704.9838745869993,704.9838745869993,704.9838745869993,704.9838745869993,704.9838745869993,704.9838745869993,1,-1,rojo,0,['N_B'],707.6862569369996,707.6862569369996,707.6862569369996,707.6862569369996,709.7225973529994,709.7225973529994,709.7225973529994,709.7225973529994,709.7225973529994,709.7225973529994,709.7225973529994,709.7225973529994,711.7399739439998,711.7399739439998,711.7399739439998,711.7399739439998,,,,,,,,,,,,,,,,,,,,,,,,,,,,,,,,,,,,,,,10,010,2022-09-26_10h40.57.664,test2,2022.2.4,59.838697132751754,
0,0,0,0,78,0,78,0,711.7399739439998,711.7399739439998,711.7399739439998,711.7399739439998,711.7399739439998,711.7399739439998,711.7399739439998,-1,-1,rojo,0,['N_A'],713.9435473509993,713.9435473509993,713.9435473509993,713.9435473509993,715.9788981709999,715.9788981709999,715.9788981709999,715.9788981709999,715.9788981709999,715.9788981709999,715.9788981709999,715.9788981709999,717.9984399750001,717.9984399750001,717.9984399750001,717.9984399750001,,,,,,,,,,,,,,,,,,,,,,,,,,,,,,,,,,,,,,,10,010,2022-09-26_10h40.57.664,test2,2022.2.4,59.838697132751754,
0,0,0,0,79,0,79,0,717.9984399750001,717.9984399750001,717.9984399750001,717.9984399750001,717.9984399750001,717.9984399750001,717.9984399750001,-1,-1,azul,1,['N_A'],720.1178424319996,720.1178424319996,720.1178424319996,720.1178424319996,722.1529766939993,722.1529766939993,722.1529766939993,722.1529766939993,722.1529766939993,722.1529766939993,722.1529766939993,722.1529766939993,724.170450398,724.170450398,724.170450398,724.170450398,,,,,,,,,,,,,,,,,,,,,,,,,,,,,,,,,,,,,,,10,010,2022-09-26_10h40.57.664,test2,2022.2.4,59.838697132751754,
0,0,0,0,80,0,80,0,724.170450398,724.170450398,724.170450398,724.170450398,724.170450398,724.170450398,724.170450398,1,-1,rojo,0,['N_B'],725.9899567879993,725.9899567879993,725.9899567879993,725.9899567879993,728.0258922029998,728.0258922029998,728.0258922029998,728.0258922029998,728.0258922029998,728.0258922029998,728.0258922029998,728.0258922029998,730.044400885,730.044400885,730.044400885,730.044400885,,,,,,,,,,,,,,,,,,,,,,,,,,,,,,,,,,,,,,,10,010,2022-09-26_10h40.57.664,test2,2022.2.4,59.838697132751754,
0,0,0,0,81,0,81,0,730.044400885,730.044400885,730.044400885,730.044400885,730.044400885,730.044400885,730.044400885,1,-1,azul,1,['N_B'],732.4637853999993,732.4637853999993,732.4637853999993,732.4637853999993,734.5002667299996,734.5002667299996,734.5002667299996,734.5002667299996,734.5002667299996,734.5002667299996,734.5002667299996,734.5002667299996,736.5177353949994,736.5177353949994,736.5177353949994,736.5177353949994,,,,,,,,,,,,,,,,,,,,,,,,,,,,,,,,,,,,,,,10,010,2022-09-26_10h40.57.664,test2,2022.2.4,59.838697132751754,
0,0,0,0,82,0,82,0,736.5177353949994,736.5177353949994,736.5177353949994,736.5177353949994,736.5177353949994,736.5177353949994,736.5177353949994,1,-1,azul,0,['N_A'],738.5542055279993,738.5542055279993,738.5542055279993,738.5542055279993,740.5899442849995,740.5899442849995,740.5899442849995,740.5899442849995,740.5899442849995,740.5899442849995,740.5899442849995,740.5899442849995,742.608027667,742.608027667,742.608027667,742.608027667,,,,,,,,,,,,,,,,,,,,,,,,,,,,,,,,,,,,,,,10,010,2022-09-26_10h40.57.664,test2,2022.2.4,59.838697132751754,
0,0,0,0,83,0,83,0,742.608027667,742.608027667,742.608027667,742.608027667,742.608027667,742.608027667,742.608027667,1,-1,rojo,0,['N_B'],747.3136013879994,747.3136013879994,747.3136013879994,747.3136013879994,749.3491372879998,749.3491372879998,749.3491372879998,749.3491372879998,749.3491372879998,749.3491372879998,749.3491372879998,749.3491372879998,751.3673929639999,751.3673929639999,751.3673929639999,751.3673929639999,,,,,,,,,,,,,,,,,,,,,,,,,,,,,,,,,,,,,,,10,010,2022-09-26_10h40.57.664,test2,2022.2.4,59.838697132751754,
0,0,0,0,84,0,84,0,751.3673929639999,751.3673929639999,751.3673929639999,751.3673929639999,751.3673929639999,751.3673929639999,751.3673929639999,-1,-1,rojo,0,['N_A'],753.4033870149997,753.4033870149997,753.4033870149997,753.4033870149997,755.4391596039995,755.4391596039995,755.4391596039995,755.4391596039995,755.4391596039995,755.4391596039995,755.4391596039995,755.4391596039995,757.4590614259996,757.4590614259996,757.4590614259996,757.4590614259996,,,,,,,,,,,,,,,,,,,,,,,,,,,,,,,,,,,,,,,10,010,2022-09-26_10h40.57.664,test2,2022.2.4,59.838697132751754,
0,0,0,0,85,0,85,0,757.4590614259996,757.4590614259996,757.4590614259996,757.4590614259996,757.4590614259996,757.4590614259996,757.4590614259996,1,-1,rojo,0,['N_B'],761.0122737880001,761.0122737880001,761.0122737880001,761.0122737880001,763.0478494769995,763.0478494769995,763.0478494769995,763.0478494769995,763.0478494769995,763.0478494769995,763.0478494769995,763.0478494769995,765.0660100619998,765.0660100619998,765.0660100619998,765.0660100619998,,,,,,,,,,,,,,,,,,,,,,,,,,,,,,,,,,,,,,,10,010,2022-09-26_10h40.57.664,test2,2022.2.4,59.838697132751754,
0,0,0,0,86,0,86,0,765.0660100619998,765.0660100619998,765.0660100619998,765.0660100619998,765.0660100619998,765.0660100619998,765.0660100619998,1,-1,azul,0,['N_A'],766.651169451,766.651169451,766.651169451,766.651169451,768.670486897,768.670486897,768.670486897,768.670486897,768.670486897,768.670486897,768.670486897,768.670486897,770.6887304309994,770.6887304309994,770.6887304309994,770.6887304309994,,,,,,,,,,,,,,,,,,,,,,,,,,,,,,,,,,,,,,,10,010,2022-09-26_10h40.57.664,test2,2022.2.4,59.838697132751754,
0,0,0,0,87,0,87,0,770.6887304309994,770.6887304309994,770.6887304309994,770.6887304309994,770.6887304309994,770.6887304309994,770.6887304309994,-1,1,azul,1,['N_A'],772.5914380719996,772.5914380719996,772.5914380719996,772.5914380719996,774.610415307,774.610415307,774.610415307,774.610415307,774.610415307,774.610415307,774.610415307,774.610415307,776.6285750399993,776.6285750399993,776.6285750399993,776.6285750399993,,,,,,,,,,,,,,,,,,,,,,,,,,,,,,,,,,,,,,,10,010,2022-09-26_10h40.57.664,test2,2022.2.4,59.838697132751754,
0,0,0,0,88,0,88,0,776.6285750399993,776.6285750399993,776.6285750399993,776.6285750399993,776.6285750399993,776.6285750399993,776.6285750399993,-1,-1,azul,0,['N_B'],779.0813274349994,779.0813274349994,779.0813274349994,779.0813274349994,781.1182621239996,781.1182621239996,781.1182621239996,781.1182621239996,781.1182621239996,781.1182621239996,781.1182621239996,781.1182621239996,783.1538585600001,783.1538585600001,783.1538585600001,783.1538585600001,,,,,,,,,,,,,,,,,,,,,,,,,,,,,,,,,,,,,,,10,010,2022-09-26_10h40.57.664,test2,2022.2.4,59.838697132751754,
0,0,0,0,89,0,89,0,783.1538585600001,783.1538585600001,783.1538585600001,783.1538585600001,783.1538585600001,783.1538585600001,783.1538585600001,1,-1,azul,0,['N_A'],784.9716561169998,784.9716561169998,784.9716561169998,784.9716561169998,787.0078210419997,787.0078210419997,787.0078210419997,787.0078210419997,787.0078210419997,787.0078210419997,787.0078210419997,787.0078210419997,789.0261375769996,789.0261375769996,789.0261375769996,789.0261375769996,,,,,,,,,,,,,,,,,,,,,,,,,,,,,,,,,,,,,,,10,010,2022-09-26_10h40.57.664,test2,2022.2.4,59.838697132751754,
0,0,0,0,90,0,90,0,789.0261375769996,789.0261375769996,789.0261375769996,789.0261375769996,789.0261375769996,789.0261375769996,789.0261375769996,1,-1,rojo,0,['N_B'],790.7297380379996,790.7297380379996,790.7297380379996,790.7297380379996,792.764325393,792.764325393,792.764325393,792.764325393,792.764325393,792.764325393,792.764325393,792.764325393,794.7821949939998,794.7821949939998,794.7821949939998,794.7821949939998,,,,,,,,,,,,,,,,,,,,,,,,,,,,,,,,,,,,,,,10,010,2022-09-26_10h40.57.664,test2,2022.2.4,59.838697132751754,
0,0,0,0,91,0,91,0,794.7821949939998,794.7821949939998,794.7821949939998,794.7821949939998,794.7821949939998,794.7821949939998,794.7821949939998,1,-1,azul,0,['N_A'],796.8016421639995,796.8016421639995,796.8016421639995,796.8016421639995,798.8206155689995,798.8206155689995,798.8206155689995,798.8206155689995,798.8206155689995,798.8206155689995,798.8206155689995,798.8206155689995,800.8388208639999,800.8388208639999,800.8388208639999,800.8388208639999,,,,,,,,,,,,,,,,,,,,,,,,,,,,,,,,,,,,,,,10,010,2022-09-26_10h40.57.664,test2,2022.2.4,59.838697132751754,
0,0,0,0,92,0,92,0,800.8388208639999,800.8388208639999,800.8388208639999,800.8388208639999,800.8388208639999,800.8388208639999,800.8388208639999,1,1,rojo,1,['N_A'],802.890642247,802.890642247,802.890642247,802.890642247,804.9113210129999,804.9113210129999,804.9113210129999,804.9113210129999,804.9113210129999,804.9113210129999,804.9113210129999,804.9113210129999,806.9283148559998,806.9283148559998,806.9283148559998,806.9283148559998,,,,,,,,,,,,,,,,,,,,,,,,,,,,,,,,,,,,,,,10,010,2022-09-26_10h40.57.664,test2,2022.2.4,59.838697132751754,
0,0,0,0,93,0,93,0,806.9283148559998,806.9283148559998,806.9283148559998,806.9283148559998,806.9283148559998,806.9283148559998,806.9283148559998,1,1,rojo,1,['N_A'],809.0155557339995,809.0155557339995,809.0155557339995,809.0155557339995,811.0334462439996,811.0334462439996,811.0334462439996,811.0334462439996,811.0334462439996,811.0334462439996,811.0334462439996,811.0334462439996,813.0519587849994,813.0519587849994,813.0519587849994,813.0519587849994,,,,,,,,,,,,,,,,,,,,,,,,,,,,,,,,,,,,,,,10,010,2022-09-26_10h40.57.664,test2,2022.2.4,59.838697132751754,
0,0,0,0,94,0,94,0,813.0519587849994,813.0519587849994,813.0519587849994,813.0519587849994,813.0519587849994,813.0519587849994,813.0519587849994,1,-1,rojo,0,['N_B'],814.9876132740001,814.9876132740001,814.9876132740001,814.9876132740001,817.0245271889999,817.0245271889999,817.0245271889999,817.0245271889999,817.0245271889999,817.0245271889999,817.0245271889999,817.0245271889999,819.041849194,819.041849194,819.041849194,819.041849194,,,,,,,,,,,,,,,,,,,,,,,,,,,,,,,,,,,,,,,10,010,2022-09-26_10h40.57.664,test2,2022.2.4,59.838697132751754,
0,0,0,0,95,0,95,0,819.041849194,819.041849194,819.041849194,819.041849194,819.041849194,819.041849194,819.041849194,1,-1,azul,0,['N_A'],820.9792477989995,820.9792477989995,820.9792477989995,820.9792477989995,823.0144500059996,823.0144500059996,823.0144500059996,823.0144500059996,823.0144500059996,823.0144500059996,823.0144500059996,823.0144500059996,825.0323041639995,825.0323041639995,825.0323041639995,825.0323041639995,,,,,,,,,,,,,,,,,,,,,,,,,,,,,,,,,,,,,,,10,010,2022-09-26_10h40.57.664,test2,2022.2.4,59.838697132751754,
0,0,0,0,96,0,96,0,825.0323041639995,825.0323041639995,825.0323041639995,825.0323041639995,825.0323041639995,825.0323041639995,825.0323041639995,1,-1,rojo,0,['N_B'],827.3849311429994,827.3849311429994,827.3849311429994,827.3849311429994,829.4209951949997,829.4209951949997,829.4209951949997,829.4209951949997,829.4209951949997,829.4209951949997,829.4209951949997,829.4209951949997,831.4392898779997,831.4392898779997,831.4392898779997,831.4392898779997,,,,,,,,,,,,,,,,,,,,,,,,,,,,,,,,,,,,,,,10,010,2022-09-26_10h40.57.664,test2,2022.2.4,59.838697132751754,
0,0,0,0,97,0,97,0,831.4392898779997,831.4392898779997,831.4392898779997,831.4392898779997,831.4392898779997,831.4392898779997,831.4392898779997,1,-1,azul,0,['N_A'],833.79159918,833.79159918,833.79159918,833.79159918,835.8278915390001,835.8278915390001,835.8278915390001,835.8278915390001,835.8278915390001,835.8278915390001,835.8278915390001,835.8278915390001,837.8464390299996,837.8464390299996,837.8464390299996,837.8464390299996,,,,,,,,,,,,,,,,,,,,,,,,,,,,,,,,,,,,,,,10,010,2022-09-26_10h40.57.664,test2,2022.2.4,59.838697132751754,
0,0,0,0,98,0,98,0,837.8464390299996,837.8464390299996,837.8464390299996,837.8464390299996,837.8464390299996,837.8464390299996,837.8464390299996,1,-1,rojo,0,['N_B'],839.5995251249997,839.5995251249997,839.5995251249997,839.5995251249997,841.6352508719992,841.6352508719992,841.6352508719992,841.6352508719992,841.6352508719992,841.6352508719992,841.6352508719992,841.6352508719992,843.6535076339997,843.6535076339997,843.6535076339997,843.6535076339997,,,,,,,,,,,,,,,,,,,,,,,,,,,,,,,,,,,,,,,10,010,2022-09-26_10h40.57.664,test2,2022.2.4,59.838697132751754,
0,0,0,0,99,0,99,0,843.6535076339997,843.6535076339997,843.6535076339997,843.6535076339997,843.6535076339997,843.6535076339997,843.6535076339997,1,-1,azul,0,['N_A'],846.0216123869995,846.0216123869995,846.0216123869995,846.0216123869995,848.0585824899999,848.0585824899999,848.0585824899999,848.0585824899999,848.0585824899999,848.0585824899999,848.0585824899999,848.0585824899999,850.0763803359996,850.0763803359996,850.0763803359996,850.0763803359996,,,,,,,,,,,,,,,,,,,,,,,,,,,,,,,,,,,,,,,10,010,2022-09-26_10h40.57.664,test2,2022.2.4,59.838697132751754,
0,0,0,0,100,0,100,0,850.0763803359996,850.0763803359996,850.0763803359996,850.0763803359996,850.0763803359996,850.0763803359996,850.0763803359996,1,-1,rojo,0,['N_B'],852.1621847589995,852.1621847589995,852.1621847589995,852.1621847589995,854.1982235810001,854.1982235810001,854.1982235810001,854.1982235810001,854.1982235810001,854.1982235810001,854.1982235810001,854.1982235810001,856.2166041499995,856.2166041499995,856.2166041499995,856.2166041499995,,,,,,,,,,,,,,,,,,,,,,,,,,,,,,,,,,,,,,,10,010,2022-09-26_10h40.57.664,test2,2022.2.4,59.838697132751754,
0,0,0,0,101,0,101,0,856.2166041499995,856.2166041499995,856.2166041499995,856.2166041499995,856.2166041499995,856.2166041499995,856.2166041499995,1,-1,azul,0,['N_A'],858.6036341029994,858.6036341029994,858.6036341029994,858.6036341029994,860.6393145080001,860.6393145080001,860.6393145080001,860.6393145080001,860.6393145080001,860.6393145080001,860.6393145080001,860.6393145080001,862.657087052,862.657087052,862.657087052,862.657087052,,,,,,,,,,,,,,,,,,,,,,,,,,,,,,,,,,,,,,,10,010,2022-09-26_10h40.57.664,test2,2022.2.4,59.838697132751754,
0,0,0,0,102,0,102,0,862.657087052,862.657087052,862.657087052,862.657087052,862.657087052,862.657087052,862.657087052,1,-1,rojo,1,['N_A'],864.7593548189998,864.7593548189998,864.7593548189998,864.7593548189998,866.7785092569993,866.7785092569993,866.7785092569993,866.7785092569993,866.7785092569993,866.7785092569993,866.7785092569993,866.7785092569993,868.7975333569993,868.7975333569993,868.7975333569993,868.7975333569993,,,,,,,,,,,,,,,,,,,,,,,,,,,,,,,,,,,,,,,10,010,2022-09-26_10h40.57.664,test2,2022.2.4,59.838697132751754,
0,0,0,0,103,0,103,0,868.7975333569993,868.7975333569993,868.7975333569993,868.7975333569993,868.7975333569993,868.7975333569993,868.7975333569993,1,1,rojo,1,['N_A'],870.9658359719997,870.9658359719997,870.9658359719997,870.9658359719997,872.9850595339994,872.9850595339994,872.9850595339994,872.9850595339994,872.9850595339994,872.9850595339994,872.9850595339994,872.9850595339994,875.0046006339999,875.0046006339999,875.0046006339999,875.0046006339999,,,,,,,,,,,,,,,,,,,,,,,,,,,,,,,,,,,,,,,10,010,2022-09-26_10h40.57.664,test2,2022.2.4,59.838697132751754,
0,0,0,0,104,0,104,0,875.0046006339999,875.0046006339999,875.0046006339999,875.0046006339999,875.0046006339999,875.0046006339999,875.0046006339999,-1,-1,azul,0,['N_B'],879.8590538049993,879.8590538049993,879.8590538049993,879.8590538049993,881.8782548319996,881.8782548319996,881.8782548319996,881.8782548319996,881.8782548319996,881.8782548319996,881.8782548319996,881.8782548319996,883.8972706159993,883.8972706159993,883.8972706159993,883.8972706159993,,,,,,,,,,,,,,,,,,,,,,,,,,,,,,,,,,,,,,,10,010,2022-09-26_10h40.57.664,test2,2022.2.4,59.838697132751754,
0,0,0,0,105,0,105,0,883.8972706159993,883.8972706159993,883.8972706159993,883.8972706159993,883.8972706159993,883.8972706159993,883.8972706159993,-1,1,rojo,0,['N_A'],887.2344299199995,887.2344299199995,887.2344299199995,887.2344299199995,889.2534625150001,889.2534625150001,889.2534625150001,889.2534625150001,889.2534625150001,889.2534625150001,889.2534625150001,889.2534625150001,891.2717109489995,891.2717109489995,891.2717109489995,891.2717109489995,,,,,,,,,,,,,,,,,,,,,,,,,,,,,,,,,,,,,,,10,010,2022-09-26_10h40.57.664,test2,2022.2.4,59.838697132751754,
0,0,0,0,106,0,106,0,891.2717109489995,891.2717109489995,891.2717109489995,891.2717109489995,891.2717109489995,891.2717109489995,891.2717109489995,1,1,rojo,1,['N_A'],893.058074392,893.058074392,893.058074392,893.058074392,895.0759893569993,895.0759893569993,895.0759893569993,895.0759893569993,895.0759893569993,895.0759893569993,895.0759893569993,895.0759893569993,897.0953816000001,897.0953816000001,897.0953816000001,897.0953816000001,,,,,,,,,,,,,,,,,,,,,,,,,,,,,,,,,,,,,,,10,010,2022-09-26_10h40.57.664,test2,2022.2.4,59.838697132751754,
0,0,0,0,107,0,107,0,897.0953816000001,897.0953816000001,897.0953816000001,897.0953816000001,897.0953816000001,897.0953816000001,897.0953816000001,-1,-1,azul,0,['N_B'],900.1990374229999,900.1990374229999,900.1990374229999,900.1990374229999,902.2345757059993,902.2345757059993,902.2345757059993,902.2345757059993,902.2345757059993,902.2345757059993,902.2345757059993,902.2345757059993,904.2523779959993,904.2523779959993,904.2523779959993,904.2523779959993,,,,,,,,,,,,,,,,,,,,,,,,,,,,,,,,,,,,,,,10,010,2022-09-26_10h40.57.664,test2,2022.2.4,59.838697132751754,
0,0,0,0,108,0,108,0,904.2523779959993,904.2523779959993,904.2523779959993,904.2523779959993,904.2523779959993,904.2523779959993,904.2523779959993,1,-1,azul,0,['N_A'],906.5388088679993,906.5388088679993,906.5388088679993,906.5388088679993,908.5754684079993,908.5754684079993,908.5754684079993,908.5754684079993,908.5754684079993,908.5754684079993,908.5754684079993,908.5754684079993,910.5928381119993,910.5928381119993,910.5928381119993,910.5928381119993,,,,,,,,,,,,,,,,,,,,,,,,,,,,,,,,,,,,,,,10,010,2022-09-26_10h40.57.664,test2,2022.2.4,59.838697132751754,
0,0,0,0,109,0,109,0,910.5928381119993,910.5928381119993,910.5928381119993,910.5928381119993,910.5928381119993,910.5928381119993,910.5928381119993,1,-1,rojo,0,['N_B'],912.2786264850001,912.2786264850001,912.2786264850001,912.2786264850001,914.2976367809997,914.2976367809997,914.2976367809997,914.2976367809997,914.2976367809997,914.2976367809997,914.2976367809997,914.2976367809997,916.3156657239997,916.3156657239997,916.3156657239997,916.3156657239997,,,,,,,,,,,,,,,,,,,,,,,,,,,,,,,,,,,,,,,10,010,2022-09-26_10h40.57.664,test2,2022.2.4,59.838697132751754,
0,0,0,0,110,0,110,0,916.3156657239997,916.3156657239997,916.3156657239997,916.3156657239997,916.3156657239997,916.3156657239997,916.3156657239997,-1,1,rojo,1,['N_B'],918.0018471949998,918.0018471949998,918.0018471949998,918.0018471949998,920.0205554069998,920.0205554069998,920.0205554069998,920.0205554069998,920.0205554069998,920.0205554069998,920.0205554069998,920.0205554069998,922.0391474469998,922.0391474469998,922.0391474469998,922.0391474469998,,,,,,,,,,,,,,,,,,,,,,,,,,,,,,,,,,,,,,,10,010,2022-09-26_10h40.57.664,test2,2022.2.4,59.838697132751754,
0,0,0,0,111,0,111,0,922.0391474469998,922.0391474469998,922.0391474469998,922.0391474469998,922.0391474469998,922.0391474469998,922.0391474469998,1,-1,azul,0,['N_A'],923.6739619179998,923.6739619179998,923.6739619179998,923.6739619179998,925.694102124,925.694102124,925.694102124,925.694102124,925.694102124,925.694102124,925.694102124,925.694102124,927.7121065369993,927.7121065369993,927.7121065369993,927.7121065369993,,,,,,,,,,,,,,,,,,,,,,,,,,,,,,,,,,,,,,,10,010,2022-09-26_10h40.57.664,test2,2022.2.4,59.838697132751754,
0,0,0,0,112,0,112,0,927.7121065369993,927.7121065369993,927.7121065369993,927.7121065369993,927.7121065369993,927.7121065369993,927.7121065369993,-1,1,azul,1,['N_A'],930.0150795899999,930.0150795899999,930.0150795899999,930.0150795899999,932.0337157799995,932.0337157799995,932.0337157799995,932.0337157799995,932.0337157799995,932.0337157799995,932.0337157799995,932.0337157799995,934.052304582,934.052304582,934.052304582,934.052304582,,,,,,,,,,,,,,,,,,,,,,,,,,,,,,,,,,,,,,,10,010,2022-09-26_10h40.57.664,test2,2022.2.4,59.838697132751754,
0,0,0,0,113,0,113,0,934.052304582,934.052304582,934.052304582,934.052304582,934.052304582,934.052304582,934.052304582,-1,-1,azul,0,['N_B'],935.8706717989999,935.8706717989999,935.8706717989999,935.8706717989999,937.8896305359995,937.8896305359995,937.8896305359995,937.8896305359995,937.8896305359995,937.8896305359995,937.8896305359995,937.8896305359995,939.9085527729994,939.9085527729994,939.9085527729994,939.9085527729994,,,,,,,,,,,,,,,,,,,,,,,,,,,,,,,,,,,,,,,10,010,2022-09-26_10h40.57.664,test2,2022.2.4,59.838697132751754,
0,0,0,0,114,0,114,0,939.9085527729994,939.9085527729994,939.9085527729994,939.9085527729994,939.9085527729994,939.9085527729994,939.9085527729994,1,1,azul,1,['N_B'],942.4797748609999,942.4797748609999,942.4797748609999,942.4797748609999,944.4983067939993,944.4983067939993,944.4983067939993,944.4983067939993,944.4983067939993,944.4983067939993,944.4983067939993,944.4983067939993,946.5158544779997,946.5158544779997,946.5158544779997,946.5158544779997,,,,,,,,,,,,,,,,,,,,,,,,,,,,,,,,,,,,,,,10,010,2022-09-26_10h40.57.664,test2,2022.2.4,59.838697132751754,
0,0,0,0,115,0,115,0,946.5158544779997,946.5158544779997,946.5158544779997,946.5158544779997,946.5158544779997,946.5158544779997,946.5158544779997,1,1,azul,1,['N_B'],949.9366180899997,949.9366180899997,949.9366180899997,949.9366180899997,951.9561766419993,951.9561766419993,951.9561766419993,951.9561766419993,951.9561766419993,951.9561766419993,951.9561766419993,951.9561766419993,953.9744601859993,953.9744601859993,953.9744601859993,953.9744601859993,,,,,,,,,,,,,,,,,,,,,,,,,,,,,,,,,,,,,,,10,010,2022-09-26_10h40.57.664,test2,2022.2.4,59.838697132751754,
0,0,0,0,116,0,116,0,953.9744601859993,953.9744601859993,953.9744601859993,953.9744601859993,953.9744601859993,953.9744601859993,953.9744601859993,-1,1,rojo,1,['N_B'],956.410950857,956.410950857,956.410950857,956.410950857,958.4299759859996,958.4299759859996,958.4299759859996,958.4299759859996,958.4299759859996,958.4299759859996,958.4299759859996,958.4299759859996,960.4482262759993,960.4482262759993,960.4482262759993,960.4482262759993,,,,,,,,,,,,,,,,,,,,,,,,,,,,,,,,,,,,,,,10,010,2022-09-26_10h40.57.664,test2,2022.2.4,59.838697132751754,
0,0,0,0,117,0,117,0,960.4482262759993,960.4482262759993,960.4482262759993,960.4482262759993,960.4482262759993,960.4482262759993,960.4482262759993,1,-1,azul,0,['N_A'],964.1525647979997,964.1525647979997,964.1525647979997,964.1525647979997,966.1717630089997,966.1717630089997,966.1717630089997,966.1717630089997,966.1717630089997,966.1717630089997,966.1717630089997,966.1717630089997,968.1899636589997,968.1899636589997,968.1899636589997,968.1899636589997,,,,,,,,,,,,,,,,,,,,,,,,,,,,,,,,,,,,,,,10,010,2022-09-26_10h40.57.664,test2,2022.2.4,59.838697132751754,
0,0,0,0,118,0,118,0,968.1899636589997,968.1899636589997,968.1899636589997,968.1899636589997,968.1899636589997,968.1899636589997,968.1899636589997,1,1,rojo,1,['N_A'],970.3259201439996,970.3259201439996,970.3259201439996,970.3259201439996,972.3451008639995,972.3451008639995,972.3451008639995,972.3451008639995,972.3451008639995,972.3451008639995,972.3451008639995,972.3451008639995,974.3631079869992,974.3631079869992,974.3631079869992,974.3631079869992,,,,,,,,,,,,,,,,,,,,,,,,,,,,,,,,,,,,,,,10,010,2022-09-26_10h40.57.664,test2,2022.2.4,59.838697132751754,
0,0,0,0,119,0,119,0,974.3631079869992,974.3631079869992,974.3631079869992,974.3631079869992,974.3631079869992,974.3631079869992,974.3631079869992,-1,-1,azul,0,['N_B'],977.0502291299999,977.0502291299999,977.0502291299999,977.0502291299999,979.0861214709994,979.0861214709994,979.0861214709994,979.0861214709994,979.0861214709994,979.0861214709994,979.0861214709994,979.0861214709994,981.1047288239997,981.1047288239997,981.1047288239997,981.1047288239997,,,,,,,,,,,,,,,,,,,,,,,,,,,,,,,,,,,,,,,10,010,2022-09-26_10h40.57.664,test2,2022.2.4,59.838697132751754,
0,0,0,0,120,0,120,0,981.1047288239997,981.1047288239997,981.1047288239997,981.1047288239997,981.1047288239997,981.1047288239997,981.1047288239997,1,-1,azul,0,['N_A'],983.2562580139993,983.2562580139993,983.2562580139993,983.2562580139993,985.2931450569995,985.2931450569995,985.2931450569995,985.2931450569995,985.2931450569995,985.2931450569995,985.2931450569995,985.2931450569995,987.3117681169997,987.3117681169997,987.3117681169997,987.3117681169997,,,,,,,,,,,,,,,,,,,,,,,,,,,,,,,,,,,,,,,10,010,2022-09-26_10h40.57.664,test2,2022.2.4,59.838697132751754,
0,0,0,0,121,0,121,0,987.3117681169997,987.3117681169997,987.3117681169997,987.3117681169997,987.3117681169997,987.3117681169997,987.3117681169997,1,-1,rojo,0,['N_B'],989.0631952109998,989.0631952109998,989.0631952109998,989.0631952109998,991.1001955009997,991.1001955009997,991.1001955009997,991.1001955009997,991.1001955009997,991.1001955009997,991.1001955009997,991.1001955009997,993.1177485589997,993.1177485589997,993.1177485589997,993.1177485589997,,,,,,,,,,,,,,,,,,,,,,,,,,,,,,,,,,,,,,,10,010,2022-09-26_10h40.57.664,test2,2022.2.4,59.838697132751754,
0,0,0,0,122,0,122,0,993.1177485589997,993.1177485589997,993.1177485589997,993.1177485589997,993.1177485589997,993.1177485589997,993.1177485589997,1,-1,azul,0,['N_A'],995.6205734759997,995.6205734759997,995.6205734759997,995.6205734759997,997.6396815449998,997.6396815449998,997.6396815449998,997.6396815449998,997.6396815449998,997.6396815449998,997.6396815449998,997.6396815449998,999.658224453,999.658224453,999.658224453,999.658224453,,,,,,,,,,,,,,,,,,,,,,,,,,,,,,,,,,,,,,,10,010,2022-09-26_10h40.57.664,test2,2022.2.4,59.838697132751754,
0,0,0,0,123,0,123,0,999.658224453,999.658224453,999.658224453,999.658224453,999.658224453,999.658224453,999.658224453,1,1,rojo,1,['N_A'],1002.5449680659995,1002.5449680659995,1002.5449680659995,1002.5449680659995,1004.5634868569996,1004.5634868569996,1004.5634868569996,1004.5634868569996,1004.5634868569996,1004.5634868569996,1004.5634868569996,1004.5634868569996,1006.5820797689994,1006.5820797689994,1006.5820797689994,1006.5820797689994,,,,,,,,,,,,,,,,,,,,,,,,,,,,,,,,,,,,,,,10,010,2022-09-26_10h40.57.664,test2,2022.2.4,59.838697132751754,
0,0,0,0,124,0,124,0,1006.5820797689994,1006.5820797689994,1006.5820797689994,1006.5820797689994,1006.5820797689994,1006.5820797689994,1006.5820797689994,1,-1,rojo,0,['N_B'],1009.1182962039993,1009.1182962039993,1009.1182962039993,1009.1182962039993,1011.1372387219999,1011.1372387219999,1011.1372387219999,1011.1372387219999,1011.1372387219999,1011.1372387219999,1011.1372387219999,1011.1372387219999,1013.1561839729993,1013.1561839729993,1013.1561839729993,1013.1561839729993,,,,,,,,,,,,,,,,,,,,,,,,,,,,,,,,,,,,,,,10,010,2022-09-26_10h40.57.664,test2,2022.2.4,59.838697132751754,
0,0,0,0,125,0,125,0,1013.1561839729993,1013.1561839729993,1013.1561839729993,1013.1561839729993,1013.1561839729993,1013.1561839729993,1013.1561839729993,-1,1,rojo,1,['N_B'],1014.7579824269997,1014.7579824269997,1014.7579824269997,1014.7579824269997,1016.777442609,1016.777442609,1016.777442609,1016.777442609,1016.777442609,1016.777442609,1016.777442609,1016.777442609,1018.79543448,1018.79543448,1018.79543448,1018.79543448,,,,,,,,,,,,,,,,,,,,,,,,,,,,,,,,,,,,,,,10,010,2022-09-26_10h40.57.664,test2,2022.2.4,59.838697132751754,
0,0,0,0,126,0,126,0,1018.79543448,1018.79543448,1018.79543448,1018.79543448,1018.79543448,1018.79543448,1018.79543448,1,-1,azul,0,['N_A'],1021.1492615489997,1021.1492615489997,1021.1492615489997,1021.1492615489997,1023.1675118679996,1023.1675118679996,1023.1675118679996,1023.1675118679996,1023.1675118679996,1023.1675118679996,1023.1675118679996,1023.1675118679996,1025.1868772909993,1025.1868772909993,1025.1868772909993,1025.1868772909993,,,,,,,,,,,,,,,,,,,,,,,,,,,,,,,,,,,,,,,10,010,2022-09-26_10h40.57.664,test2,2022.2.4,59.838697132751754,
0,0,0,0,127,0,127,0,1025.1868772909993,1025.1868772909993,1025.1868772909993,1025.1868772909993,1025.1868772909993,1025.1868772909993,1025.1868772909993,1,1,rojo,1,['N_A'],1026.921989333,1026.921989333,1026.921989333,1026.921989333,1028.941136859,1028.941136859,1028.941136859,1028.941136859,1028.941136859,1028.941136859,1028.941136859,1028.941136859,1030.9594954569993,1030.9594954569993,1030.9594954569993,1030.9594954569993,,,,,,,,,,,,,,,,,,,,,,,,,,,,,,,,,,,,,,,10,010,2022-09-26_10h40.57.664,test2,2022.2.4,59.838697132751754,
0,0,0,0,128,0,128,0,1030.9594954569993,1030.9594954569993,1030.9594954569993,1030.9594954569993,1030.9594954569993,1030.9594954569993,1030.9594954569993,1,1,rojo,1,['N_A'],1033.1115778049998,1033.1115778049998,1033.1115778049998,1033.1115778049998,1035.1319028069993,1035.1319028069993,1035.1319028069993,1035.1319028069993,1035.1319028069993,1035.1319028069993,1035.1319028069993,1035.1319028069993,1037.1499644759997,1037.1499644759997,1037.1499644759997,1037.1499644759997,,,,,,,,,,,,,,,,,,,,,,,,,,,,,,,,,,,,,,,10,010,2022-09-26_10h40.57.664,test2,2022.2.4,59.838697132751754,
0,0,0,0,129,0,129,0,1037.1499644759997,1037.1499644759997,1037.1499644759997,1037.1499644759997,1037.1499644759997,1037.1499644759997,1037.1499644759997,1,-1,rojo,0,['N_B'],1038.8356027689997,1038.8356027689997,1038.8356027689997,1038.8356027689997,1040.8717416939999,1040.8717416939999,1040.8717416939999,1040.8717416939999,1040.8717416939999,1040.8717416939999,1040.8717416939999,1040.8717416939999,1042.8896135309997,1042.8896135309997,1042.8896135309997,1042.8896135309997,,,,,,,,,,,,,,,,,,,,,,,,,,,,,,,,,,,,,,,10,010,2022-09-26_10h40.57.664,test2,2022.2.4,59.838697132751754,
0,0,0,0,130,0,130,0,1042.8896135309997,1042.8896135309997,1042.8896135309997,1042.8896135309997,1042.8896135309997,1042.8896135309997,1042.8896135309997,1,-1,azul,0,['N_A'],1045.558732044,1045.558732044,1045.558732044,1045.558732044,1047.5953732239996,1047.5953732239996,1047.5953732239996,1047.5953732239996,1047.5953732239996,1047.5953732239996,1047.5953732239996,1047.5953732239996,1049.6129955809993,1049.6129955809993,1049.6129955809993,1049.6129955809993,,,,,,,,,,,,,,,,,,,,,,,,,,,,,,,,,,,,,,,10,010,2022-09-26_10h40.57.664,test2,2022.2.4,59.838697132751754,
0,0,0,0,131,0,131,0,1049.6129955809993,1049.6129955809993,1049.6129955809993,1049.6129955809993,1049.6129955809993,1049.6129955809993,1049.6129955809993,1,-1,rojo,0,['N_B'],1053.6174195939993,1053.6174195939993,1053.6174195939993,1053.6174195939993,1055.6541038979994,1055.6541038979994,1055.6541038979994,1055.6541038979994,1055.6541038979994,1055.6541038979994,1055.6541038979994,1055.6541038979994,1057.671952361,1057.671952361,1057.671952361,1057.671952361,,,,,,,,,,,,,,,,,,,,,,,,,,,,,,,,,,,,,,,10,010,2022-09-26_10h40.57.664,test2,2022.2.4,59.838697132751754,
0,0,0,0,132,0,132,0,1057.671952361,1057.671952361,1057.671952361,1057.671952361,1057.671952361,1057.671952361,1057.671952361,1,-1,azul,0,['N_A'],1062.9942480909995,1062.9942480909995,1062.9942480909995,1062.9942480909995,1065.0314176519996,1065.0314176519996,1065.0314176519996,1065.0314176519996,1065.0314176519996,1065.0314176519996,1065.0314176519996,1065.0314176519996,1067.0496203799994,1067.0496203799994,1067.0496203799994,1067.0496203799994,,,,,,,,,,,,,,,,,,,,,,,,,,,,,,,,,,,,,,,10,010,2022-09-26_10h40.57.664,test2,2022.2.4,59.838697132751754,
0,0,0,0,133,0,133,0,1067.0496203799994,1067.0496203799994,1067.0496203799994,1067.0496203799994,1067.0496203799994,1067.0496203799994,1067.0496203799994,1,-1,rojo,0,['N_B'],1068.9184109889993,1068.9184109889993,1068.9184109889993,1068.9184109889993,1070.9546119329998,1070.9546119329998,1070.9546119329998,1070.9546119329998,1070.9546119329998,1070.9546119329998,1070.9546119329998,1070.9546119329998,1072.973711617,1072.973711617,1072.973711617,1072.973711617,,,,,,,,,,,,,,,,,,,,,,,,,,,,,,,,,,,,,,,10,010,2022-09-26_10h40.57.664,test2,2022.2.4,59.838697132751754,
0,0,0,0,134,0,134,0,1072.973711617,1072.973711617,1072.973711617,1072.973711617,1072.973711617,1072.973711617,1072.973711617,1,-1,azul,0,['N_A'],1074.9743670019998,1074.9743670019998,1074.9743670019998,1074.9743670019998,1076.9937223050001,1076.9937223050001,1076.9937223050001,1076.9937223050001,1076.9937223050001,1076.9937223050001,1076.9937223050001,1076.9937223050001,1079.0133214059997,1079.0133214059997,1079.0133214059997,1079.0133214059997,,,,,,,,,,,,,,,,,,,,,,,,,,,,,,,,,,,,,,,10,010,2022-09-26_10h40.57.664,test2,2022.2.4,59.838697132751754,
0,0,0,0,135,0,135,0,1079.0133214059997,1079.0133214059997,1079.0133214059997,1079.0133214059997,1079.0133214059997,1079.0133214059997,1079.0133214059997,1,1,rojo,1,['N_A'],1080.8817456289999,1080.8817456289999,1080.8817456289999,1080.8817456289999,1082.901142441,1082.901142441,1082.901142441,1082.901142441,1082.901142441,1082.901142441,1082.901142441,1082.901142441,1084.9188640829998,1084.9188640829998,1084.9188640829998,1084.9188640829998,,,,,,,,,,,,,,,,,,,,,,,,,,,,,,,,,,,,,,,10,010,2022-09-26_10h40.57.664,test2,2022.2.4,59.838697132751754,
0,0,0,0,136,0,136,0,1084.9188640829998,1084.9188640829998,1084.9188640829998,1084.9188640829998,1084.9188640829998,1084.9188640829998,1084.9188640829998,1,1,rojo,1,['N_A'],1086.6547920529993,1086.6547920529993,1086.6547920529993,1086.6547920529993,1088.6736619699996,1088.6736619699996,1088.6736619699996,1088.6736619699996,1088.6736619699996,1088.6736619699996,1088.6736619699996,1088.6736619699996,1090.691911969,1090.691911969,1090.691911969,1090.691911969,,,,,,,,,,,,,,,,,,,,,,,,,,,,,,,,,,,,,,,10,010,2022-09-26_10h40.57.664,test2,2022.2.4,59.838697132751754,
0,0,0,0,137,0,137,0,1090.691911969,1090.691911969,1090.691911969,1090.691911969,1090.691911969,1090.691911969,1090.691911969,-1,1,azul,1,['N_A'],1092.711091964,1092.711091964,1092.711091964,1092.711091964,1094.7292977379993,1094.7292977379993,1094.7292977379993,1094.7292977379993,1094.7292977379993,1094.7292977379993,1094.7292977379993,1094.7292977379993,1096.7486701079997,1096.7486701079997,1096.7486701079997,1096.7486701079997,,,,,,,,,,,,,,,,,,,,,,,,,,,,,,,,,,,,,,,10,010,2022-09-26_10h40.57.664,test2,2022.2.4,59.838697132751754,
0,0,0,0,138,0,138,0,1096.7486701079997,1096.7486701079997,1096.7486701079997,1096.7486701079997,1096.7486701079997,1096.7486701079997,1096.7486701079997,-1,-1,azul,1,['N_A'],1099.701897387,1099.701897387,1099.701897387,1099.701897387,1101.720251109,1101.720251109,1101.720251109,1101.720251109,1101.720251109,1101.720251109,1101.720251109,1101.720251109,1103.7394686059997,1103.7394686059997,1103.7394686059997,1103.7394686059997,,,,,,,,,,,,,,,,,,,,,,,,,,,,,,,,,,,,,,,10,010,2022-09-26_10h40.57.664,test2,2022.2.4,59.838697132751754,
0,0,0,0,139,0,139,0,1103.7394686059997,1103.7394686059997,1103.7394686059997,1103.7394686059997,1103.7394686059997,1103.7394686059997,1103.7394686059997,1,1,rojo,1,['N_A'],1105.927166337,1105.927166337,1105.927166337,1105.927166337,1107.9452125879998,1107.9452125879998,1107.9452125879998,1107.9452125879998,1107.9452125879998,1107.9452125879998,1107.9452125879998,1107.9452125879998,1109.9632685870001,1109.9632685870001,1109.9632685870001,1109.9632685870001,,,,,,,,,,,,,,,,,,,,,,,,,,,,,,,,,,,,,,,10,010,2022-09-26_10h40.57.664,test2,2022.2.4,59.838697132751754,
0,0,0,0,140,0,140,0,1109.9632685870001,1109.9632685870001,1109.9632685870001,1109.9632685870001,1109.9632685870001,1109.9632685870001,1109.9632685870001,1,1,rojo,1,['N_A'],1112.2987905969994,1112.2987905969994,1112.2987905969994,1112.2987905969994,1114.3181832219998,1114.3181832219998,1114.3181832219998,1114.3181832219998,1114.3181832219998,1114.3181832219998,1114.3181832219998,1114.3181832219998,1116.3372803039993,1116.3372803039993,1116.3372803039993,1116.3372803039993,,,,,,,,,,,,,,,,,,,,,,,,,,,,,,,,,,,,,,,10,010,2022-09-26_10h40.57.664,test2,2022.2.4,59.838697132751754,
0,0,0,0,141,0,141,0,1116.3372803039993,1116.3372803039993,1116.3372803039993,1116.3372803039993,1116.3372803039993,1116.3372803039993,1116.3372803039993,1,-1,rojo,1,['N_A'],1118.1896392989993,1118.1896392989993,1118.1896392989993,1118.1896392989993,1120.225543564,1120.225543564,1120.225543564,1120.225543564,1120.225543564,1120.225543564,1120.225543564,1120.225543564,1122.244571055,1122.244571055,1122.244571055,1122.244571055,,,,,,,,,,,,,,,,,,,,,,,,,,,,,,,,,,,,,,,10,010,2022-09-26_10h40.57.664,test2,2022.2.4,59.838697132751754,
0,0,0,0,142,0,142,0,1122.244571055,1122.244571055,1122.244571055,1122.244571055,1122.244571055,1122.244571055,1122.244571055,1,-1,rojo,0,['N_B'],1123.962473138,1123.962473138,1123.962473138,1123.962473138,1125.997907862,1125.997907862,1125.997907862,1125.997907862,1125.997907862,1125.997907862,1125.997907862,1125.997907862,1128.0164247449993,1128.0164247449993,1128.0164247449993,1128.0164247449993,,,,,,,,,,,,,,,,,,,,,,,,,,,,,,,,,,,,,,,10,010,2022-09-26_10h40.57.664,test2,2022.2.4,59.838697132751754,
0,0,0,0,143,0,143,0,1128.0164247449993,1128.0164247449993,1128.0164247449993,1128.0164247449993,1128.0164247449993,1128.0164247449993,1128.0164247449993,1,-1,azul,1,['N_B'],1131.4377579849997,1131.4377579849997,1131.4377579849997,1131.4377579849997,1133.473016727,1133.473016727,1133.473016727,1133.473016727,1133.473016727,1133.473016727,1133.473016727,1133.473016727,1135.4914037689996,1135.4914037689996,1135.4914037689996,1135.4914037689996,,,,,,,,,,,,,,,,,,,,,,,,,,,,,,,,,,,,,,,10,010,2022-09-26_10h40.57.664,test2,2022.2.4,59.838697132751754,
0,0,0,0,144,0,144,0,1135.4914037689996,1135.4914037689996,1135.4914037689996,1135.4914037689996,1135.4914037689996,1135.4914037689996,1135.4914037689996,1,-1,azul,0,['N_A'],1137.1932230479997,1137.1932230479997,1137.1932230479997,1137.1932230479997,1139.2119618529996,1139.2119618529996,1139.2119618529996,1139.2119618529996,1139.2119618529996,1139.2119618529996,1139.2119618529996,1139.2119618529996,1141.2305970629995,1141.2305970629995,1141.2305970629995,1141.2305970629995,,,,,,,,,,,,,,,,,,,,,,,,,,,,,,,,,,,,,,,10,010,2022-09-26_10h40.57.664,test2,2022.2.4,59.838697132751754,
0,0,0,0,145,0,145,0,1141.2305970629995,1141.2305970629995,1141.2305970629995,1141.2305970629995,1141.2305970629995,1141.2305970629995,1141.2305970629995,1,1,rojo,1,['N_A'],1142.9501038219996,1142.9501038219996,1142.9501038219996,1142.9501038219996,1144.9685966259995,1144.9685966259995,1144.9685966259995,1144.9685966259995,1144.9685966259995,1144.9685966259995,1144.9685966259995,1144.9685966259995,1146.9882528999997,1146.9882528999997,1146.9882528999997,1146.9882528999997,,,,,,,,,,,,,,,,,,,,,,,,,,,,,,,,,,,,,,,10,010,2022-09-26_10h40.57.664,test2,2022.2.4,59.838697132751754,
0,0,0,0,146,0,146,0,1146.9882528999997,1146.9882528999997,1146.9882528999997,1146.9882528999997,1146.9882528999997,1146.9882528999997,1146.9882528999997,1,1,rojo,1,['N_A'],1148.8402542549993,1148.8402542549993,1148.8402542549993,1148.8402542549993,1150.858392188,1150.858392188,1150.858392188,1150.858392188,1150.858392188,1150.858392188,1150.858392188,1150.858392188,1152.8772532579997,1152.8772532579997,1152.8772532579997,1152.8772532579997,,,,,,,,,,,,,,,,,,,,,,,,,,,,,,,,,,,,,,,10,010,2022-09-26_10h40.57.664,test2,2022.2.4,59.838697132751754,
0,0,0,0,147,0,147,0,1152.8772532579997,1152.8772532579997,1152.8772532579997,1152.8772532579997,1152.8772532579997,1152.8772532579997,1152.8772532579997,1,-1,rojo,0,['N_B'],1155.713812602,1155.713812602,1155.713812602,1155.713812602,1157.7499696219993,1157.7499696219993,1157.7499696219993,1157.7499696219993,1157.7499696219993,1157.7499696219993,1157.7499696219993,1157.7499696219993,1159.7683236719995,1159.7683236719995,1159.7683236719995,1159.7683236719995,,,,,,,,,,,,,,,,,,,,,,,,,,,,,,,,,,,,,,,10,010,2022-09-26_10h40.57.664,test2,2022.2.4,59.838697132751754,
0,0,0,0,148,0,148,0,1159.7683236719995,1159.7683236719995,1159.7683236719995,1159.7683236719995,1159.7683236719995,1159.7683236719995,1159.7683236719995,1,-1,azul,0,['N_A'],1161.5703427509998,1161.5703427509998,1161.5703427509998,1161.5703427509998,1163.589515916,1163.589515916,1163.589515916,1163.589515916,1163.589515916,1163.589515916,1163.589515916,1163.589515916,1165.6077464219998,1165.6077464219998,1165.6077464219998,1165.6077464219998,,,,,,,,,,,,,,,,,,,,,,,,,,,,,,,,,,,,,,,10,010,2022-09-26_10h40.57.664,test2,2022.2.4,59.838697132751754,
0,0,0,0,149,0,149,0,1165.6077464219998,1165.6077464219998,1165.6077464219998,1165.6077464219998,1165.6077464219998,1165.6077464219998,1165.6077464219998,1,1,rojo,1,['N_A'],1167.5106696679995,1167.5106696679995,1167.5106696679995,1167.5106696679995,1169.52884301,1169.52884301,1169.52884301,1169.52884301,1169.52884301,1169.52884301,1169.52884301,1169.52884301,1171.5474829579998,1171.5474829579998,1171.5474829579998,1171.5474829579998,,,,,,,,,,,,,,,,,,,,,,,,,,,,,,,,,,,,,,,10,010,2022-09-26_10h40.57.664,test2,2022.2.4,59.838697132751754,
0,0,0,0,150,0,150,0,1171.5474829579998,1171.5474829579998,1171.5474829579998,1171.5474829579998,1171.5474829579998,1171.5474829579998,1171.5474829579998,1,-1,rojo,1,['N_A'],1173.3830135389999,1173.3830135389999,1173.3830135389999,1173.3830135389999,1175.4029798329993,1175.4029798329993,1175.4029798329993,1175.4029798329993,1175.4029798329993,1175.4029798329993,1175.4029798329993,1175.4029798329993,1177.421098539,1177.421098539,1177.421098539,1177.421098539,,,,,,,,,,,,,,,,,,,,,,,,,,,,,,,,,,,,,,,10,010,2022-09-26_10h40.57.664,test2,2022.2.4,59.838697132751754,
0,0,0,0,151,0,151,0,1177.421098539,1177.421098539,1177.421098539,1177.421098539,1177.421098539,1177.421098539,1177.421098539,1,1,rojo,1,['N_A'],1179.2892629749995,1179.2892629749995,1179.2892629749995,1179.2892629749995,1181.3080859069996,1181.3080859069996,1181.3080859069996,1181.3080859069996,1181.3080859069996,1181.3080859069996,1181.3080859069996,1181.3080859069996,1183.3275055429995,1183.3275055429995,1183.3275055429995,1183.3275055429995,,,,,,,,,,,,,,,,,,,,,,,,,,,,,,,,,,,,,,,10,010,2022-09-26_10h40.57.664,test2,2022.2.4,59.838697132751754,
0,0,0,0,152,0,152,0,1183.3275055429995,1183.3275055429995,1183.3275055429995,1183.3275055429995,1183.3275055429995,1183.3275055429995,1183.3275055429995,1,-1,rojo,1,['N_A'],1185.9643641129996,1185.9643641129996,1185.9643641129996,1185.9643641129996,1188.0010943549996,1188.0010943549996,1188.0010943549996,1188.0010943549996,1188.0010943549996,1188.0010943549996,1188.0010943549996,1188.0010943549996,1190.0187914069993,1190.0187914069993,1190.0187914069993,1190.0187914069993,,,,,,,,,,,,,,,,,,,,,,,,,,,,,,,,,,,,,,,10,010,2022-09-26_10h40.57.664,test2,2022.2.4,59.838697132751754,
0,0,0,0,153,0,153,0,1190.0187914069993,1190.0187914069993,1190.0187914069993,1190.0187914069993,1190.0187914069993,1190.0187914069993,1190.0187914069993,-1,-1,azul,0,['N_B'],1191.9048297769996,1191.9048297769996,1191.9048297769996,1191.9048297769996,1193.939744018,1193.939744018,1193.939744018,1193.939744018,1193.939744018,1193.939744018,1193.939744018,1193.939744018,1195.9577616729994,1195.9577616729994,1195.9577616729994,1195.9577616729994,,,,,,,,,,,,,,,,,,,,,,,,,,,,,,,,,,,,,,,10,010,2022-09-26_10h40.57.664,test2,2022.2.4,59.838697132751754,
0,0,0,0,154,0,154,0,1195.9577616729994,1195.9577616729994,1195.9577616729994,1195.9577616729994,1195.9577616729994,1195.9577616729994,1195.9577616729994,-1,-1,rojo,1,['N_B'],1197.8763218699996,1197.8763218699996,1197.8763218699996,1197.8763218699996,1199.8963213159996,1199.8963213159996,1199.8963213159996,1199.8963213159996,1199.8963213159996,1199.8963213159996,1199.8963213159996,1199.8963213159996,1201.9141497089995,1201.9141497089995,1201.9141497089995,1201.9141497089995,,,,,,,,,,,,,,,,,,,,,,,,,,,,,,,,,,,,,,,10,010,2022-09-26_10h40.57.664,test2,2022.2.4,59.838697132751754,
0,0,0,0,155,0,155,0,1201.9141497089995,1201.9141497089995,1201.9141497089995,1201.9141497089995,1201.9141497089995,1201.9141497089995,1201.9141497089995,-1,1,rojo,1,['N_B'],1203.7173767839995,1203.7173767839995,1203.7173767839995,1203.7173767839995,1205.7361397799996,1205.7361397799996,1205.7361397799996,1205.7361397799996,1205.7361397799996,1205.7361397799996,1205.7361397799996,1205.7361397799996,1207.7545569129998,1207.7545569129998,1207.7545569129998,1207.7545569129998,,,,,,,,,,,,,,,,,,,,,,,,,,,,,,,,,,,,,,,10,010,2022-09-26_10h40.57.664,test2,2022.2.4,59.838697132751754,
0,0,0,0,156,0,156,0,1207.7545569129998,1207.7545569129998,1207.7545569129998,1207.7545569129998,1207.7545569129998,1207.7545569129998,1207.7545569129998,-1,-1,rojo,0,['N_A'],1210.0243475039997,1210.0243475039997,1210.0243475039997,1210.0243475039997,1212.0594079029997,1212.0594079029997,1212.0594079029997,1212.0594079029997,1212.0594079029997,1212.0594079029997,1212.0594079029997,1212.0594079029997,1214.0789202759997,1214.0789202759997,1214.0789202759997,1214.0789202759997,,,,,,,,,,,,,,,,,,,,,,,,,,,,,,,,,,,,,,,10,010,2022-09-26_10h40.57.664,test2,2022.2.4,59.838697132751754,
0,0,0,0,157,0,157,0,1214.0789202759997,1214.0789202759997,1214.0789202759997,1214.0789202759997,1214.0789202759997,1214.0789202759997,1214.0789202759997,1,-1,rojo,0,['N_B'],1216.7996376909996,1216.7996376909996,1216.7996376909996,1216.7996376909996,1218.817035356,1218.817035356,1218.817035356,1218.817035356,1218.817035356,1218.817035356,1218.817035356,1218.817035356,1220.8352215589994,1220.8352215589994,1220.8352215589994,1220.8352215589994,,,,,,,,,,,,,,,,,,,,,,,,,,,,,,,,,,,,,,,10,010,2022-09-26_10h40.57.664,test2,2022.2.4,59.838697132751754,
0,0,0,0,158,0,158,0,1220.8352215589994,1220.8352215589994,1220.8352215589994,1220.8352215589994,1220.8352215589994,1220.8352215589994,1220.8352215589994,-1,1,rojo,1,['N_B'],1222.5043863109995,1222.5043863109995,1222.5043863109995,1222.5043863109995,1224.5235625299993,1224.5235625299993,1224.5235625299993,1224.5235625299993,1224.5235625299993,1224.5235625299993,1224.5235625299993,1224.5235625299993,1226.5418466390001,1226.5418466390001,1226.5418466390001,1226.5418466390001,,,,,,,,,,,,,,,,,,,,,,,,,,,,,,,,,,,,,,,10,010,2022-09-26_10h40.57.664,test2,2022.2.4,59.838697132751754,
0,0,0,0,159,0,159,0,1226.5418466390001,1226.5418466390001,1226.5418466390001,1226.5418466390001,1226.5418466390001,1226.5418466390001,1226.5418466390001,-1,-1,rojo,0,['N_A'],1228.226518685,1228.226518685,1228.226518685,1228.226518685,1230.263080531,1230.263080531,1230.263080531,1230.263080531,1230.263080531,1230.263080531,1230.263080531,1230.263080531,1232.281569666,1232.281569666,1232.281569666,1232.281569666,,,,,,,,,,,,,,,,,,,,,,,,,,,,,,,,,,,,,,,10,010,2022-09-26_10h40.57.664,test2,2022.2.4,59.838697132751754,
0,0,0,0,160,0,160,0,1232.281569666,1232.281569666,1232.281569666,1232.281569666,1232.281569666,1232.281569666,1232.281569666,-1,-1,azul,0,['N_B'],1234.0507859169993,1234.0507859169993,1234.0507859169993,1234.0507859169993,1236.086422212,1236.086422212,1236.086422212,1236.086422212,1236.086422212,1236.086422212,1236.086422212,1236.086422212,1238.1043376279995,1238.1043376279995,1238.1043376279995,1238.1043376279995,,,,,,,,,,,,,,,,,,,,,,,,,,,,,,,,,,,,,,,10,010,2022-09-26_10h40.57.664,test2,2022.2.4,59.838697132751754,
0,0,0,0,161,0,161,0,1238.1043376279995,1238.1043376279995,1238.1043376279995,1238.1043376279995,1238.1043376279995,1238.1043376279995,1238.1043376279995,1,-1,azul,0,['N_A'],1239.991888826,1239.991888826,1239.991888826,1239.991888826,1242.0093934139995,1242.0093934139995,1242.0093934139995,1242.0093934139995,1242.0093934139995,1242.0093934139995,1242.0093934139995,1242.0093934139995,1244.0276330689994,1244.0276330689994,1244.0276330689994,1244.0276330689994,,,,,,,,,,,,,,,,,,,,,,,,,,,,,,,,,,,,,,,10,010,2022-09-26_10h40.57.664,test2,2022.2.4,59.838697132751754,
0,0,0,0,162,0,162,0,1244.0276330689994,1244.0276330689994,1244.0276330689994,1244.0276330689994,1244.0276330689994,1244.0276330689994,1244.0276330689994,1,1,rojo,1,['N_A'],1246.0469986419994,1246.0469986419994,1246.0469986419994,1246.0469986419994,1248.0653829489993,1248.0653829489993,1248.0653829489993,1248.0653829489993,1248.0653829489993,1248.0653829489993,1248.0653829489993,1248.0653829489993,1250.0842009729995,1250.0842009729995,1250.0842009729995,1250.0842009729995,,,,,,,,,,,,,,,,,,,,,,,,,,,,,,,,,,,,,,,10,010,2022-09-26_10h40.57.664,test2,2022.2.4,59.838697132751754,
0,0,0,0,163,0,163,0,1250.0842009729995,1250.0842009729995,1250.0842009729995,1250.0842009729995,1250.0842009729995,1250.0842009729995,1250.0842009729995,1,-1,rojo,0,['N_B'],1251.7700765939999,1251.7700765939999,1251.7700765939999,1251.7700765939999,1253.7884209449994,1253.7884209449994,1253.7884209449994,1253.7884209449994,1253.7884209449994,1253.7884209449994,1253.7884209449994,1253.7884209449994,1255.8069631689996,1255.8069631689996,1255.8069631689996,1255.8069631689996,,,,,,,,,,,,,,,,,,,,,,,,,,,,,,,,,,,,,,,10,010,2022-09-26_10h40.57.664,test2,2022.2.4,59.838697132751754,
0,0,0,0,164,0,164,0,1255.8069631689996,1255.8069631689996,1255.8069631689996,1255.8069631689996,1255.8069631689996,1255.8069631689996,1255.8069631689996,-1,1,rojo,1,['N_B'],1257.7267901469995,1257.7267901469995,1257.7267901469995,1257.7267901469995,1259.7450834009996,1259.7450834009996,1259.7450834009996,1259.7450834009996,1259.7450834009996,1259.7450834009996,1259.7450834009996,1259.7450834009996,1261.763534656,1261.763534656,1261.763534656,1261.763534656,,,,,,,,,,,,,,,,,,,,,,,,,,,,,,,,,,,,,,,10,010,2022-09-26_10h40.57.664,test2,2022.2.4,59.838697132751754,
0,0,0,0,165,0,165,0,1261.763534656,1261.763534656,1261.763534656,1261.763534656,1261.763534656,1261.763534656,1261.763534656,1,-1,azul,0,['N_A'],1263.4990148689994,1263.4990148689994,1263.4990148689994,1263.4990148689994,1265.518118823,1265.518118823,1265.518118823,1265.518118823,1265.518118823,1265.518118823,1265.518118823,1265.518118823,1267.5371966419998,1267.5371966419998,1267.5371966419998,1267.5371966419998,,,,,,,,,,,,,,,,,,,,,,,,,,,,,,,,,,,,,,,10,010,2022-09-26_10h40.57.664,test2,2022.2.4,59.838697132751754,
0,0,0,0,166,0,166,0,1267.5371966419998,1267.5371966419998,1267.5371966419998,1267.5371966419998,1267.5371966419998,1267.5371966419998,1267.5371966419998,1,1,rojo,1,['N_A'],1269.3729633570001,1269.3729633570001,1269.3729633570001,1269.3729633570001,1271.3916036619994,1271.3916036619994,1271.3916036619994,1271.3916036619994,1271.3916036619994,1271.3916036619994,1271.3916036619994,1271.3916036619994,1273.4101259189993,1273.4101259189993,1273.4101259189993,1273.4101259189993,,,,,,,,,,,,,,,,,,,,,,,,,,,,,,,,,,,,,,,10,010,2022-09-26_10h40.57.664,test2,2022.2.4,59.838697132751754,
0,0,0,0,167,0,167,0,1273.4101259189993,1273.4101259189993,1273.4101259189993,1273.4101259189993,1273.4101259189993,1273.4101259189993,1273.4101259189993,1,1,rojo,1,['N_A'],1275.195062578,1275.195062578,1275.195062578,1275.195062578,1277.2146275719997,1277.2146275719997,1277.2146275719997,1277.2146275719997,1277.2146275719997,1277.2146275719997,1277.2146275719997,1277.2146275719997,1279.2336165749994,1279.2336165749994,1279.2336165749994,1279.2336165749994,,,,,,,,,,,,,,,,,,,,,,,,,,,,,,,,,,,,,,,10,010,2022-09-26_10h40.57.664,test2,2022.2.4,59.838697132751754,
0,0,0,0,168,0,168,0,1279.2336165749994,1279.2336165749994,1279.2336165749994,1279.2336165749994,1279.2336165749994,1279.2336165749994,1279.2336165749994,1,-1,rojo,0,['N_B'],1281.0681152079997,1281.0681152079997,1281.0681152079997,1281.0681152079997,1283.1048843109993,1283.1048843109993,1283.1048843109993,1283.1048843109993,1283.1048843109993,1283.1048843109993,1283.1048843109993,1283.1048843109993,1285.1231481109999,1285.1231481109999,1285.1231481109999,1285.1231481109999,,,,,,,,,,,,,,,,,,,,,,,,,,,,,,,,,,,,,,,10,010,2022-09-26_10h40.57.664,test2,2022.2.4,59.838697132751754,
0,0,0,0,169,0,169,0,1285.1231481109999,1285.1231481109999,1285.1231481109999,1285.1231481109999,1285.1231481109999,1285.1231481109999,1285.1231481109999,1,-1,azul,0,['N_A'],1286.8580431729997,1286.8580431729997,1286.8580431729997,1286.8580431729997,1288.894850367,1288.894850367,1288.894850367,1288.894850367,1288.894850367,1288.894850367,1288.894850367,1288.894850367,1290.9135183159997,1290.9135183159997,1290.9135183159997,1290.9135183159997,,,,,,,,,,,,,,,,,,,,,,,,,,,,,,,,,,,,,,,10,010,2022-09-26_10h40.57.664,test2,2022.2.4,59.838697132751754,
0,0,0,0,170,0,170,0,1290.9135183159997,1290.9135183159997,1290.9135183159997,1290.9135183159997,1290.9135183159997,1290.9135183159997,1290.9135183159997,-1,-1,azul,0,['N_B'],1292.6647131599993,1292.6647131599993,1292.6647131599993,1292.6647131599993,1294.7007257819996,1294.7007257819996,1294.7007257819996,1294.7007257819996,1294.7007257819996,1294.7007257819996,1294.7007257819996,1294.7007257819996,1296.7194625989996,1296.7194625989996,1296.7194625989996,1296.7194625989996,,,,,,,,,,,,,,,,,,,,,,,,,,,,,,,,,,,,,,,10,010,2022-09-26_10h40.57.664,test2,2022.2.4,59.838697132751754,
0,0,0,0,171,0,171,0,1296.7194625989996,1296.7194625989996,1296.7194625989996,1296.7194625989996,1296.7194625989996,1296.7194625989996,1296.7194625989996,1,-1,azul,0,['N_A'],1298.85539737,1298.85539737,1298.85539737,1298.85539737,1300.8916462839998,1300.8916462839998,1300.8916462839998,1300.8916462839998,1300.8916462839998,1300.8916462839998,1300.8916462839998,1300.8916462839998,1302.90973888,1302.90973888,1302.90973888,1302.90973888,,,,,,,,,,,,,,,,,,,,,,,,,,,,,,,,,,,,,,,10,010,2022-09-26_10h40.57.664,test2,2022.2.4,59.838697132751754,
0,0,0,0,172,0,172,0,1302.90973888,1302.90973888,1302.90973888,1302.90973888,1302.90973888,1302.90973888,1302.90973888,1,-1,rojo,0,['N_B'],1304.7954869589994,1304.7954869589994,1304.7954869589994,1304.7954869589994,1306.8313703159993,1306.8313703159993,1306.8313703159993,1306.8313703159993,1306.8313703159993,1306.8313703159993,1306.8313703159993,1306.8313703159993,1308.8494982949996,1308.8494982949996,1308.8494982949996,1308.8494982949996,,,,,,,,,,,,,,,,,,,,,,,,,,,,,,,,,,,,,,,10,010,2022-09-26_10h40.57.664,test2,2022.2.4,59.838697132751754,
0,0,0,0,173,0,173,0,1308.8494982949996,1308.8494982949996,1308.8494982949996,1308.8494982949996,1308.8494982949996,1308.8494982949996,1308.8494982949996,1,-1,azul,0,['N_A'],1310.6185183299995,1310.6185183299995,1310.6185183299995,1310.6185183299995,1312.6369617499995,1312.6369617499995,1312.6369617499995,1312.6369617499995,1312.6369617499995,1312.6369617499995,1312.6369617499995,1312.6369617499995,1314.6563013149998,1314.6563013149998,1314.6563013149998,1314.6563013149998,,,,,,,,,,,,,,,,,,,,,,,,,,,,,,,,,,,,,,,10,010,2022-09-26_10h40.57.664,test2,2022.2.4,59.838697132751754,
0,0,0,0,174,0,174,0,1314.6563013149998,1314.6563013149998,1314.6563013149998,1314.6563013149998,1314.6563013149998,1314.6563013149998,1314.6563013149998,1,1,rojo,1,['N_A'],1317.591892253,1317.591892253,1317.591892253,1317.591892253,1319.6111741429995,1319.6111741429995,1319.6111741429995,1319.6111741429995,1319.6111741429995,1319.6111741429995,1319.6111741429995,1319.6111741429995,1321.6300893029993,1321.6300893029993,1321.6300893029993,1321.6300893029993,,,,,,,,,,,,,,,,,,,,,,,,,,,,,,,,,,,,,,,10,010,2022-09-26_10h40.57.664,test2,2022.2.4,59.838697132751754,
0,0,0,0,175,0,175,0,1321.6300893029993,1321.6300893029993,1321.6300893029993,1321.6300893029993,1321.6300893029993,1321.6300893029993,1321.6300893029993,-1,-1,azul,0,['N_B'],1323.5657426069993,1323.5657426069993,1323.5657426069993,1323.5657426069993,1325.6028052499996,1325.6028052499996,1325.6028052499996,1325.6028052499996,1325.6028052499996,1325.6028052499996,1325.6028052499996,1325.6028052499996,1327.619743446,1327.619743446,1327.619743446,1327.619743446,,,,,,,,,,,,,,,,,,,,,,,,,,,,,,,,,,,,,,,10,010,2022-09-26_10h40.57.664,test2,2022.2.4,59.838697132751754,
0,0,0,0,176,0,176,0,1327.619743446,1327.619743446,1327.619743446,1327.619743446,1327.619743446,1327.619743446,1327.619743446,1,-1,azul,0,['N_A'],1329.3723816229995,1329.3723816229995,1329.3723816229995,1329.3723816229995,1331.3905902319993,1331.3905902319993,1331.3905902319993,1331.3905902319993,1331.3905902319993,1331.3905902319993,1331.3905902319993,1331.3905902319993,1333.409204994,1333.409204994,1333.409204994,1333.409204994,,,,,,,,,,,,,,,,,,,,,,,,,,,,,,,,,,,,,,,10,010,2022-09-26_10h40.57.664,test2,2022.2.4,59.838697132751754,
0,0,0,0,177,0,177,0,1333.409204994,1333.409204994,1333.409204994,1333.409204994,1333.409204994,1333.409204994,1333.409204994,1,1,rojo,1,['N_A'],1335.4450529239994,1335.4450529239994,1335.4450529239994,1335.4450529239994,1337.465513088,1337.465513088,1337.465513088,1337.465513088,1337.465513088,1337.465513088,1337.465513088,1337.465513088,1339.4839694379998,1339.4839694379998,1339.4839694379998,1339.4839694379998,,,,,,,,,,,,,,,,,,,,,,,,,,,,,,,,,,,,,,,10,010,2022-09-26_10h40.57.664,test2,2022.2.4,59.838697132751754,
