trials_2.thisRepN,trials_2.thisTrialN,trials_2.thisN,trials_2.thisIndex,trials.thisRepN,trials.thisTrialN,trials.thisN,trials.thisIndex,Instrucción2.started,N_A_4.started,N_B_4.started,Exitos_3.started,Dias_3.started,Stimuli_1.started,Stimuli_2.started,Transitions,Rewards,Mode,Stay,Neighbour,Stimuli_3.started,Modo.started,Dias2.started,Exitos2.started,Stimuli_3.stopped,Modo.stopped,Dias2.stopped,Exitos2.stopped,Reward.started,Stimuli_reward.started,Exitos3.started,Dias3.started,Reward.stopped,Stimuli_reward.stopped,Exitos3.stopped,Dias3.stopped,Cue_text.started,Stimuli_4.started,Exitos4.started,Dias4.started,Stimuli_3_3.started,Stimuli_2_3.started,Instrucción.started,N_A.started,N_B.started,N_C.started,Exitos_2.started,Dias_2.started,Stimuli_1_3.started,Stimuli_3_2.started,Stimuli_2_2.started,Pregunta.started,N_A_2.started,N_B_2.started,N_C_2.started,Exitos5.started,Dias5.started,Stimuli_1_2.started,Resp_final_1,Modo2.started,Modo1.started,Pregunta_4.started,Modo3.started,Exitos7.started,Dias6.started,Resp_final_2,Modo1_2.started,Pregunta_3.started,Modo2_2.started,Exitos8.started,Dias7.started,Resp_final_3,Mensaje_Final2.started,Exitos6.started,participant,session,date,expName,psychopyVersion,frameRate,
0,0,0,0,0,0,0,0,18.20052004399986,18.20052004399986,18.20052004399986,18.20052004399986,18.20052004399986,18.20052004399986,18.20052004399986,0,0,0,0,['N_B'],25.29121664700142,25.29121664700142,25.29121664700142,25.29121664700142,27.310178937999808,27.310178937999808,27.310178937999808,27.310178937999808,27.310178937999808,27.310178937999808,27.310178937999808,27.310178937999808,29.34523717800039,29.34523717800039,29.34523717800039,29.34523717800039,,,,,,,,,,,,,,,,,,,,,,,,,,,,,,,,,,,,,,,10,007,2022-09-23_14h40.48.284,test2,2022.2.4,59.70252726238111,
0,0,0,0,1,0,1,0,29.34523717800039,29.34523717800039,29.34523717800039,29.34523717800039,29.34523717800039,29.34523717800039,29.34523717800039,1,1,azul,0,['N_A'],34.88450820500111,34.88450820500111,34.88450820500111,34.88450820500111,36.92028627400032,36.92028627400032,36.92028627400032,36.92028627400032,36.92028627400032,36.92028627400032,36.92028627400032,36.92028627400032,38.95619184700081,38.95619184700081,38.95619184700081,38.95619184700081,,,,,,,,,,,,,,,,,,,,,,,,,,,,,,,,,,,,,,,10,007,2022-09-23_14h40.48.284,test2,2022.2.4,59.70252726238111,
0,0,0,0,2,0,2,0,38.95619184700081,38.95619184700081,38.95619184700081,38.95619184700081,38.95619184700081,38.95619184700081,38.95619184700081,1,-1,rojo,1,['N_A'],44.59471338900039,44.59471338900039,44.59471338900039,44.59471338900039,46.6141453780001,46.6141453780001,46.6141453780001,46.6141453780001,46.6141453780001,46.6141453780001,46.6141453780001,46.6141453780001,48.650256891000026,48.650256891000026,48.650256891000026,48.650256891000026,,,,,,,,,,,,,,,,,,,,,,,,,,,,,,,,,,,,,,,10,007,2022-09-23_14h40.48.284,test2,2022.2.4,59.70252726238111,
0,0,0,0,3,0,3,0,48.650256891000026,48.650256891000026,48.650256891000026,48.650256891000026,48.650256891000026,48.650256891000026,48.650256891000026,1,1,rojo,1,['N_A'],52.53735978400073,52.53735978400073,52.53735978400073,52.53735978400073,54.55601922000096,54.55601922000096,54.55601922000096,54.55601922000096,54.55601922000096,54.55601922000096,54.55601922000096,54.55601922000096,56.5924532450008,56.5924532450008,56.5924532450008,56.5924532450008,,,,,,,,,,,,,,,,,,,,,,,,,,,,,,,,,,,,,,,10,007,2022-09-23_14h40.48.284,test2,2022.2.4,59.70252726238111,
0,0,0,0,4,0,4,0,56.5924532450008,56.5924532450008,56.5924532450008,56.5924532450008,56.5924532450008,56.5924532450008,56.5924532450008,1,-1,rojo,0,['N_B'],59.3440750080008,59.3440750080008,59.3440750080008,59.3440750080008,61.36285780700018,61.36285780700018,61.36285780700018,61.36285780700018,61.36285780700018,61.36285780700018,61.36285780700018,61.36285780700018,63.38187840300088,63.38187840300088,63.38187840300088,63.38187840300088,,,,,,,,,,,,,,,,,,,,,,,,,,,,,,,,,,,,,,,10,007,2022-09-23_14h40.48.284,test2,2022.2.4,59.70252726238111,
0,0,0,0,5,0,5,0,63.38187840300088,63.38187840300088,63.38187840300088,63.38187840300088,63.38187840300088,63.38187840300088,63.38187840300088,1,1,azul,1,['N_B'],65.15066067100088,65.15066067100088,65.15066067100088,65.15066067100088,67.170561025001,67.170561025001,67.170561025001,67.170561025001,67.170561025001,67.170561025001,67.170561025001,67.170561025001,69.2058621970009,69.2058621970009,69.2058621970009,69.2058621970009,,,,,,,,,,,,,,,,,,,,,,,,,,,,,,,,,,,,,,,10,007,2022-09-23_14h40.48.284,test2,2022.2.4,59.70252726238111,
0,0,0,0,6,0,6,0,69.2058621970009,69.2058621970009,69.2058621970009,69.2058621970009,69.2058621970009,69.2058621970009,69.2058621970009,-1,-1,rojo,0,['N_A'],71.34118513200156,71.34118513200156,71.34118513200156,71.34118513200156,73.37720258599984,73.37720258599984,73.37720258599984,73.37720258599984,73.37720258599984,73.37720258599984,73.37720258599984,73.37720258599984,75.41310836200137,75.41310836200137,75.41310836200137,75.41310836200137,,,,,,,,,,,,,,,,,,,,,,,,,,,,,,,,,,,,,,,10,007,2022-09-23_14h40.48.284,test2,2022.2.4,59.70252726238111,
0,0,0,0,7,0,7,0,75.41310836200137,75.41310836200137,75.41310836200137,75.41310836200137,75.41310836200137,75.41310836200137,75.41310836200137,1,-1,rojo,0,['N_B'],78.13188151900067,78.13188151900067,78.13188151900067,78.13188151900067,80.15004329000112,80.15004329000112,80.15004329000112,80.15004329000112,80.15004329000112,80.15004329000112,80.15004329000112,80.15004329000112,82.18673064799987,82.18673064799987,82.18673064799987,82.18673064799987,,,,,,,,,,,,,,,,,,,,,,,,,,,,,,,,,,,,,,,10,007,2022-09-23_14h40.48.284,test2,2022.2.4,59.70252726238111,
0,0,0,0,8,0,8,0,82.18673064799987,82.18673064799987,82.18673064799987,82.18673064799987,82.18673064799987,82.18673064799987,82.18673064799987,1,1,azul,1,['N_B'],84.1710795880008,84.1710795880008,84.1710795880008,84.1710795880008,86.19152971299991,86.19152971299991,86.19152971299991,86.19152971299991,86.19152971299991,86.19152971299991,86.19152971299991,86.19152971299991,88.20914849300061,88.20914849300061,88.20914849300061,88.20914849300061,,,,,,,,,,,,,,,,,,,,,,,,,,,,,,,,,,,,,,,10,007,2022-09-23_14h40.48.284,test2,2022.2.4,59.70252726238111,
0,0,0,0,9,0,9,0,88.20914849300061,88.20914849300061,88.20914849300061,88.20914849300061,88.20914849300061,88.20914849300061,88.20914849300061,-1,1,rojo,1,['N_B'],89.69446035700093,89.69446035700093,89.69446035700093,89.69446035700093,91.71296050300043,91.71296050300043,91.71296050300043,91.71296050300043,91.71296050300043,91.71296050300043,91.71296050300043,91.71296050300043,93.73170685600053,93.73170685600053,93.73170685600053,93.73170685600053,,,,,,,,,,,,,,,,,,,,,,,,,,,,,,,,,,,,,,,10,007,2022-09-23_14h40.48.284,test2,2022.2.4,59.70252726238111,
0,0,0,0,10,0,10,0,93.73170685600053,93.73170685600053,93.73170685600053,93.73170685600053,93.73170685600053,93.73170685600053,93.73170685600053,-1,-1,rojo,1,['N_B'],96.55181889699998,96.55181889699998,96.55181889699998,96.55181889699998,98.57170706299985,98.57170706299985,98.57170706299985,98.57170706299985,98.57170706299985,98.57170706299985,98.57170706299985,98.57170706299985,100.58964432200082,100.58964432200082,100.58964432200082,100.58964432200082,,,,,,,,,,,,,,,,,,,,,,,,,,,,,,,,,,,,,,,10,007,2022-09-23_14h40.48.284,test2,2022.2.4,59.70252726238111,
0,0,0,0,11,0,11,0,100.58964432200082,100.58964432200082,100.58964432200082,100.58964432200082,100.58964432200082,100.58964432200082,100.58964432200082,1,1,azul,1,['N_B'],102.1420896489999,102.1420896489999,102.1420896489999,102.1420896489999,104.16119810300006,104.16119810300006,104.16119810300006,104.16119810300006,104.16119810300006,104.16119810300006,104.16119810300006,104.16119810300006,106.1804399419998,106.1804399419998,106.1804399419998,106.1804399419998,,,,,,,,,,,,,,,,,,,,,,,,,,,,,,,,,,,,,,,10,007,2022-09-23_14h40.48.284,test2,2022.2.4,59.70252726238111,
0,0,0,0,12,0,12,0,106.1804399419998,106.1804399419998,106.1804399419998,106.1804399419998,106.1804399419998,106.1804399419998,106.1804399419998,1,1,azul,1,['N_B'],107.93194019800103,107.93194019800103,107.93194019800103,107.93194019800103,109.95102193500134,109.95102193500134,109.95102193500134,109.95102193500134,109.95102193500134,109.95102193500134,109.95102193500134,109.95102193500134,111.96850227700088,111.96850227700088,111.96850227700088,111.96850227700088,,,,,,,,,,,,,,,,,,,,,,,,,,,,,,,,,,,,,,,10,007,2022-09-23_14h40.48.284,test2,2022.2.4,59.70252726238111,
0,0,0,0,13,0,13,0,111.96850227700088,111.96850227700088,111.96850227700088,111.96850227700088,111.96850227700088,111.96850227700088,111.96850227700088,-1,1,rojo,1,['N_B'],113.82122212500144,113.82122212500144,113.82122212500144,113.82122212500144,115.83958856299978,115.83958856299978,115.83958856299978,115.83958856299978,115.83958856299978,115.83958856299978,115.83958856299978,115.83958856299978,117.85960104300102,117.85960104300102,117.85960104300102,117.85960104300102,,,,,,,,,,,,,,,,,,,,,,,,,,,,,,,,,,,,,,,10,007,2022-09-23_14h40.48.284,test2,2022.2.4,59.70252726238111,
0,0,0,0,14,0,14,0,117.85960104300102,117.85960104300102,117.85960104300102,117.85960104300102,117.85960104300102,117.85960104300102,117.85960104300102,1,-1,azul,1,['N_B'],119.5610754570007,119.5610754570007,119.5610754570007,119.5610754570007,121.57984275200033,121.57984275200033,121.57984275200033,121.57984275200033,121.57984275200033,121.57984275200033,121.57984275200033,121.57984275200033,123.59924328700072,123.59924328700072,123.59924328700072,123.59924328700072,,,,,,,,,,,,,,,,,,,,,,,,,,,,,,,,,,,,,,,10,007,2022-09-23_14h40.48.284,test2,2022.2.4,59.70252726238111,
0,0,0,0,15,0,15,0,123.59924328700072,123.59924328700072,123.59924328700072,123.59924328700072,123.59924328700072,123.59924328700072,123.59924328700072,1,1,azul,1,['N_B'],125.23411340700113,125.23411340700113,125.23411340700113,125.23411340700113,127.25294424999993,127.25294424999993,127.25294424999993,127.25294424999993,127.25294424999993,127.25294424999993,127.25294424999993,127.25294424999993,129.27161570000135,129.27161570000135,129.27161570000135,129.27161570000135,,,,,,,,,,,,,,,,,,,,,,,,,,,,,,,,,,,,,,,10,007,2022-09-23_14h40.48.284,test2,2022.2.4,59.70252726238111,
0,0,0,0,16,0,16,0,129.27161570000135,129.27161570000135,129.27161570000135,129.27161570000135,129.27161570000135,129.27161570000135,129.27161570000135,1,1,azul,1,['N_B'],130.85705655899983,130.85705655899983,130.85705655899983,130.85705655899983,132.87602725600118,132.87602725600118,132.87602725600118,132.87602725600118,132.87602725600118,132.87602725600118,132.87602725600118,132.87602725600118,134.89426861100037,134.89426861100037,134.89426861100037,134.89426861100037,,,,,,,,,,,,,,,,,,,,,,,,,,,,,,,,,,,,,,,10,007,2022-09-23_14h40.48.284,test2,2022.2.4,59.70252726238111,
0,0,0,0,17,0,17,0,134.89426861100037,134.89426861100037,134.89426861100037,134.89426861100037,134.89426861100037,134.89426861100037,134.89426861100037,-1,-1,rojo,1,['N_B'],137.01357410400124,137.01357410400124,137.01357410400124,137.01357410400124,139.03184141400016,139.03184141400016,139.03184141400016,139.03184141400016,139.03184141400016,139.03184141400016,139.03184141400016,139.03184141400016,141.05172642400066,141.05172642400066,141.05172642400066,141.05172642400066,,,,,,,,,,,,,,,,,,,,,,,,,,,,,,,,,,,,,,,10,007,2022-09-23_14h40.48.284,test2,2022.2.4,59.70252726238111,
0,0,0,0,18,0,18,0,141.05172642400066,141.05172642400066,141.05172642400066,141.05172642400066,141.05172642400066,141.05172642400066,141.05172642400066,1,1,azul,0,['N_A'],142.53659246400093,142.53659246400093,142.53659246400093,142.53659246400093,144.5558812950003,144.5558812950003,144.5558812950003,144.5558812950003,144.5558812950003,144.5558812950003,144.5558812950003,144.5558812950003,146.57351420000123,146.57351420000123,146.57351420000123,146.57351420000123,,,,,,,,,,,,,,,,,,,,,,,,,,,,,,,,,,,,,,,10,007,2022-09-23_14h40.48.284,test2,2022.2.4,59.70252726238111,
0,0,0,0,19,0,19,0,146.57351420000123,146.57351420000123,146.57351420000123,146.57351420000123,146.57351420000123,146.57351420000123,146.57351420000123,1,1,rojo,1,['N_A'],148.07503982300113,148.07503982300113,148.07503982300113,148.07503982300113,150.0949010760014,150.0949010760014,150.0949010760014,150.0949010760014,150.0949010760014,150.0949010760014,150.0949010760014,150.0949010760014,152.1139765070002,152.1139765070002,152.1139765070002,152.1139765070002,,,,,,,,,,,,,,,,,,,,,,,,,,,,,,,,,,,,,,,10,007,2022-09-23_14h40.48.284,test2,2022.2.4,59.70252726238111,
0,0,0,0,20,0,20,0,152.1139765070002,152.1139765070002,152.1139765070002,152.1139765070002,152.1139765070002,152.1139765070002,152.1139765070002,-1,-1,azul,0,['N_B'],153.53153729800033,153.53153729800033,153.53153729800033,153.53153729800033,155.56772889600143,155.56772889600143,155.56772889600143,155.56772889600143,155.56772889600143,155.56772889600143,155.56772889600143,155.56772889600143,157.5862646300011,157.5862646300011,157.5862646300011,157.5862646300011,,,,,,,,,,,,,,,,,,,,,,,,,,,,,,,,,,,,,,,10,007,2022-09-23_14h40.48.284,test2,2022.2.4,59.70252726238111,
0,0,0,0,21,0,21,0,157.5862646300011,157.5862646300011,157.5862646300011,157.5862646300011,157.5862646300011,157.5862646300011,157.5862646300011,1,-1,azul,1,['N_B'],159.1874141190001,159.1874141190001,159.1874141190001,159.1874141190001,161.20699321600114,161.20699321600114,161.20699321600114,161.20699321600114,161.20699321600114,161.20699321600114,161.20699321600114,161.20699321600114,163.22519903900138,163.22519903900138,163.22519903900138,163.22519903900138,,,,,,,,,,,,,,,,,,,,,,,,,,,,,,,,,,,,,,,10,007,2022-09-23_14h40.48.284,test2,2022.2.4,59.70252726238111,
0,0,0,0,22,0,22,0,163.22519903900138,163.22519903900138,163.22519903900138,163.22519903900138,163.22519903900138,163.22519903900138,163.22519903900138,1,1,azul,1,['N_B'],165.66147116499997,165.66147116499997,165.66147116499997,165.66147116499997,167.68100052800037,167.68100052800037,167.68100052800037,167.68100052800037,167.68100052800037,167.68100052800037,167.68100052800037,167.68100052800037,169.69932150500063,169.69932150500063,169.69932150500063,169.69932150500063,,,,,,,,,,,,,,,,,,,,,,,,,,,,,,,,,,,,,,,10,007,2022-09-23_14h40.48.284,test2,2022.2.4,59.70252726238111,
0,0,0,0,23,0,23,0,169.69932150500063,169.69932150500063,169.69932150500063,169.69932150500063,169.69932150500063,169.69932150500063,169.69932150500063,1,1,azul,1,['N_B'],172.01819670500117,172.01819670500117,172.01819670500117,172.01819670500117,174.03703093200056,174.03703093200056,174.03703093200056,174.03703093200056,174.03703093200056,174.03703093200056,174.03703093200056,174.03703093200056,176.05729589500152,176.05729589500152,176.05729589500152,176.05729589500152,,,,,,,,,,,,,,,,,,,,,,,,,,,,,,,,,,,,,,,10,007,2022-09-23_14h40.48.284,test2,2022.2.4,59.70252726238111,
0,0,0,0,24,0,24,0,176.05729589500152,176.05729589500152,176.05729589500152,176.05729589500152,176.05729589500152,176.05729589500152,176.05729589500152,-1,-1,rojo,0,['N_A'],178.25935365199985,178.25935365199985,178.25935365199985,178.25935365199985,180.29496145099984,180.29496145099984,180.29496145099984,180.29496145099984,180.29496145099984,180.29496145099984,180.29496145099984,180.29496145099984,182.3138480760008,182.3138480760008,182.3138480760008,182.3138480760008,,,,,,,,,,,,,,,,,,,,,,,,,,,,,,,,,,,,,,,10,007,2022-09-23_14h40.48.284,test2,2022.2.4,59.70252726238111,
0,0,0,0,25,0,25,0,182.3138480760008,182.3138480760008,182.3138480760008,182.3138480760008,182.3138480760008,182.3138480760008,182.3138480760008,1,-1,rojo,1,['N_A'],183.84910945900083,183.84910945900083,183.84910945900083,183.84910945900083,185.88497805800034,185.88497805800034,185.88497805800034,185.88497805800034,185.88497805800034,185.88497805800034,185.88497805800034,185.88497805800034,187.9036766980007,187.9036766980007,187.9036766980007,187.9036766980007,,,,,,,,,,,,,,,,,,,,,,,,,,,,,,,,,,,,,,,10,007,2022-09-23_14h40.48.284,test2,2022.2.4,59.70252726238111,
0,0,0,0,26,0,26,0,187.9036766980007,187.9036766980007,187.9036766980007,187.9036766980007,187.9036766980007,187.9036766980007,187.9036766980007,-1,-1,azul,1,['N_A'],189.28746041200066,189.28746041200066,189.28746041200066,189.28746041200066,191.3240667000009,191.3240667000009,191.3240667000009,191.3240667000009,191.3240667000009,191.3240667000009,191.3240667000009,191.3240667000009,193.34240683500138,193.34240683500138,193.34240683500138,193.34240683500138,,,,,,,,,,,,,,,,,,,,,,,,,,,,,,,,,,,,,,,10,007,2022-09-23_14h40.48.284,test2,2022.2.4,59.70252726238111,
0,0,0,0,27,0,27,0,193.34240683500138,193.34240683500138,193.34240683500138,193.34240683500138,193.34240683500138,193.34240683500138,193.34240683500138,-1,-1,azul,0,['N_B'],194.71090703200025,194.71090703200025,194.71090703200025,194.71090703200025,196.7289185970003,196.7289185970003,196.7289185970003,196.7289185970003,196.7289185970003,196.7289185970003,196.7289185970003,196.7289185970003,198.74760877000153,198.74760877000153,198.74760877000153,198.74760877000153,,,,,,,,,,,,,,,,,,,,,,,,,,,,,,,,,,,,,,,10,007,2022-09-23_14h40.48.284,test2,2022.2.4,59.70252726238111,
0,0,0,0,28,0,28,0,198.74760877000153,198.74760877000153,198.74760877000153,198.74760877000153,198.74760877000153,198.74760877000153,198.74760877000153,1,1,azul,1,['N_B'],200.56626967100055,200.56626967100055,200.56626967100055,200.56626967100055,202.58673792300033,202.58673792300033,202.58673792300033,202.58673792300033,202.58673792300033,202.58673792300033,202.58673792300033,202.58673792300033,204.60416014200018,204.60416014200018,204.60416014200018,204.60416014200018,,,,,,,,,,,,,,,,,,,,,,,,,,,,,,,,,,,,,,,10,007,2022-09-23_14h40.48.284,test2,2022.2.4,59.70252726238111,
0,0,0,0,29,0,29,0,204.60416014200018,204.60416014200018,204.60416014200018,204.60416014200018,204.60416014200018,204.60416014200018,204.60416014200018,1,1,azul,1,['N_B'],206.87416610500077,206.87416610500077,206.87416610500077,206.87416610500077,208.89292130300055,208.89292130300055,208.89292130300055,208.89292130300055,208.89292130300055,208.89292130300055,208.89292130300055,208.89292130300055,210.91108325200003,210.91108325200003,210.91108325200003,210.91108325200003,,,,,,,,,,,,,,,,,,,,,,,,,,,,,,,,,,,,,,,10,007,2022-09-23_14h40.48.284,test2,2022.2.4,59.70252726238111,
0,0,0,0,30,0,30,0,210.91108325200003,210.91108325200003,210.91108325200003,210.91108325200003,210.91108325200003,210.91108325200003,210.91108325200003,-1,1,rojo,1,['N_B'],214.13164830999995,214.13164830999995,214.13164830999995,214.13164830999995,216.151367425,216.151367425,216.151367425,216.151367425,216.151367425,216.151367425,216.151367425,216.151367425,218.16903668600025,218.16903668600025,218.16903668600025,218.16903668600025,,,,,,,,,,,,,,,,,,,,,,,,,,,,,,,,,,,,,,,10,007,2022-09-23_14h40.48.284,test2,2022.2.4,59.70252726238111,
0,0,0,0,31,0,31,0,218.16903668600025,218.16903668600025,218.16903668600025,218.16903668600025,218.16903668600025,218.16903668600025,218.16903668600025,1,1,azul,1,['N_B'],220.00442603400006,220.00442603400006,220.00442603400006,220.00442603400006,222.02427346700097,222.02427346700097,222.02427346700097,222.02427346700097,222.02427346700097,222.02427346700097,222.02427346700097,222.02427346700097,224.0428125440012,224.0428125440012,224.0428125440012,224.0428125440012,,,,,,,,,,,,,,,,,,,,,,,,,,,,,,,,,,,,,,,10,007,2022-09-23_14h40.48.284,test2,2022.2.4,59.70252726238111,
0,0,0,0,32,0,32,0,224.0428125440012,224.0428125440012,224.0428125440012,224.0428125440012,224.0428125440012,224.0428125440012,224.0428125440012,1,1,azul,0,['N_A'],226.1784875400008,226.1784875400008,226.1784875400008,226.1784875400008,228.19758781600103,228.19758781600103,228.19758781600103,228.19758781600103,228.19758781600103,228.19758781600103,228.19758781600103,228.19758781600103,230.21585323399995,230.21585323399995,230.21585323399995,230.21585323399995,,,,,,,,,,,,,,,,,,,,,,,,,,,,,,,,,,,,,,,10,007,2022-09-23_14h40.48.284,test2,2022.2.4,59.70252726238111,
0,0,0,0,33,0,33,0,230.21585323399995,230.21585323399995,230.21585323399995,230.21585323399995,230.21585323399995,230.21585323399995,230.21585323399995,1,-1,rojo,0,['N_B'],231.68434712199996,231.68434712199996,231.68434712199996,231.68434712199996,233.72134446400014,233.72134446400014,233.72134446400014,233.72134446400014,233.72134446400014,233.72134446400014,233.72134446400014,233.72134446400014,235.73951431800015,235.73951431800015,235.73951431800015,235.73951431800015,,,,,,,,,,,,,,,,,,,,,,,,,,,,,,,,,,,,,,,10,007,2022-09-23_14h40.48.284,test2,2022.2.4,59.70252726238111,
0,0,0,0,34,0,34,0,235.73951431800015,235.73951431800015,235.73951431800015,235.73951431800015,235.73951431800015,235.73951431800015,235.73951431800015,1,-1,azul,1,['N_B'],237.30788392900104,237.30788392900104,237.30788392900104,237.30788392900104,239.3436901870009,239.3436901870009,239.3436901870009,239.3436901870009,239.3436901870009,239.3436901870009,239.3436901870009,239.3436901870009,241.36224176399992,241.36224176399992,241.36224176399992,241.36224176399992,,,,,,,,,,,,,,,,,,,,,,,,,,,,,,,,,,,,,,,10,007,2022-09-23_14h40.48.284,test2,2022.2.4,59.70252726238111,
0,0,0,0,35,0,35,0,241.36224176399992,241.36224176399992,241.36224176399992,241.36224176399992,241.36224176399992,241.36224176399992,241.36224176399992,1,-1,azul,0,['N_A'],242.94676243700087,242.94676243700087,242.94676243700087,242.94676243700087,244.98336276900045,244.98336276900045,244.98336276900045,244.98336276900045,244.98336276900045,244.98336276900045,244.98336276900045,244.98336276900045,247.00167970199982,247.00167970199982,247.00167970199982,247.00167970199982,,,,,,,,,,,,,,,,,,,,,,,,,,,,,,,,,,,,,,,10,007,2022-09-23_14h40.48.284,test2,2022.2.4,59.70252726238111,
0,0,0,0,36,0,36,0,247.00167970199982,247.00167970199982,247.00167970199982,247.00167970199982,247.00167970199982,247.00167970199982,247.00167970199982,1,-1,rojo,1,['N_A'],248.40325148600095,248.40325148600095,248.40325148600095,248.40325148600095,250.42169757400006,250.42169757400006,250.42169757400006,250.42169757400006,250.42169757400006,250.42169757400006,250.42169757400006,250.42169757400006,252.44139250199987,252.44139250199987,252.44139250199987,252.44139250199987,,,,,,,,,,,,,,,,,,,,,,,,,,,,,,,,,,,,,,,10,007,2022-09-23_14h40.48.284,test2,2022.2.4,59.70252726238111,
0,0,0,0,37,0,37,0,252.44139250199987,252.44139250199987,252.44139250199987,252.44139250199987,252.44139250199987,252.44139250199987,252.44139250199987,1,1,rojo,1,['N_A'],253.82549561199994,253.82549561199994,253.82549561199994,253.82549561199994,255.84507711100014,255.84507711100014,255.84507711100014,255.84507711100014,255.84507711100014,255.84507711100014,255.84507711100014,255.84507711100014,257.8645059090013,257.8645059090013,257.8645059090013,257.8645059090013,,,,,,,,,,,,,,,,,,,,,,,,,,,,,,,,,,,,,,,10,007,2022-09-23_14h40.48.284,test2,2022.2.4,59.70252726238111,
0,0,0,0,38,0,38,0,257.8645059090013,257.8645059090013,257.8645059090013,257.8645059090013,257.8645059090013,257.8645059090013,257.8645059090013,1,1,rojo,1,['N_A'],259.465356404,259.465356404,259.465356404,259.465356404,261.48459611900034,261.48459611900034,261.48459611900034,261.48459611900034,261.48459611900034,261.48459611900034,261.48459611900034,261.48459611900034,263.50271412300026,263.50271412300026,263.50271412300026,263.50271412300026,,,,,,,,,,,,,,,,,,,,,,,,,,,,,,,,,,,,,,,10,007,2022-09-23_14h40.48.284,test2,2022.2.4,59.70252726238111,
0,0,0,0,39,0,39,0,263.50271412300026,263.50271412300026,263.50271412300026,263.50271412300026,263.50271412300026,263.50271412300026,263.50271412300026,-1,1,azul,1,['N_A'],265.5381786880007,265.5381786880007,265.5381786880007,265.5381786880007,267.55799536700033,267.55799536700033,267.55799536700033,267.55799536700033,267.55799536700033,267.55799536700033,267.55799536700033,267.55799536700033,269.57586837500094,269.57586837500094,269.57586837500094,269.57586837500094,,,,,,,,,,,,,,,,,,,,,,,,,,,,,,,,,,,,,,,10,007,2022-09-23_14h40.48.284,test2,2022.2.4,59.70252726238111,
0,0,0,0,40,0,40,0,269.57586837500094,269.57586837500094,269.57586837500094,269.57586837500094,269.57586837500094,269.57586837500094,269.57586837500094,-1,1,azul,1,['N_A'],271.1275283640007,271.1275283640007,271.1275283640007,271.1275283640007,273.1470963720003,273.1470963720003,273.1470963720003,273.1470963720003,273.1470963720003,273.1470963720003,273.1470963720003,273.1470963720003,275.16539217100035,275.16539217100035,275.16539217100035,275.16539217100035,,,,,,,,,,,,,,,,,,,,,,,,,,,,,,,,,,,,,,,10,007,2022-09-23_14h40.48.284,test2,2022.2.4,59.70252726238111,
0,0,0,0,41,0,41,0,275.16539217100035,275.16539217100035,275.16539217100035,275.16539217100035,275.16539217100035,275.16539217100035,275.16539217100035,1,1,rojo,1,['N_A'],276.767404051001,276.767404051001,276.767404051001,276.767404051001,278.7869493470007,278.7869493470007,278.7869493470007,278.7869493470007,278.7869493470007,278.7869493470007,278.7869493470007,278.7869493470007,280.8060513290002,280.8060513290002,280.8060513290002,280.8060513290002,,,,,,,,,,,,,,,,,,,,,,,,,,,,,,,,,,,,,,,10,007,2022-09-23_14h40.48.284,test2,2022.2.4,59.70252726238111,
0,0,0,0,42,0,42,0,280.8060513290002,280.8060513290002,280.8060513290002,280.8060513290002,280.8060513290002,280.8060513290002,280.8060513290002,1,-1,rojo,1,['N_A'],282.1741931610013,282.1741931610013,282.1741931610013,282.1741931610013,284.1919215050002,284.1919215050002,284.1919215050002,284.1919215050002,284.1919215050002,284.1919215050002,284.1919215050002,284.1919215050002,286.2114577100001,286.2114577100001,286.2114577100001,286.2114577100001,,,,,,,,,,,,,,,,,,,,,,,,,,,,,,,,,,,,,,,10,007,2022-09-23_14h40.48.284,test2,2022.2.4,59.70252726238111,
0,0,0,0,43,0,43,0,286.2114577100001,286.2114577100001,286.2114577100001,286.2114577100001,286.2114577100001,286.2114577100001,286.2114577100001,-1,1,azul,0,['N_B'],287.7459359149998,287.7459359149998,287.7459359149998,287.7459359149998,289.7663110170015,289.7663110170015,289.7663110170015,289.7663110170015,289.7663110170015,289.7663110170015,289.7663110170015,289.7663110170015,291.78364042200155,291.78364042200155,291.78364042200155,291.78364042200155,,,,,,,,,,,,,,,,,,,,,,,,,,,,,,,,,,,,,,,10,007,2022-09-23_14h40.48.284,test2,2022.2.4,59.70252726238111,
0,0,0,0,44,0,44,0,291.78364042200155,291.78364042200155,291.78364042200155,291.78364042200155,291.78364042200155,291.78364042200155,291.78364042200155,-1,-1,rojo,1,['N_B'],293.15219169600095,293.15219169600095,293.15219169600095,293.15219169600095,295.1888093890011,295.1888093890011,295.1888093890011,295.1888093890011,295.1888093890011,295.1888093890011,295.1888093890011,295.1888093890011,297.2064781750014,297.2064781750014,297.2064781750014,297.2064781750014,,,,,,,,,,,,,,,,,,,,,,,,,,,,,,,,,,,,,,,10,007,2022-09-23_14h40.48.284,test2,2022.2.4,59.70252726238111,
0,0,0,0,45,0,45,0,297.2064781750014,297.2064781750014,297.2064781750014,297.2064781750014,297.2064781750014,297.2064781750014,297.2064781750014,1,-1,azul,1,['N_B'],298.7925167400008,298.7925167400008,298.7925167400008,298.7925167400008,300.82910936400003,300.82910936400003,300.82910936400003,300.82910936400003,300.82910936400003,300.82910936400003,300.82910936400003,300.82910936400003,302.8461034460015,302.8461034460015,302.8461034460015,302.8461034460015,,,,,,,,,,,,,,,,,,,,,,,,,,,,,,,,,,,,,,,10,007,2022-09-23_14h40.48.284,test2,2022.2.4,59.70252726238111,
0,0,0,0,46,0,46,0,302.8461034460015,302.8461034460015,302.8461034460015,302.8461034460015,302.8461034460015,302.8461034460015,302.8461034460015,-1,-1,rojo,1,['N_B'],304.2817193660012,304.2817193660012,304.2817193660012,304.2817193660012,306.3172262120006,306.3172262120006,306.3172262120006,306.3172262120006,306.3172262120006,306.3172262120006,306.3172262120006,306.3172262120006,308.3362090999999,308.3362090999999,308.3362090999999,308.3362090999999,,,,,,,,,,,,,,,,,,,,,,,,,,,,,,,,,,,,,,,10,007,2022-09-23_14h40.48.284,test2,2022.2.4,59.70252726238111,
0,0,0,0,47,0,47,0,308.3362090999999,308.3362090999999,308.3362090999999,308.3362090999999,308.3362090999999,308.3362090999999,308.3362090999999,1,-1,azul,0,['N_A'],309.8377347730002,309.8377347730002,309.8377347730002,309.8377347730002,311.85573429500073,311.85573429500073,311.85573429500073,311.85573429500073,311.85573429500073,311.85573429500073,311.85573429500073,311.85573429500073,313.87534402799974,313.87534402799974,313.87534402799974,313.87534402799974,,,,,,,,,,,,,,,,,,,,,,,,,,,,,,,,,,,,,,,10,007,2022-09-23_14h40.48.284,test2,2022.2.4,59.70252726238111,
0,0,0,0,48,0,48,0,313.87534402799974,313.87534402799974,313.87534402799974,313.87534402799974,313.87534402799974,313.87534402799974,313.87534402799974,1,1,rojo,1,['N_A'],315.2262241670014,315.2262241670014,315.2262241670014,315.2262241670014,317.24598741500085,317.24598741500085,317.24598741500085,317.24598741500085,317.24598741500085,317.24598741500085,317.24598741500085,317.24598741500085,319.26484843600156,319.26484843600156,319.26484843600156,319.26484843600156,,,,,,,,,,,,,,,,,,,,,,,,,,,,,,,,,,,,,,,10,007,2022-09-23_14h40.48.284,test2,2022.2.4,59.70252726238111,
0,0,0,0,49,0,49,0,319.26484843600156,319.26484843600156,319.26484843600156,319.26484843600156,319.26484843600156,319.26484843600156,319.26484843600156,1,1,rojo,1,['N_A'],320.91613682000025,320.91613682000025,320.91613682000025,320.91613682000025,322.93612342600136,322.93612342600136,322.93612342600136,322.93612342600136,322.93612342600136,322.93612342600136,322.93612342600136,322.93612342600136,324.9545827870006,324.9545827870006,324.9545827870006,324.9545827870006,,,,,,,,,,,,,,,,,,,,,,,,,,,,,,,,,,,,,,,10,007,2022-09-23_14h40.48.284,test2,2022.2.4,59.70252726238111,
0,0,0,0,50,0,50,0,324.9545827870006,324.9545827870006,324.9545827870006,324.9545827870006,324.9545827870006,324.9545827870006,324.9545827870006,1,1,rojo,1,['N_A'],327.25694142300017,327.25694142300017,327.25694142300017,327.25694142300017,329.27633924100155,329.27633924100155,329.27633924100155,329.27633924100155,329.27633924100155,329.27633924100155,329.27633924100155,329.27633924100155,331.2943358820012,331.2943358820012,331.2943358820012,331.2943358820012,,,,,,,,,,,,,,,,,,,,,,,,,,,,,,,,,,,,,,,10,007,2022-09-23_14h40.48.284,test2,2022.2.4,59.70252726238111,
0,0,0,0,51,0,51,0,331.2943358820012,331.2943358820012,331.2943358820012,331.2943358820012,331.2943358820012,331.2943358820012,331.2943358820012,1,1,rojo,1,['N_A'],333.9633946210015,333.9633946210015,333.9633946210015,333.9633946210015,335.98304475900113,335.98304475900113,335.98304475900113,335.98304475900113,335.98304475900113,335.98304475900113,335.98304475900113,335.98304475900113,338.00117138800124,338.00117138800124,338.00117138800124,338.00117138800124,,,,,,,,,,,,,,,,,,,,,,,,,,,,,,,,,,,,,,,10,007,2022-09-23_14h40.48.284,test2,2022.2.4,59.70252726238111,
0,0,0,0,52,0,52,0,338.00117138800124,338.00117138800124,338.00117138800124,338.00117138800124,338.00117138800124,338.00117138800124,338.00117138800124,1,-1,rojo,0,['N_B'],339.98767260100067,339.98767260100067,339.98767260100067,339.98767260100067,342.0056859420001,342.0056859420001,342.0056859420001,342.0056859420001,342.0056859420001,342.0056859420001,342.0056859420001,342.0056859420001,344.0249903180011,344.0249903180011,344.0249903180011,344.0249903180011,,,,,,,,,,,,,,,,,,,,,,,,,,,,,,,,,,,,,,,10,007,2022-09-23_14h40.48.284,test2,2022.2.4,59.70252726238111,
0,0,0,0,53,0,53,0,344.0249903180011,344.0249903180011,344.0249903180011,344.0249903180011,344.0249903180011,344.0249903180011,344.0249903180011,1,1,azul,1,['N_B'],345.6597043940001,345.6597043940001,345.6597043940001,345.6597043940001,347.6800112350011,347.6800112350011,347.6800112350011,347.6800112350011,347.6800112350011,347.6800112350011,347.6800112350011,347.6800112350011,349.69766079700094,349.69766079700094,349.69766079700094,349.69766079700094,,,,,,,,,,,,,,,,,,,,,,,,,,,,,,,,,,,,,,,10,007,2022-09-23_14h40.48.284,test2,2022.2.4,59.70252726238111,
0,0,0,0,54,0,54,0,349.69766079700094,349.69766079700094,349.69766079700094,349.69766079700094,349.69766079700094,349.69766079700094,349.69766079700094,1,1,azul,0,['N_A'],352.10040585800016,352.10040585800016,352.10040585800016,352.10040585800016,354.1204146939999,354.1204146939999,354.1204146939999,354.1204146939999,354.1204146939999,354.1204146939999,354.1204146939999,354.1204146939999,356.1380629989999,356.1380629989999,356.1380629989999,356.1380629989999,,,,,,,,,,,,,,,,,,,,,,,,,,,,,,,,,,,,,,,10,007,2022-09-23_14h40.48.284,test2,2022.2.4,59.70252726238111,
0,0,0,0,55,0,55,0,356.1380629989999,356.1380629989999,356.1380629989999,356.1380629989999,356.1380629989999,356.1380629989999,356.1380629989999,1,1,rojo,1,['N_A'],357.5076642889999,357.5076642889999,357.5076642889999,357.5076642889999,359.52526210200085,359.52526210200085,359.52526210200085,359.52526210200085,359.52526210200085,359.52526210200085,359.52526210200085,359.52526210200085,361.54397640700154,361.54397640700154,361.54397640700154,361.54397640700154,,,,,,,,,,,,,,,,,,,,,,,,,,,,,,,,,,,,,,,10,007,2022-09-23_14h40.48.284,test2,2022.2.4,59.70252726238111,
0,0,0,0,56,0,56,0,361.54397640700154,361.54397640700154,361.54397640700154,361.54397640700154,361.54397640700154,361.54397640700154,361.54397640700154,1,-1,rojo,1,['N_A'],363.19567821300006,363.19567821300006,363.19567821300006,363.19567821300006,365.2322459830011,365.2322459830011,365.2322459830011,365.2322459830011,365.2322459830011,365.2322459830011,365.2322459830011,365.2322459830011,367.25052211,367.25052211,367.25052211,367.25052211,,,,,,,,,,,,,,,,,,,,,,,,,,,,,,,,,,,,,,,10,007,2022-09-23_14h40.48.284,test2,2022.2.4,59.70252726238111,
0,0,0,0,57,0,57,0,367.25052211,367.25052211,367.25052211,367.25052211,367.25052211,367.25052211,367.25052211,-1,-1,azul,0,['N_B'],369.50281793200156,369.50281793200156,369.50281793200156,369.50281793200156,371.5226675660015,371.5226675660015,371.5226675660015,371.5226675660015,371.5226675660015,371.5226675660015,371.5226675660015,371.5226675660015,373.54121174300053,373.54121174300053,373.54121174300053,373.54121174300053,,,,,,,,,,,,,,,,,,,,,,,,,,,,,,,,,,,,,,,10,007,2022-09-23_14h40.48.284,test2,2022.2.4,59.70252726238111,
0,0,0,0,58,0,58,0,373.54121174300053,373.54121174300053,373.54121174300053,373.54121174300053,373.54121174300053,373.54121174300053,373.54121174300053,1,1,azul,1,['N_B'],375.10972443600076,375.10972443600076,375.10972443600076,375.10972443600076,377.12915437300035,377.12915437300035,377.12915437300035,377.12915437300035,377.12915437300035,377.12915437300035,377.12915437300035,377.12915437300035,379.14713310000116,379.14713310000116,379.14713310000116,379.14713310000116,,,,,,,,,,,,,,,,,,,,,,,,,,,,,,,,,,,,,,,10,007,2022-09-23_14h40.48.284,test2,2022.2.4,59.70252726238111,
0,0,0,0,59,0,59,0,379.14713310000116,379.14713310000116,379.14713310000116,379.14713310000116,379.14713310000116,379.14713310000116,379.14713310000116,1,1,azul,1,['N_B'],380.8654174029998,380.8654174029998,380.8654174029998,380.8654174029998,382.88475126400044,382.88475126400044,382.88475126400044,382.88475126400044,382.88475126400044,382.88475126400044,382.88475126400044,382.88475126400044,384.9037568040003,384.9037568040003,384.9037568040003,384.9037568040003,,,,,,,,,,,,,,,,,,,,,,,,,,,,,,,,,,,,,,,10,007,2022-09-23_14h40.48.284,test2,2022.2.4,59.70252726238111,
0,0,0,0,60,0,60,0,384.9037568040003,384.9037568040003,384.9037568040003,384.9037568040003,384.9037568040003,384.9037568040003,384.9037568040003,1,1,azul,1,['N_B'],386.6883243430002,386.6883243430002,386.6883243430002,386.6883243430002,388.70831644900136,388.70831644900136,388.70831644900136,388.70831644900136,388.70831644900136,388.70831644900136,388.70831644900136,388.70831644900136,390.72636775700084,390.72636775700084,390.72636775700084,390.72636775700084,,,,,,,,,,,,,,,,,,,,,,,,,,,,,,,,,,,,,,,10,007,2022-09-23_14h40.48.284,test2,2022.2.4,59.70252726238111,
0,0,0,0,61,0,61,0,390.72636775700084,390.72636775700084,390.72636775700084,390.72636775700084,390.72636775700084,390.72636775700084,390.72636775700084,1,1,azul,1,['N_B'],392.11133444700135,392.11133444700135,392.11133444700135,392.11133444700135,394.131153282,394.131153282,394.131153282,394.131153282,394.131153282,394.131153282,394.131153282,394.131153282,396.1496682699999,396.1496682699999,396.1496682699999,396.1496682699999,,,,,,,,,,,,,,,,,,,,,,,,,,,,,,,,,,,,,,,10,007,2022-09-23_14h40.48.284,test2,2022.2.4,59.70252726238111,
0,0,0,0,62,0,62,0,396.1496682699999,396.1496682699999,396.1496682699999,396.1496682699999,396.1496682699999,396.1496682699999,396.1496682699999,-1,1,rojo,1,['N_B'],397.58368930899996,397.58368930899996,397.58368930899996,397.58368930899996,399.6044215769998,399.6044215769998,399.6044215769998,399.6044215769998,399.6044215769998,399.6044215769998,399.6044215769998,399.6044215769998,401.6227658100015,401.6227658100015,401.6227658100015,401.6227658100015,,,,,,,,,,,,,,,,,,,,,,,,,,,,,,,,,,,,,,,10,007,2022-09-23_14h40.48.284,test2,2022.2.4,59.70252726238111,
0,0,0,0,63,0,63,0,401.6227658100015,401.6227658100015,401.6227658100015,401.6227658100015,401.6227658100015,401.6227658100015,401.6227658100015,-1,1,rojo,1,['N_B'],403.07349127999987,403.07349127999987,403.07349127999987,403.07349127999987,405.092963897001,405.092963897001,405.092963897001,405.092963897001,405.092963897001,405.092963897001,405.092963897001,405.092963897001,407.11139794800147,407.11139794800147,407.11139794800147,407.11139794800147,,,,,,,,,,,,,,,,,,,,,,,,,,,,,,,,,,,,,,,10,007,2022-09-23_14h40.48.284,test2,2022.2.4,59.70252726238111,
0,0,0,0,64,0,64,0,407.11139794800147,407.11139794800147,407.11139794800147,407.11139794800147,407.11139794800147,407.11139794800147,407.11139794800147,1,1,azul,1,['N_B'],410.5159800750007,410.5159800750007,410.5159800750007,410.5159800750007,412.5352912489998,412.5352912489998,412.5352912489998,412.5352912489998,412.5352912489998,412.5352912489998,412.5352912489998,412.5352912489998,414.5534639030011,414.5534639030011,414.5534639030011,414.5534639030011,,,,,,,,,,,,,,,,,,,,,,,,,,,,,,,,,,,,,,,10,007,2022-09-23_14h40.48.284,test2,2022.2.4,59.70252726238111,
0,0,0,0,65,0,65,0,414.5534639030011,414.5534639030011,414.5534639030011,414.5534639030011,414.5534639030011,414.5534639030011,414.5534639030011,1,1,azul,0,['N_A'],417.00527242499993,417.00527242499993,417.00527242499993,417.00527242499993,419.02535980799985,419.02535980799985,419.02535980799985,419.02535980799985,419.02535980799985,419.02535980799985,419.02535980799985,419.02535980799985,421.043489048001,421.043489048001,421.043489048001,421.043489048001,,,,,,,,,,,,,,,,,,,,,,,,,,,,,,,,,,,,,,,10,007,2022-09-23_14h40.48.284,test2,2022.2.4,59.70252726238111,
0,0,0,0,66,0,66,0,421.043489048001,421.043489048001,421.043489048001,421.043489048001,421.043489048001,421.043489048001,421.043489048001,1,1,rojo,1,['N_A'],422.76235962600003,422.76235962600003,422.76235962600003,422.76235962600003,424.7810220730007,424.7810220730007,424.7810220730007,424.7810220730007,424.7810220730007,424.7810220730007,424.7810220730007,424.7810220730007,426.80010060600034,426.80010060600034,426.80010060600034,426.80010060600034,,,,,,,,,,,,,,,,,,,,,,,,,,,,,,,,,,,,,,,10,007,2022-09-23_14h40.48.284,test2,2022.2.4,59.70252726238111,
0,0,0,0,67,0,67,0,426.80010060600034,426.80010060600034,426.80010060600034,426.80010060600034,426.80010060600034,426.80010060600034,426.80010060600034,-1,1,azul,0,['N_B'],428.8524509859999,428.8524509859999,428.8524509859999,428.8524509859999,430.87132013800147,430.87132013800147,430.87132013800147,430.87132013800147,430.87132013800147,430.87132013800147,430.87132013800147,430.87132013800147,432.889360571,432.889360571,432.889360571,432.889360571,,,,,,,,,,,,,,,,,,,,,,,,,,,,,,,,,,,,,,,10,007,2022-09-23_14h40.48.284,test2,2022.2.4,59.70252726238111,
0,0,0,0,68,0,68,0,432.889360571,432.889360571,432.889360571,432.889360571,432.889360571,432.889360571,432.889360571,1,-1,azul,1,['N_B'],434.3921775760009,434.3921775760009,434.3921775760009,434.3921775760009,436.41046406200076,436.41046406200076,436.41046406200076,436.41046406200076,436.41046406200076,436.41046406200076,436.41046406200076,436.41046406200076,438.42939419600043,438.42939419600043,438.42939419600043,438.42939419600043,,,,,,,,,,,,,,,,,,,,,,,,,,,,,,,,,,,,,,,10,007,2022-09-23_14h40.48.284,test2,2022.2.4,59.70252726238111,
0,0,0,0,69,0,69,0,438.42939419600043,438.42939419600043,438.42939419600043,438.42939419600043,438.42939419600043,438.42939419600043,438.42939419600043,-1,1,rojo,1,['N_B'],440.8491647440005,440.8491647440005,440.8491647440005,440.8491647440005,442.8672847850012,442.8672847850012,442.8672847850012,442.8672847850012,442.8672847850012,442.8672847850012,442.8672847850012,442.8672847850012,444.8872800570007,444.8872800570007,444.8872800570007,444.8872800570007,,,,,,,,,,,,,,,,,,,,,,,,,,,,,,,,,,,,,,,10,007,2022-09-23_14h40.48.284,test2,2022.2.4,59.70252726238111,
0,0,0,0,70,0,70,0,444.8872800570007,444.8872800570007,444.8872800570007,444.8872800570007,444.8872800570007,444.8872800570007,444.8872800570007,1,-1,azul,1,['N_B'],446.65493891200094,446.65493891200094,446.65493891200094,446.65493891200094,448.67332050799996,448.67332050799996,448.67332050799996,448.67332050799996,448.67332050799996,448.67332050799996,448.67332050799996,448.67332050799996,450.6924257290011,450.6924257290011,450.6924257290011,450.6924257290011,,,,,,,,,,,,,,,,,,,,,,,,,,,,,,,,,,,,,,,10,007,2022-09-23_14h40.48.284,test2,2022.2.4,59.70252726238111,
0,0,0,0,71,0,71,0,450.6924257290011,450.6924257290011,450.6924257290011,450.6924257290011,450.6924257290011,450.6924257290011,450.6924257290011,1,1,azul,1,['N_B'],451.77712197000074,451.77712197000074,451.77712197000074,451.77712197000074,453.7965296930015,453.7965296930015,453.7965296930015,453.7965296930015,453.7965296930015,453.7965296930015,453.7965296930015,453.7965296930015,455.81551857200066,455.81551857200066,455.81551857200066,455.81551857200066,,,,,,,,,,,,,,,,,,,,,,,,,,,,,,,,,,,,,,,10,007,2022-09-23_14h40.48.284,test2,2022.2.4,59.70252726238111,
0,0,0,0,72,0,72,0,455.81551857200066,455.81551857200066,455.81551857200066,455.81551857200066,455.81551857200066,455.81551857200066,455.81551857200066,1,-1,azul,0,['N_A'],458.03411318300095,458.03411318300095,458.03411318300095,458.03411318300095,460.0699840470006,460.0699840470006,460.0699840470006,460.0699840470006,460.0699840470006,460.0699840470006,460.0699840470006,460.0699840470006,462.09010051400037,462.09010051400037,462.09010051400037,462.09010051400037,,,,,,,,,,,,,,,,,,,,,,,,,,,,,,,,,,,,,,,10,007,2022-09-23_14h40.48.284,test2,2022.2.4,59.70252726238111,
0,0,0,0,73,0,73,0,462.09010051400037,462.09010051400037,462.09010051400037,462.09010051400037,462.09010051400037,462.09010051400037,462.09010051400037,-1,-1,azul,1,['N_A'],463.457427192001,463.457427192001,463.457427192001,463.457427192001,465.4933113550014,465.4933113550014,465.4933113550014,465.4933113550014,465.4933113550014,465.4933113550014,465.4933113550014,465.4933113550014,467.5112214660003,467.5112214660003,467.5112214660003,467.5112214660003,,,,,,,,,,,,,,,,,,,,,,,,,,,,,,,,,,,,,,,10,007,2022-09-23_14h40.48.284,test2,2022.2.4,59.70252726238111,
0,0,0,0,74,0,74,0,467.5112214660003,467.5112214660003,467.5112214660003,467.5112214660003,467.5112214660003,467.5112214660003,467.5112214660003,1,-1,rojo,1,['N_A'],468.8456737560009,468.8456737560009,468.8456737560009,468.8456737560009,470.8653688960003,470.8653688960003,470.8653688960003,470.8653688960003,470.8653688960003,470.8653688960003,470.8653688960003,470.8653688960003,472.88367671500055,472.88367671500055,472.88367671500055,472.88367671500055,,,,,,,,,,,,,,,,,,,,,,,,,,,,,,,,,,,,,,,10,007,2022-09-23_14h40.48.284,test2,2022.2.4,59.70252726238111,
0,0,0,0,75,0,75,0,472.88367671500055,472.88367671500055,472.88367671500055,472.88367671500055,472.88367671500055,472.88367671500055,472.88367671500055,1,1,rojo,0,['N_B'],474.66909757600115,474.66909757600115,474.66909757600115,474.66909757600115,476.6885149509999,476.6885149509999,476.6885149509999,476.6885149509999,476.6885149509999,476.6885149509999,476.6885149509999,476.6885149509999,478.70653011800096,478.70653011800096,478.70653011800096,478.70653011800096,,,,,,,,,,,,,,,,,,,,,,,,,,,,,,,,,,,,,,,10,007,2022-09-23_14h40.48.284,test2,2022.2.4,59.70252726238111,
0,0,0,0,76,0,76,0,478.70653011800096,478.70653011800096,478.70653011800096,478.70653011800096,478.70653011800096,478.70653011800096,478.70653011800096,-1,1,rojo,0,['N_A'],480.74269666000146,480.74269666000146,480.74269666000146,480.74269666000146,482.7625061590006,482.7625061590006,482.7625061590006,482.7625061590006,482.7625061590006,482.7625061590006,482.7625061590006,482.7625061590006,484.780747103001,484.780747103001,484.780747103001,484.780747103001,,,,,,,,,,,,,,,,,,,,,,,,,,,,,,,,,,,,,,,10,007,2022-09-23_14h40.48.284,test2,2022.2.4,59.70252726238111,
0,0,0,0,77,0,77,0,484.780747103001,484.780747103001,484.780747103001,484.780747103001,484.780747103001,484.780747103001,484.780747103001,1,1,rojo,0,['N_B'],488.08388496299995,488.08388496299995,488.08388496299995,488.08388496299995,490.103098556001,490.103098556001,490.103098556001,490.103098556001,490.103098556001,490.103098556001,490.103098556001,490.103098556001,492.1225855920002,492.1225855920002,492.1225855920002,492.1225855920002,,,,,,,,,,,,,,,,,,,,,,,,,,,,,,,,,,,,,,,10,007,2022-09-23_14h40.48.284,test2,2022.2.4,59.70252726238111,
0,0,0,0,78,0,78,0,492.1225855920002,492.1225855920002,492.1225855920002,492.1225855920002,492.1225855920002,492.1225855920002,492.1225855920002,1,-1,azul,1,['N_B'],493.84060245399996,493.84060245399996,493.84060245399996,493.84060245399996,495.85874728100134,495.85874728100134,495.85874728100134,495.85874728100134,495.85874728100134,495.85874728100134,495.85874728100134,495.85874728100134,497.8783093230013,497.8783093230013,497.8783093230013,497.8783093230013,,,,,,,,,,,,,,,,,,,,,,,,,,,,,,,,,,,,,,,10,007,2022-09-23_14h40.48.284,test2,2022.2.4,59.70252726238111,
0,0,0,0,79,0,79,0,497.8783093230013,497.8783093230013,497.8783093230013,497.8783093230013,497.8783093230013,497.8783093230013,497.8783093230013,-1,1,rojo,1,['N_B'],499.43021949500144,499.43021949500144,499.43021949500144,499.43021949500144,501.4503733620004,501.4503733620004,501.4503733620004,501.4503733620004,501.4503733620004,501.4503733620004,501.4503733620004,501.4503733620004,503.4673848250004,503.4673848250004,503.4673848250004,503.4673848250004,,,,,,,,,,,,,,,,,,,,,,,,,,,,,,,,,,,,,,,10,007,2022-09-23_14h40.48.284,test2,2022.2.4,59.70252726238111,
0,0,0,0,80,0,80,0,503.4673848250004,503.4673848250004,503.4673848250004,503.4673848250004,503.4673848250004,503.4673848250004,503.4673848250004,1,1,azul,1,['N_B'],506.0210306950012,506.0210306950012,506.0210306950012,506.0210306950012,508.0403319779998,508.0403319779998,508.0403319779998,508.0403319779998,508.0403319779998,508.0403319779998,508.0403319779998,508.0403319779998,510.0582331350015,510.0582331350015,510.0582331350015,510.0582331350015,,,,,,,,,,,,,,,,,,,,,,,,,,,,,,,,,,,,,,,10,007,2022-09-23_14h40.48.284,test2,2022.2.4,59.70252726238111,
0,0,0,0,81,0,81,0,510.0582331350015,510.0582331350015,510.0582331350015,510.0582331350015,510.0582331350015,510.0582331350015,510.0582331350015,1,1,azul,0,['N_A'],513.5117032910002,513.5117032910002,513.5117032910002,513.5117032910002,515.5316109710002,515.5316109710002,515.5316109710002,515.5316109710002,515.5316109710002,515.5316109710002,515.5316109710002,515.5316109710002,517.5501563360012,517.5501563360012,517.5501563360012,517.5501563360012,,,,,,,,,,,,,,,,,,,,,,,,,,,,,,,,,,,,,,,10,007,2022-09-23_14h40.48.284,test2,2022.2.4,59.70252726238111,
0,0,0,0,82,0,82,0,517.5501563360012,517.5501563360012,517.5501563360012,517.5501563360012,517.5501563360012,517.5501563360012,517.5501563360012,1,1,rojo,0,['N_B'],519.9690378240011,519.9690378240011,519.9690378240011,519.9690378240011,521.9888646380005,521.9888646380005,521.9888646380005,521.9888646380005,521.9888646380005,521.9888646380005,521.9888646380005,521.9888646380005,524.0072380670008,524.0072380670008,524.0072380670008,524.0072380670008,,,,,,,,,,,,,,,,,,,,,,,,,,,,,,,,,,,,,,,10,007,2022-09-23_14h40.48.284,test2,2022.2.4,59.70252726238111,
0,0,0,0,83,0,83,0,524.0072380670008,524.0072380670008,524.0072380670008,524.0072380670008,524.0072380670008,524.0072380670008,524.0072380670008,1,1,azul,1,['N_B'],525.4586868349998,525.4586868349998,525.4586868349998,525.4586868349998,527.4777914790011,527.4777914790011,527.4777914790011,527.4777914790011,527.4777914790011,527.4777914790011,527.4777914790011,527.4777914790011,529.4963232190003,529.4963232190003,529.4963232190003,529.4963232190003,,,,,,,,,,,,,,,,,,,,,,,,,,,,,,,,,,,,,,,10,007,2022-09-23_14h40.48.284,test2,2022.2.4,59.70252726238111,
0,0,0,0,84,0,84,0,529.4963232190003,529.4963232190003,529.4963232190003,529.4963232190003,529.4963232190003,529.4963232190003,529.4963232190003,1,1,azul,1,['N_B'],531.648185641001,531.648185641001,531.648185641001,531.648185641001,533.6684598100001,533.6684598100001,533.6684598100001,533.6684598100001,533.6684598100001,533.6684598100001,533.6684598100001,533.6684598100001,535.6869163790016,535.6869163790016,535.6869163790016,535.6869163790016,,,,,,,,,,,,,,,,,,,,,,,,,,,,,,,,,,,,,,,10,007,2022-09-23_14h40.48.284,test2,2022.2.4,59.70252726238111,
0,0,0,0,85,0,85,0,535.6869163790016,535.6869163790016,535.6869163790016,535.6869163790016,535.6869163790016,535.6869163790016,535.6869163790016,-1,-1,rojo,1,['N_B'],537.9056070229999,537.9056070229999,537.9056070229999,537.9056070229999,539.942321898001,539.942321898001,539.942321898001,539.942321898001,539.942321898001,539.942321898001,539.942321898001,539.942321898001,541.9598784860009,541.9598784860009,541.9598784860009,541.9598784860009,,,,,,,,,,,,,,,,,,,,,,,,,,,,,,,,,,,,,,,10,007,2022-09-23_14h40.48.284,test2,2022.2.4,59.70252726238111,
0,0,0,0,86,0,86,0,541.9598784860009,541.9598784860009,541.9598784860009,541.9598784860009,541.9598784860009,541.9598784860009,541.9598784860009,1,-1,azul,1,['N_B'],543.8455472610003,543.8455472610003,543.8455472610003,543.8455472610003,545.8641174920012,545.8641174920012,545.8641174920012,545.8641174920012,545.8641174920012,545.8641174920012,545.8641174920012,545.8641174920012,547.8830076820013,547.8830076820013,547.8830076820013,547.8830076820013,,,,,,,,,,,,,,,,,,,,,,,,,,,,,,,,,,,,,,,10,007,2022-09-23_14h40.48.284,test2,2022.2.4,59.70252726238111,
0,0,0,0,87,0,87,0,547.8830076820013,547.8830076820013,547.8830076820013,547.8830076820013,547.8830076820013,547.8830076820013,547.8830076820013,-1,1,rojo,1,['N_B'],549.5848986010005,549.5848986010005,549.5848986010005,549.5848986010005,551.6048703910001,551.6048703910001,551.6048703910001,551.6048703910001,551.6048703910001,551.6048703910001,551.6048703910001,551.6048703910001,553.6233318020004,553.6233318020004,553.6233318020004,553.6233318020004,,,,,,,,,,,,,,,,,,,,,,,,,,,,,,,,,,,,,,,10,007,2022-09-23_14h40.48.284,test2,2022.2.4,59.70252726238111,
0,0,0,0,88,0,88,0,553.6233318020004,553.6233318020004,553.6233318020004,553.6233318020004,553.6233318020004,553.6233318020004,553.6233318020004,1,1,azul,0,['N_A'],555.074565111001,555.074565111001,555.074565111001,555.074565111001,557.0952376700006,557.0952376700006,557.0952376700006,557.0952376700006,557.0952376700006,557.0952376700006,557.0952376700006,557.0952376700006,559.1123554860005,559.1123554860005,559.1123554860005,559.1123554860005,,,,,,,,,,,,,,,,,,,,,,,,,,,,,,,,,,,,,,,10,007,2022-09-23_14h40.48.284,test2,2022.2.4,59.70252726238111,
0,0,0,0,89,0,89,0,559.1123554860005,559.1123554860005,559.1123554860005,559.1123554860005,559.1123554860005,559.1123554860005,559.1123554860005,1,1,rojo,1,['N_A'],560.7475424570002,560.7475424570002,560.7475424570002,560.7475424570002,562.7668925610014,562.7668925610014,562.7668925610014,562.7668925610014,562.7668925610014,562.7668925610014,562.7668925610014,562.7668925610014,564.786037797001,564.786037797001,564.786037797001,564.786037797001,,,,,,,,,,,,,,,,,,,,,,,,,,,,,,,,,,,,,,,10,007,2022-09-23_14h40.48.284,test2,2022.2.4,59.70252726238111,
0,0,0,0,90,0,90,0,564.786037797001,564.786037797001,564.786037797001,564.786037797001,564.786037797001,564.786037797001,564.786037797001,-1,1,azul,0,['N_B'],566.8047117639999,566.8047117639999,566.8047117639999,566.8047117639999,568.824163270001,568.824163270001,568.824163270001,568.824163270001,568.824163270001,568.824163270001,568.824163270001,568.824163270001,570.8419679960007,570.8419679960007,570.8419679960007,570.8419679960007,,,,,,,,,,,,,,,,,,,,,,,,,,,,,,,,,,,,,,,10,007,2022-09-23_14h40.48.284,test2,2022.2.4,59.70252726238111,
0,0,0,0,91,0,91,0,570.8419679960007,570.8419679960007,570.8419679960007,570.8419679960007,570.8419679960007,570.8419679960007,570.8419679960007,-1,1,rojo,1,['N_B'],572.9288597930008,572.9288597930008,572.9288597930008,572.9288597930008,574.9476717300004,574.9476717300004,574.9476717300004,574.9476717300004,574.9476717300004,574.9476717300004,574.9476717300004,574.9476717300004,576.9657351610003,576.9657351610003,576.9657351610003,576.9657351610003,,,,,,,,,,,,,,,,,,,,,,,,,,,,,,,,,,,,,,,10,007,2022-09-23_14h40.48.284,test2,2022.2.4,59.70252726238111,
0,0,0,0,92,0,92,0,576.9657351610003,576.9657351610003,576.9657351610003,576.9657351610003,576.9657351610003,576.9657351610003,576.9657351610003,1,1,azul,0,['N_A'],579.3347501740009,579.3347501740009,579.3347501740009,579.3347501740009,581.3548927370011,581.3548927370011,581.3548927370011,581.3548927370011,581.3548927370011,581.3548927370011,581.3548927370011,581.3548927370011,583.3721684200009,583.3721684200009,583.3721684200009,583.3721684200009,,,,,,,,,,,,,,,,,,,,,,,,,,,,,,,,,,,,,,,10,007,2022-09-23_14h40.48.284,test2,2022.2.4,59.70252726238111,
0,0,0,0,93,0,93,0,583.3721684200009,583.3721684200009,583.3721684200009,583.3721684200009,583.3721684200009,583.3721684200009,583.3721684200009,-1,1,azul,1,['N_A'],590.6633888190008,590.6633888190008,590.6633888190008,590.6633888190008,592.6834270449999,592.6834270449999,592.6834270449999,592.6834270449999,592.6834270449999,592.6834270449999,592.6834270449999,592.6834270449999,594.7011448190005,594.7011448190005,594.7011448190005,594.7011448190005,,,,,,,,,,,,,,,,,,,,,,,,,,,,,,,,,,,,,,,10,007,2022-09-23_14h40.48.284,test2,2022.2.4,59.70252726238111,
0,0,0,0,94,0,94,0,594.7011448190005,594.7011448190005,594.7011448190005,594.7011448190005,594.7011448190005,594.7011448190005,594.7011448190005,-1,1,azul,1,['N_A'],597.0377216010002,597.0377216010002,597.0377216010002,597.0377216010002,599.056965066,599.056965066,599.056965066,599.056965066,599.056965066,599.056965066,599.056965066,599.056965066,601.0751634750013,601.0751634750013,601.0751634750013,601.0751634750013,,,,,,,,,,,,,,,,,,,,,,,,,,,,,,,,,,,,,,,10,007,2022-09-23_14h40.48.284,test2,2022.2.4,59.70252726238111,
0,0,0,0,95,0,95,0,601.0751634750013,601.0751634750013,601.0751634750013,601.0751634750013,601.0751634750013,601.0751634750013,601.0751634750013,-1,1,azul,0,['N_B'],602.4770023560013,602.4770023560013,602.4770023560013,602.4770023560013,604.4969717270014,604.4969717270014,604.4969717270014,604.4969717270014,604.4969717270014,604.4969717270014,604.4969717270014,604.4969717270014,606.514493015,606.514493015,606.514493015,606.514493015,,,,,,,,,,,,,,,,,,,,,,,,,,,,,,,,,,,,,,,10,007,2022-09-23_14h40.48.284,test2,2022.2.4,59.70252726238111,
0,0,0,0,96,0,96,0,606.514493015,606.514493015,606.514493015,606.514493015,606.514493015,606.514493015,606.514493015,1,1,azul,0,['N_A'],608.6164538820012,608.6164538820012,608.6164538820012,608.6164538820012,610.6364390200015,610.6364390200015,610.6364390200015,610.6364390200015,610.6364390200015,610.6364390200015,610.6364390200015,610.6364390200015,612.6551391700013,612.6551391700013,612.6551391700013,612.6551391700013,,,,,,,,,,,,,,,,,,,,,,,,,,,,,,,,,,,,,,,10,007,2022-09-23_14h40.48.284,test2,2022.2.4,59.70252726238111,
0,0,0,0,97,0,97,0,612.6551391700013,612.6551391700013,612.6551391700013,612.6551391700013,612.6551391700013,612.6551391700013,612.6551391700013,1,1,rojo,1,['N_A'],620.0967847640004,620.0967847640004,620.0967847640004,620.0967847640004,622.115838312,622.115838312,622.115838312,622.115838312,622.115838312,622.115838312,622.115838312,622.115838312,624.1337880280007,624.1337880280007,624.1337880280007,624.1337880280007,,,,,,,,,,,,,,,,,,,,,,,,,,,,,,,,,,,,,,,10,007,2022-09-23_14h40.48.284,test2,2022.2.4,59.70252726238111,
0,0,0,0,98,0,98,0,624.1337880280007,624.1337880280007,624.1337880280007,624.1337880280007,624.1337880280007,624.1337880280007,624.1337880280007,1,-1,rojo,0,['N_B'],633.1606558640015,633.1606558640015,633.1606558640015,633.1606558640015,635.179269264001,635.179269264001,635.179269264001,635.179269264001,635.179269264001,635.179269264001,635.179269264001,635.179269264001,637.1981092000005,637.1981092000005,637.1981092000005,637.1981092000005,,,,,,,,,,,,,,,,,,,,,,,,,,,,,,,,,,,,,,,10,007,2022-09-23_14h40.48.284,test2,2022.2.4,59.70252726238111,
0,0,0,0,99,0,99,0,637.1981092000005,637.1981092000005,637.1981092000005,637.1981092000005,637.1981092000005,637.1981092000005,637.1981092000005,1,1,azul,1,['N_B'],638.5999679720007,638.5999679720007,638.5999679720007,638.5999679720007,640.6201577860011,640.6201577860011,640.6201577860011,640.6201577860011,640.6201577860011,640.6201577860011,640.6201577860011,640.6201577860011,642.637859505001,642.637859505001,642.637859505001,642.637859505001,,,,,,,,,,,,,,,,,,,,,,,,,,,,,,,,,,,,,,,10,007,2022-09-23_14h40.48.284,test2,2022.2.4,59.70252726238111,
0,0,0,0,100,0,100,0,642.637859505001,642.637859505001,642.637859505001,642.637859505001,642.637859505001,642.637859505001,642.637859505001,1,1,azul,1,['N_B'],644.8066854490007,644.8066854490007,644.8066854490007,644.8066854490007,646.8266271660013,646.8266271660013,646.8266271660013,646.8266271660013,646.8266271660013,646.8266271660013,646.8266271660013,646.8266271660013,648.8444724870005,648.8444724870005,648.8444724870005,648.8444724870005,,,,,,,,,,,,,,,,,,,,,,,,,,,,,,,,,,,,,,,10,007,2022-09-23_14h40.48.284,test2,2022.2.4,59.70252726238111,
0,0,0,0,101,0,101,0,648.8444724870005,648.8444724870005,648.8444724870005,648.8444724870005,648.8444724870005,648.8444724870005,648.8444724870005,1,1,azul,1,['N_B'],650.5968072550004,650.5968072550004,650.5968072550004,650.5968072550004,652.6162189590013,652.6162189590013,652.6162189590013,652.6162189590013,652.6162189590013,652.6162189590013,652.6162189590013,652.6162189590013,654.6343019080014,654.6343019080014,654.6343019080014,654.6343019080014,,,,,,,,,,,,,,,,,,,,,,,,,,,,,,,,,,,,,,,10,007,2022-09-23_14h40.48.284,test2,2022.2.4,59.70252726238111,
0,0,0,0,102,0,102,0,654.6343019080014,654.6343019080014,654.6343019080014,654.6343019080014,654.6343019080014,654.6343019080014,654.6343019080014,1,1,azul,1,['N_B'],655.9521668960006,655.9521668960006,655.9521668960006,655.9521668960006,657.9718752130011,657.9718752130011,657.9718752130011,657.9718752130011,657.9718752130011,657.9718752130011,657.9718752130011,657.9718752130011,659.9902929060008,659.9902929060008,659.9902929060008,659.9902929060008,,,,,,,,,,,,,,,,,,,,,,,,,,,,,,,,,,,,,,,10,007,2022-09-23_14h40.48.284,test2,2022.2.4,59.70252726238111,
0,0,0,0,103,0,103,0,659.9902929060008,659.9902929060008,659.9902929060008,659.9902929060008,659.9902929060008,659.9902929060008,659.9902929060008,-1,1,rojo,0,['N_A'],661.9424380380005,661.9424380380005,661.9424380380005,661.9424380380005,663.9620656700008,663.9620656700008,663.9620656700008,663.9620656700008,663.9620656700008,663.9620656700008,663.9620656700008,663.9620656700008,665.9801390820012,665.9801390820012,665.9801390820012,665.9801390820012,,,,,,,,,,,,,,,,,,,,,,,,,,,,,,,,,,,,,,,10,007,2022-09-23_14h40.48.284,test2,2022.2.4,59.70252726238111,
0,0,0,0,104,0,104,0,665.9801390820012,665.9801390820012,665.9801390820012,665.9801390820012,665.9801390820012,665.9801390820012,665.9801390820012,-1,1,azul,0,['N_B'],672.3038005880007,672.3038005880007,672.3038005880007,672.3038005880007,674.3238904670015,674.3238904670015,674.3238904670015,674.3238904670015,674.3238904670015,674.3238904670015,674.3238904670015,674.3238904670015,676.342190626001,676.342190626001,676.342190626001,676.342190626001,,,,,,,,,,,,,,,,,,,,,,,,,,,,,,,,,,,,,,,10,007,2022-09-23_14h40.48.284,test2,2022.2.4,59.70252726238111,
0,0,0,0,105,0,105,0,676.342190626001,676.342190626001,676.342190626001,676.342190626001,676.342190626001,676.342190626001,676.342190626001,1,1,azul,1,['N_B'],678.3939350780001,678.3939350780001,678.3939350780001,678.3939350780001,680.4139062009999,680.4139062009999,680.4139062009999,680.4139062009999,680.4139062009999,680.4139062009999,680.4139062009999,680.4139062009999,682.4319453950011,682.4319453950011,682.4319453950011,682.4319453950011,,,,,,,,,,,,,,,,,,,,,,,,,,,,,,,,,,,,,,,10,007,2022-09-23_14h40.48.284,test2,2022.2.4,59.70252726238111,
0,0,0,0,106,0,106,0,682.4319453950011,682.4319453950011,682.4319453950011,682.4319453950011,682.4319453950011,682.4319453950011,682.4319453950011,-1,1,rojo,1,['N_B'],686.1022270370013,686.1022270370013,686.1022270370013,686.1022270370013,688.1217548519999,688.1217548519999,688.1217548519999,688.1217548519999,688.1217548519999,688.1217548519999,688.1217548519999,688.1217548519999,690.1408417460007,690.1408417460007,690.1408417460007,690.1408417460007,,,,,,,,,,,,,,,,,,,,,,,,,,,,,,,,,,,,,,,10,007,2022-09-23_14h40.48.284,test2,2022.2.4,59.70252726238111,
0,0,0,0,107,0,107,0,690.1408417460007,690.1408417460007,690.1408417460007,690.1408417460007,690.1408417460007,690.1408417460007,690.1408417460007,1,1,azul,1,['N_B'],691.7581694030014,691.7581694030014,691.7581694030014,691.7581694030014,693.7781076320007,693.7781076320007,693.7781076320007,693.7781076320007,693.7781076320007,693.7781076320007,693.7781076320007,693.7781076320007,695.7960469250011,695.7960469250011,695.7960469250011,695.7960469250011,,,,,,,,,,,,,,,,,,,,,,,,,,,,,,,,,,,,,,,10,007,2022-09-23_14h40.48.284,test2,2022.2.4,59.70252726238111,
0,0,0,0,108,0,108,0,695.7960469250011,695.7960469250011,695.7960469250011,695.7960469250011,695.7960469250011,695.7960469250011,695.7960469250011,1,-1,azul,1,['N_B'],697.1812577030014,697.1812577030014,697.1812577030014,697.1812577030014,699.2007188389998,699.2007188389998,699.2007188389998,699.2007188389998,699.2007188389998,699.2007188389998,699.2007188389998,699.2007188389998,701.2190865580014,701.2190865580014,701.2190865580014,701.2190865580014,,,,,,,,,,,,,,,,,,,,,,,,,,,,,,,,,,,,,,,10,007,2022-09-23_14h40.48.284,test2,2022.2.4,59.70252726238111,
0,0,0,0,109,0,109,0,701.2190865580014,701.2190865580014,701.2190865580014,701.2190865580014,701.2190865580014,701.2190865580014,701.2190865580014,1,1,azul,0,['N_A'],702.7880960380007,702.7880960380007,702.7880960380007,702.7880960380007,704.8066057840006,704.8066057840006,704.8066057840006,704.8066057840006,704.8066057840006,704.8066057840006,704.8066057840006,704.8066057840006,706.8251571030014,706.8251571030014,706.8251571030014,706.8251571030014,,,,,,,,,,,,,,,,,,,,,,,,,,,,,,,,,,,,,,,10,007,2022-09-23_14h40.48.284,test2,2022.2.4,59.70252726238111,
0,0,0,0,110,0,110,0,706.8251571030014,706.8251571030014,706.8251571030014,706.8251571030014,706.8251571030014,706.8251571030014,706.8251571030014,1,-1,rojo,1,['N_A'],708.2437641280012,708.2437641280012,708.2437641280012,708.2437641280012,710.2620537040002,710.2620537040002,710.2620537040002,710.2620537040002,710.2620537040002,710.2620537040002,710.2620537040002,710.2620537040002,712.2810216610014,712.2810216610014,712.2810216610014,712.2810216610014,,,,,,,,,,,,,,,,,,,,,,,,,,,,,,,,,,,,,,,10,007,2022-09-23_14h40.48.284,test2,2022.2.4,59.70252726238111,
0,0,0,0,111,0,111,0,712.2810216610014,712.2810216610014,712.2810216610014,712.2810216610014,712.2810216610014,712.2810216610014,712.2810216610014,1,1,rojo,1,['N_A'],715.6523191699998,715.6523191699998,715.6523191699998,715.6523191699998,717.6707111450014,717.6707111450014,717.6707111450014,717.6707111450014,717.6707111450014,717.6707111450014,717.6707111450014,717.6707111450014,719.6891853510006,719.6891853510006,719.6891853510006,719.6891853510006,,,,,,,,,,,,,,,,,,,,,,,,,,,,,,,,,,,,,,,10,007,2022-09-23_14h40.48.284,test2,2022.2.4,59.70252726238111,
0,0,0,0,112,0,112,0,719.6891853510006,719.6891853510006,719.6891853510006,719.6891853510006,719.6891853510006,719.6891853510006,719.6891853510006,1,-1,rojo,1,['N_A'],722.1255905430007,722.1255905430007,722.1255905430007,722.1255905430007,724.1445027770005,724.1445027770005,724.1445027770005,724.1445027770005,724.1445027770005,724.1445027770005,724.1445027770005,724.1445027770005,726.1638377950003,726.1638377950003,726.1638377950003,726.1638377950003,,,,,,,,,,,,,,,,,,,,,,,,,,,,,,,,,,,,,,,10,007,2022-09-23_14h40.48.284,test2,2022.2.4,59.70252726238111,
0,0,0,0,113,0,113,0,726.1638377950003,726.1638377950003,726.1638377950003,726.1638377950003,726.1638377950003,726.1638377950003,726.1638377950003,-1,1,azul,0,['N_B'],728.1661061180002,728.1661061180002,728.1661061180002,728.1661061180002,730.1853026160006,730.1853026160006,730.1853026160006,730.1853026160006,730.1853026160006,730.1853026160006,730.1853026160006,730.1853026160006,732.2029334930012,732.2029334930012,732.2029334930012,732.2029334930012,,,,,,,,,,,,,,,,,,,,,,,,,,,,,,,,,,,,,,,10,007,2022-09-23_14h40.48.284,test2,2022.2.4,59.70252726238111,
0,0,0,0,114,0,114,0,732.2029334930012,732.2029334930012,732.2029334930012,732.2029334930012,732.2029334930012,732.2029334930012,732.2029334930012,1,1,azul,1,['N_B'],733.7055185690006,733.7055185690006,733.7055185690006,733.7055185690006,735.7250022759999,735.7250022759999,735.7250022759999,735.7250022759999,735.7250022759999,735.7250022759999,735.7250022759999,735.7250022759999,737.742845236,737.742845236,737.742845236,737.742845236,,,,,,,,,,,,,,,,,,,,,,,,,,,,,,,,,,,,,,,10,007,2022-09-23_14h40.48.284,test2,2022.2.4,59.70252726238111,
0,0,0,0,115,0,115,0,737.742845236,737.742845236,737.742845236,737.742845236,737.742845236,737.742845236,737.742845236,1,1,azul,1,['N_B'],739.0940241570006,739.0940241570006,739.0940241570006,739.0940241570006,741.1126163959998,741.1126163959998,741.1126163959998,741.1126163959998,741.1126163959998,741.1126163959998,741.1126163959998,741.1126163959998,743.132281178001,743.132281178001,743.132281178001,743.132281178001,,,,,,,,,,,,,,,,,,,,,,,,,,,,,,,,,,,,,,,10,007,2022-09-23_14h40.48.284,test2,2022.2.4,59.70252726238111,
0,0,0,0,116,0,116,0,743.132281178001,743.132281178001,743.132281178001,743.132281178001,743.132281178001,743.132281178001,743.132281178001,-1,-1,rojo,1,['N_B'],745.3177983300011,745.3177983300011,745.3177983300011,745.3177983300011,747.3539817760011,747.3539817760011,747.3539817760011,747.3539817760011,747.3539817760011,747.3539817760011,747.3539817760011,747.3539817760011,749.3727699500014,749.3727699500014,749.3727699500014,749.3727699500014,,,,,,,,,,,,,,,,,,,,,,,,,,,,,,,,,,,,,,,10,007,2022-09-23_14h40.48.284,test2,2022.2.4,59.70252726238111,
0,0,0,0,117,0,117,0,749.3727699500014,749.3727699500014,749.3727699500014,749.3727699500014,749.3727699500014,749.3727699500014,749.3727699500014,-1,-1,rojo,0,['N_A'],751.0238629450014,751.0238629450014,751.0238629450014,751.0238629450014,753.0426692649999,753.0426692649999,753.0426692649999,753.0426692649999,753.0426692649999,753.0426692649999,753.0426692649999,753.0426692649999,755.0614469650009,755.0614469650009,755.0614469650009,755.0614469650009,,,,,,,,,,,,,,,,,,,,,,,,,,,,,,,,,,,,,,,10,007,2022-09-23_14h40.48.284,test2,2022.2.4,59.70252726238111,
0,0,0,0,118,0,118,0,755.0614469650009,755.0614469650009,755.0614469650009,755.0614469650009,755.0614469650009,755.0614469650009,755.0614469650009,1,1,rojo,1,['N_A'],762.1027894920007,762.1027894920007,762.1027894920007,762.1027894920007,764.1214037629998,764.1214037629998,764.1214037629998,764.1214037629998,764.1214037629998,764.1214037629998,764.1214037629998,764.1214037629998,766.1408981120003,766.1408981120003,766.1408981120003,766.1408981120003,,,,,,,,,,,,,,,,,,,,,,,,,,,,,,,,,,,,,,,10,007,2022-09-23_14h40.48.284,test2,2022.2.4,59.70252726238111,
0,0,0,0,119,0,119,0,766.1408981120003,766.1408981120003,766.1408981120003,766.1408981120003,766.1408981120003,766.1408981120003,766.1408981120003,1,-1,rojo,0,['N_B'],768.2265405110011,768.2265405110011,768.2265405110011,768.2265405110011,770.2631651470001,770.2631651470001,770.2631651470001,770.2631651470001,770.2631651470001,770.2631651470001,770.2631651470001,770.2631651470001,772.2804543760012,772.2804543760012,772.2804543760012,772.2804543760012,,,,,,,,,,,,,,,,,,,,,,,,,,,,,,,,,,,,,,,10,007,2022-09-23_14h40.48.284,test2,2022.2.4,59.70252726238111,
0,0,0,0,120,0,120,0,772.2804543760012,772.2804543760012,772.2804543760012,772.2804543760012,772.2804543760012,772.2804543760012,772.2804543760012,1,-1,azul,1,['N_B'],774.182400398,774.182400398,774.182400398,774.182400398,776.2023086090012,776.2023086090012,776.2023086090012,776.2023086090012,776.2023086090012,776.2023086090012,776.2023086090012,776.2023086090012,778.2209027940007,778.2209027940007,778.2209027940007,778.2209027940007,,,,,,,,,,,,,,,,,,,,,,,,,,,,,,,,,,,,,,,10,007,2022-09-23_14h40.48.284,test2,2022.2.4,59.70252726238111,
0,0,0,0,121,0,121,0,778.2209027940007,778.2209027940007,778.2209027940007,778.2209027940007,778.2209027940007,778.2209027940007,778.2209027940007,1,1,azul,1,['N_B'],781.056792876001,781.056792876001,781.056792876001,781.056792876001,783.077409978001,783.077409978001,783.077409978001,783.077409978001,783.077409978001,783.077409978001,783.077409978001,783.077409978001,785.0959577940012,785.0959577940012,785.0959577940012,785.0959577940012,,,,,,,,,,,,,,,,,,,,,,,,,,,,,,,,,,,,,,,10,007,2022-09-23_14h40.48.284,test2,2022.2.4,59.70252726238111,
0,0,0,0,122,0,122,0,785.0959577940012,785.0959577940012,785.0959577940012,785.0959577940012,785.0959577940012,785.0959577940012,785.0959577940012,1,1,azul,1,['N_B'],786.5978231540012,786.5978231540012,786.5978231540012,786.5978231540012,788.615672715001,788.615672715001,788.615672715001,788.615672715001,788.615672715001,788.615672715001,788.615672715001,788.615672715001,790.6344279620007,790.6344279620007,790.6344279620007,790.6344279620007,,,,,,,,,,,,,,,,,,,,,,,,,,,,,,,,,,,,,,,10,007,2022-09-23_14h40.48.284,test2,2022.2.4,59.70252726238111,
0,0,0,0,123,0,123,0,790.6344279620007,790.6344279620007,790.6344279620007,790.6344279620007,790.6344279620007,790.6344279620007,790.6344279620007,-1,1,rojo,1,['N_B'],791.8024042460002,791.8024042460002,791.8024042460002,791.8024042460002,793.8217325060014,793.8217325060014,793.8217325060014,793.8217325060014,793.8217325060014,793.8217325060014,793.8217325060014,793.8217325060014,795.8400257430003,795.8400257430003,795.8400257430003,795.8400257430003,,,,,,,,,,,,,,,,,,,,,,,,,,,,,,,,,,,,,,,10,007,2022-09-23_14h40.48.284,test2,2022.2.4,59.70252726238111,
0,0,0,0,124,0,124,0,795.8400257430003,795.8400257430003,795.8400257430003,795.8400257430003,795.8400257430003,795.8400257430003,795.8400257430003,1,1,azul,1,['N_B'],798.4766696510014,798.4766696510014,798.4766696510014,798.4766696510014,800.4965030069998,800.4965030069998,800.4965030069998,800.4965030069998,800.4965030069998,800.4965030069998,800.4965030069998,800.4965030069998,802.5148242350006,802.5148242350006,802.5148242350006,802.5148242350006,,,,,,,,,,,,,,,,,,,,,,,,,,,,,,,,,,,,,,,10,007,2022-09-23_14h40.48.284,test2,2022.2.4,59.70252726238111,
0,0,0,0,125,0,125,0,802.5148242350006,802.5148242350006,802.5148242350006,802.5148242350006,802.5148242350006,802.5148242350006,802.5148242350006,1,1,azul,1,['N_B'],805.8347421710005,805.8347421710005,805.8347421710005,805.8347421710005,807.8537251859998,807.8537251859998,807.8537251859998,807.8537251859998,807.8537251859998,807.8537251859998,807.8537251859998,807.8537251859998,809.8728809840013,809.8728809840013,809.8728809840013,809.8728809840013,,,,,,,,,,,,,,,,,,,,,,,,,,,,,,,,,,,,,,,10,007,2022-09-23_14h40.48.284,test2,2022.2.4,59.70252726238111,
0,0,0,0,126,0,126,0,809.8728809840013,809.8728809840013,809.8728809840013,809.8728809840013,809.8728809840013,809.8728809840013,809.8728809840013,1,-1,azul,1,['N_B'],815.1126106310003,815.1126106310003,815.1126106310003,815.1126106310003,817.130291716001,817.130291716001,817.130291716001,817.130291716001,817.130291716001,817.130291716001,817.130291716001,817.130291716001,819.1489177610001,819.1489177610001,819.1489177610001,819.1489177610001,,,,,,,,,,,,,,,,,,,,,,,,,,,,,,,,,,,,,,,10,007,2022-09-23_14h40.48.284,test2,2022.2.4,59.70252726238111,
0,0,0,0,127,0,127,0,819.1489177610001,819.1489177610001,819.1489177610001,819.1489177610001,819.1489177610001,819.1489177610001,819.1489177610001,1,1,azul,1,['N_B'],820.900976551,820.900976551,820.900976551,820.900976551,822.9206426030014,822.9206426030014,822.9206426030014,822.9206426030014,822.9206426030014,822.9206426030014,822.9206426030014,822.9206426030014,824.9385703980006,824.9385703980006,824.9385703980006,824.9385703980006,,,,,,,,,,,,,,,,,,,,,,,,,,,,,,,,,,,,,,,10,007,2022-09-23_14h40.48.284,test2,2022.2.4,59.70252726238111,
0,0,0,0,128,0,128,0,824.9385703980006,824.9385703980006,824.9385703980006,824.9385703980006,824.9385703980006,824.9385703980006,824.9385703980006,-1,-1,rojo,1,['N_B'],826.7416763210003,826.7416763210003,826.7416763210003,826.7416763210003,828.7603817489999,828.7603817489999,828.7603817489999,828.7603817489999,828.7603817489999,828.7603817489999,828.7603817489999,828.7603817489999,830.7784342110008,830.7784342110008,830.7784342110008,830.7784342110008,,,,,,,,,,,,,,,,,,,,,,,,,,,,,,,,,,,,,,,10,007,2022-09-23_14h40.48.284,test2,2022.2.4,59.70252726238111,
0,0,0,0,129,0,129,0,830.7784342110008,830.7784342110008,830.7784342110008,830.7784342110008,830.7784342110008,830.7784342110008,830.7784342110008,1,1,azul,1,['N_B'],832.3973407250014,832.3973407250014,832.3973407250014,832.3973407250014,834.4177337850015,834.4177337850015,834.4177337850015,834.4177337850015,834.4177337850015,834.4177337850015,834.4177337850015,834.4177337850015,836.4352745690012,836.4352745690012,836.4352745690012,836.4352745690012,,,,,,,,,,,,,,,,,,,,,,,,,,,,,,,,,,,,,,,10,007,2022-09-23_14h40.48.284,test2,2022.2.4,59.70252726238111,
0,0,0,0,130,0,130,0,836.4352745690012,836.4352745690012,836.4352745690012,836.4352745690012,836.4352745690012,836.4352745690012,836.4352745690012,1,1,azul,1,['N_B'],838.170479243001,838.170479243001,838.170479243001,838.170479243001,840.1898956149998,840.1898956149998,840.1898956149998,840.1898956149998,840.1898956149998,840.1898956149998,840.1898956149998,840.1898956149998,842.2087522239999,842.2087522239999,842.2087522239999,842.2087522239999,,,,,,,,,,,,,,,,,,,,,,,,,,,,,,,,,,,,,,,10,007,2022-09-23_14h40.48.284,test2,2022.2.4,59.70252726238111,
0,0,0,0,131,0,131,0,842.2087522239999,842.2087522239999,842.2087522239999,842.2087522239999,842.2087522239999,842.2087522239999,842.2087522239999,1,1,azul,0,['N_A'],860.3615017419997,860.3615017419997,860.3615017419997,860.3615017419997,862.3814743029998,862.3814743029998,862.3814743029998,862.3814743029998,862.3814743029998,862.3814743029998,862.3814743029998,862.3814743029998,864.3991121770014,864.3991121770014,864.3991121770014,864.3991121770014,,,,,,,,,,,,,,,,,,,,,,,,,,,,,,,,,,,,,,,10,007,2022-09-23_14h40.48.284,test2,2022.2.4,59.70252726238111,
0,0,0,0,132,0,132,0,864.3991121770014,864.3991121770014,864.3991121770014,864.3991121770014,864.3991121770014,864.3991121770014,864.3991121770014,1,1,rojo,1,['N_A'],866.2180404930004,866.2180404930004,866.2180404930004,866.2180404930004,868.2378278249998,868.2378278249998,868.2378278249998,868.2378278249998,868.2378278249998,868.2378278249998,868.2378278249998,868.2378278249998,870.255649228,870.255649228,870.255649228,870.255649228,,,,,,,,,,,,,,,,,,,,,,,,,,,,,,,,,,,,,,,10,007,2022-09-23_14h40.48.284,test2,2022.2.4,59.70252726238111,
0,0,0,0,133,0,133,0,870.255649228,870.255649228,870.255649228,870.255649228,870.255649228,870.255649228,870.255649228,-1,1,azul,1,['N_A'],873.075711898,873.075711898,873.075711898,873.075711898,875.0951329130003,875.0951329130003,875.0951329130003,875.0951329130003,875.0951329130003,875.0951329130003,875.0951329130003,875.0951329130003,877.1135266150013,877.1135266150013,877.1135266150013,877.1135266150013,,,,,,,,,,,,,,,,,,,,,,,,,,,,,,,,,,,,,,,10,007,2022-09-23_14h40.48.284,test2,2022.2.4,59.70252726238111,
0,0,0,0,134,0,134,0,877.1135266150013,877.1135266150013,877.1135266150013,877.1135266150013,877.1135266150013,877.1135266150013,877.1135266150013,1,1,rojo,1,['N_A'],879.0150035810002,879.0150035810002,879.0150035810002,879.0150035810002,881.0345596170009,881.0345596170009,881.0345596170009,881.0345596170009,881.0345596170009,881.0345596170009,881.0345596170009,881.0345596170009,883.0526492400004,883.0526492400004,883.0526492400004,883.0526492400004,,,,,,,,,,,,,,,,,,,,,,,,,,,,,,,,,,,,,,,10,007,2022-09-23_14h40.48.284,test2,2022.2.4,59.70252726238111,
0,0,0,0,135,0,135,0,883.0526492400004,883.0526492400004,883.0526492400004,883.0526492400004,883.0526492400004,883.0526492400004,883.0526492400004,-1,1,azul,0,['N_B'],889.2765358600009,889.2765358600009,889.2765358600009,889.2765358600009,891.2953416290002,891.2953416290002,891.2953416290002,891.2953416290002,891.2953416290002,891.2953416290002,891.2953416290002,891.2953416290002,893.3144864149999,893.3144864149999,893.3144864149999,893.3144864149999,,,,,,,,,,,,,,,,,,,,,,,,,,,,,,,,,,,,,,,10,007,2022-09-23_14h40.48.284,test2,2022.2.4,59.70252726238111,
0,0,0,0,136,0,136,0,893.3144864149999,893.3144864149999,893.3144864149999,893.3144864149999,893.3144864149999,893.3144864149999,893.3144864149999,-1,-1,rojo,0,['N_A'],894.7997761570005,894.7997761570005,894.7997761570005,894.7997761570005,896.8191492920014,896.8191492920014,896.8191492920014,896.8191492920014,896.8191492920014,896.8191492920014,896.8191492920014,896.8191492920014,898.8369980940006,898.8369980940006,898.8369980940006,898.8369980940006,,,,,,,,,,,,,,,,,,,,,,,,,,,,,,,,,,,,,,,10,007,2022-09-23_14h40.48.284,test2,2022.2.4,59.70252726238111,
0,0,0,0,137,0,137,0,898.8369980940006,898.8369980940006,898.8369980940006,898.8369980940006,898.8369980940006,898.8369980940006,898.8369980940006,1,1,rojo,1,['N_A'],900.6897403270013,900.6897403270013,900.6897403270013,900.6897403270013,902.7084586960009,902.7084586960009,902.7084586960009,902.7084586960009,902.7084586960009,902.7084586960009,902.7084586960009,902.7084586960009,904.7268833400012,904.7268833400012,904.7268833400012,904.7268833400012,,,,,,,,,,,,,,,,,,,,,,,,,,,,,,,,,,,,,,,10,007,2022-09-23_14h40.48.284,test2,2022.2.4,59.70252726238111,
0,0,0,0,138,0,138,0,904.7268833400012,904.7268833400012,904.7268833400012,904.7268833400012,904.7268833400012,904.7268833400012,904.7268833400012,1,1,rojo,1,['N_A'],907.9142389320004,907.9142389320004,907.9142389320004,907.9142389320004,909.9326572730006,909.9326572730006,909.9326572730006,909.9326572730006,909.9326572730006,909.9326572730006,909.9326572730006,909.9326572730006,911.951502801001,911.951502801001,911.951502801001,911.951502801001,,,,,,,,,,,,,,,,,,,,,,,,,,,,,,,,,,,,,,,10,007,2022-09-23_14h40.48.284,test2,2022.2.4,59.70252726238111,
0,0,0,0,139,0,139,0,911.951502801001,911.951502801001,911.951502801001,911.951502801001,911.951502801001,911.951502801001,911.951502801001,1,-1,rojo,1,['N_A'],914.4874967520009,914.4874967520009,914.4874967520009,914.4874967520009,916.5241682040014,916.5241682040014,916.5241682040014,916.5241682040014,916.5241682040014,916.5241682040014,916.5241682040014,916.5241682040014,918.542090166,918.542090166,918.542090166,918.542090166,,,,,,,,,,,,,,,,,,,,,,,,,,,,,,,,,,,,,,,10,007,2022-09-23_14h40.48.284,test2,2022.2.4,59.70252726238111,
0,0,0,0,140,0,140,0,918.542090166,918.542090166,918.542090166,918.542090166,918.542090166,918.542090166,918.542090166,1,-1,rojo,0,['N_B'],920.2115918939999,920.2115918939999,920.2115918939999,920.2115918939999,922.2305187460006,922.2305187460006,922.2305187460006,922.2305187460006,922.2305187460006,922.2305187460006,922.2305187460006,922.2305187460006,924.2487755000002,924.2487755000002,924.2487755000002,924.2487755000002,,,,,,,,,,,,,,,,,,,,,,,,,,,,,,,,,,,,,,,10,007,2022-09-23_14h40.48.284,test2,2022.2.4,59.70252726238111,
0,0,0,0,141,0,141,0,924.2487755000002,924.2487755000002,924.2487755000002,924.2487755000002,924.2487755000002,924.2487755000002,924.2487755000002,1,1,azul,1,['N_B'],927.4353279850002,927.4353279850002,927.4353279850002,927.4353279850002,929.4553866790011,929.4553866790011,929.4553866790011,929.4553866790011,929.4553866790011,929.4553866790011,929.4553866790011,929.4553866790011,931.4732364299998,931.4732364299998,931.4732364299998,931.4732364299998,,,,,,,,,,,,,,,,,,,,,,,,,,,,,,,,,,,,,,,10,007,2022-09-23_14h40.48.284,test2,2022.2.4,59.70252726238111,
0,0,0,0,142,0,142,0,931.4732364299998,931.4732364299998,931.4732364299998,931.4732364299998,931.4732364299998,931.4732364299998,931.4732364299998,1,1,azul,1,['N_B'],934.0098226340015,934.0098226340015,934.0098226340015,934.0098226340015,936.0283244110014,936.0283244110014,936.0283244110014,936.0283244110014,936.0283244110014,936.0283244110014,936.0283244110014,936.0283244110014,938.0483531380014,938.0483531380014,938.0483531380014,938.0483531380014,,,,,,,,,,,,,,,,,,,,,,,,,,,,,,,,,,,,,,,10,007,2022-09-23_14h40.48.284,test2,2022.2.4,59.70252726238111,
0,0,0,0,143,0,143,0,938.0483531380014,938.0483531380014,938.0483531380014,938.0483531380014,938.0483531380014,938.0483531380014,938.0483531380014,1,1,azul,1,['N_B'],942.419011471,942.419011471,942.419011471,942.419011471,944.4384055300015,944.4384055300015,944.4384055300015,944.4384055300015,944.4384055300015,944.4384055300015,944.4384055300015,944.4384055300015,946.4570197930007,946.4570197930007,946.4570197930007,946.4570197930007,,,,,,,,,,,,,,,,,,,,,,,,,,,,,,,,,,,,,,,10,007,2022-09-23_14h40.48.284,test2,2022.2.4,59.70252726238111,
0,0,0,0,144,0,144,0,946.4570197930007,946.4570197930007,946.4570197930007,946.4570197930007,946.4570197930007,946.4570197930007,946.4570197930007,1,1,azul,1,['N_B'],947.9076888130003,947.9076888130003,947.9076888130003,947.9076888130003,949.9275089520015,949.9275089520015,949.9275089520015,949.9275089520015,949.9275089520015,949.9275089520015,949.9275089520015,949.9275089520015,951.946755678,951.946755678,951.946755678,951.946755678,,,,,,,,,,,,,,,,,,,,,,,,,,,,,,,,,,,,,,,10,007,2022-09-23_14h40.48.284,test2,2022.2.4,59.70252726238111,
0,0,0,0,145,0,145,0,951.946755678,951.946755678,951.946755678,951.946755678,951.946755678,951.946755678,951.946755678,1,1,azul,1,['N_B'],953.5637239670014,953.5637239670014,953.5637239670014,953.5637239670014,955.583386837001,955.583386837001,955.583386837001,955.583386837001,955.583386837001,955.583386837001,955.583386837001,955.583386837001,957.6021693260009,957.6021693260009,957.6021693260009,957.6021693260009,,,,,,,,,,,,,,,,,,,,,,,,,,,,,,,,,,,,,,,10,007,2022-09-23_14h40.48.284,test2,2022.2.4,59.70252726238111,
0,0,0,0,146,0,146,0,957.6021693260009,957.6021693260009,957.6021693260009,957.6021693260009,957.6021693260009,957.6021693260009,957.6021693260009,-1,1,rojo,1,['N_B'],960.6551788659999,960.6551788659999,960.6551788659999,960.6551788659999,962.6751874649999,962.6751874649999,962.6751874649999,962.6751874649999,962.6751874649999,962.6751874649999,962.6751874649999,962.6751874649999,964.6932327880004,964.6932327880004,964.6932327880004,964.6932327880004,,,,,,,,,,,,,,,,,,,,,,,,,,,,,,,,,,,,,,,10,007,2022-09-23_14h40.48.284,test2,2022.2.4,59.70252726238111,
0,0,0,0,147,0,147,0,964.6932327880004,964.6932327880004,964.6932327880004,964.6932327880004,964.6932327880004,964.6932327880004,964.6932327880004,1,1,azul,1,['N_B'],967.0121251380006,967.0121251380006,967.0121251380006,967.0121251380006,969.0324406050004,969.0324406050004,969.0324406050004,969.0324406050004,969.0324406050004,969.0324406050004,969.0324406050004,969.0324406050004,971.0504837429999,971.0504837429999,971.0504837429999,971.0504837429999,,,,,,,,,,,,,,,,,,,,,,,,,,,,,,,,,,,,,,,10,007,2022-09-23_14h40.48.284,test2,2022.2.4,59.70252726238111,
0,0,0,0,148,0,148,0,971.0504837429999,971.0504837429999,971.0504837429999,971.0504837429999,971.0504837429999,971.0504837429999,971.0504837429999,1,1,azul,1,['N_B'],974.6045066450006,974.6045066450006,974.6045066450006,974.6045066450006,976.623358492001,976.623358492001,976.623358492001,976.623358492001,976.623358492001,976.623358492001,976.623358492001,976.623358492001,978.6421406770005,978.6421406770005,978.6421406770005,978.6421406770005,,,,,,,,,,,,,,,,,,,,,,,,,,,,,,,,,,,,,,,10,007,2022-09-23_14h40.48.284,test2,2022.2.4,59.70252726238111,
0,0,0,0,149,0,149,0,978.6421406770005,978.6421406770005,978.6421406770005,978.6421406770005,978.6421406770005,978.6421406770005,978.6421406770005,-1,-1,rojo,1,['N_B'],982.3288890880012,982.3288890880012,982.3288890880012,982.3288890880012,984.3476957530002,984.3476957530002,984.3476957530002,984.3476957530002,984.3476957530002,984.3476957530002,984.3476957530002,984.3476957530002,986.3674172690007,986.3674172690007,986.3674172690007,986.3674172690007,,,,,,,,,,,,,,,,,,,,,,,,,,,,,,,,,,,,,,,10,007,2022-09-23_14h40.48.284,test2,2022.2.4,59.70252726238111,
0,0,0,0,150,0,150,0,986.3674172690007,986.3674172690007,986.3674172690007,986.3674172690007,986.3674172690007,986.3674172690007,986.3674172690007,1,1,azul,1,['N_B'],987.9519389900015,987.9519389900015,987.9519389900015,987.9519389900015,989.9718631760006,989.9718631760006,989.9718631760006,989.9718631760006,989.9718631760006,989.9718631760006,989.9718631760006,989.9718631760006,991.9895563250011,991.9895563250011,991.9895563250011,991.9895563250011,,,,,,,,,,,,,,,,,,,,,,,,,,,,,,,,,,,,,,,10,007,2022-09-23_14h40.48.284,test2,2022.2.4,59.70252726238111,
0,0,0,0,151,0,151,0,991.9895563250011,991.9895563250011,991.9895563250011,991.9895563250011,991.9895563250011,991.9895563250011,991.9895563250011,1,1,azul,1,['N_B'],993.5911858870004,993.5911858870004,993.5911858870004,993.5911858870004,995.6111013400005,995.6111013400005,995.6111013400005,995.6111013400005,995.6111013400005,995.6111013400005,995.6111013400005,995.6111013400005,997.630076675001,997.630076675001,997.630076675001,997.630076675001,,,,,,,,,,,,,,,,,,,,,,,,,,,,,,,,,,,,,,,10,007,2022-09-23_14h40.48.284,test2,2022.2.4,59.70252726238111,
0,0,0,0,152,0,152,0,997.630076675001,997.630076675001,997.630076675001,997.630076675001,997.630076675001,997.630076675001,997.630076675001,1,1,azul,1,['N_B'],999.1982635330005,999.1982635330005,999.1982635330005,999.1982635330005,1001.2177653600011,1001.2177653600011,1001.2177653600011,1001.2177653600011,1001.2177653600011,1001.2177653600011,1001.2177653600011,1001.2177653600011,1003.2361241760009,1003.2361241760009,1003.2361241760009,1003.2361241760009,,,,,,,,,,,,,,,,,,,,,,,,,,,,,,,,,,,,,,,10,007,2022-09-23_14h40.48.284,test2,2022.2.4,59.70252726238111,
0,0,0,0,153,0,153,0,1003.2361241760009,1003.2361241760009,1003.2361241760009,1003.2361241760009,1003.2361241760009,1003.2361241760009,1003.2361241760009,-1,1,rojo,1,['N_B'],1004.9041138709999,1004.9041138709999,1004.9041138709999,1004.9041138709999,1006.9240741400008,1006.9240741400008,1006.9240741400008,1006.9240741400008,1006.9240741400008,1006.9240741400008,1006.9240741400008,1006.9240741400008,1008.9416573380004,1008.9416573380004,1008.9416573380004,1008.9416573380004,,,,,,,,,,,,,,,,,,,,,,,,,,,,,,,,,,,,,,,10,007,2022-09-23_14h40.48.284,test2,2022.2.4,59.70252726238111,
0,0,0,0,154,0,154,0,1008.9416573380004,1008.9416573380004,1008.9416573380004,1008.9416573380004,1008.9416573380004,1008.9416573380004,1008.9416573380004,-1,1,rojo,1,['N_B'],1011.7117979480008,1011.7117979480008,1011.7117979480008,1011.7117979480008,1013.7313761960013,1013.7313761960013,1013.7313761960013,1013.7313761960013,1013.7313761960013,1013.7313761960013,1013.7313761960013,1013.7313761960013,1015.749535854,1015.749535854,1015.749535854,1015.749535854,,,,,,,,,,,,,,,,,,,,,,,,,,,,,,,,,,,,,,,10,007,2022-09-23_14h40.48.284,test2,2022.2.4,59.70252726238111,
0,0,0,0,155,0,155,0,1015.749535854,1015.749535854,1015.749535854,1015.749535854,1015.749535854,1015.749535854,1015.749535854,-1,1,rojo,1,['N_B'],1017.1673139510003,1017.1673139510003,1017.1673139510003,1017.1673139510003,1019.1873878990009,1019.1873878990009,1019.1873878990009,1019.1873878990009,1019.1873878990009,1019.1873878990009,1019.1873878990009,1019.1873878990009,1021.2050677110001,1021.2050677110001,1021.2050677110001,1021.2050677110001,,,,,,,,,,,,,,,,,,,,,,,,,,,,,,,,,,,,,,,10,007,2022-09-23_14h40.48.284,test2,2022.2.4,59.70252726238111,
0,0,0,0,156,0,156,0,1021.2050677110001,1021.2050677110001,1021.2050677110001,1021.2050677110001,1021.2050677110001,1021.2050677110001,1021.2050677110001,-1,1,rojo,1,['N_B'],1026.7119151650004,1026.7119151650004,1026.7119151650004,1026.7119151650004,1028.7314798880016,1028.7314798880016,1028.7314798880016,1028.7314798880016,1028.7314798880016,1028.7314798880016,1028.7314798880016,1028.7314798880016,1030.7492168750014,1030.7492168750014,1030.7492168750014,1030.7492168750014,,,,,,,,,,,,,,,,,,,,,,,,,,,,,,,,,,,,,,,10,007,2022-09-23_14h40.48.284,test2,2022.2.4,59.70252726238111,
0,0,0,0,157,0,157,0,1030.7492168750014,1030.7492168750014,1030.7492168750014,1030.7492168750014,1030.7492168750014,1030.7492168750014,1030.7492168750014,1,1,azul,1,['N_B'],1039.5259540280003,1039.5259540280003,1039.5259540280003,1039.5259540280003,1041.5450218100013,1041.5450218100013,1041.5450218100013,1041.5450218100013,1041.5450218100013,1041.5450218100013,1041.5450218100013,1041.5450218100013,1043.5632626590013,1043.5632626590013,1043.5632626590013,1043.5632626590013,,,,,,,,,,,,,,,,,,,,,,,,,,,,,,,,,,,,,,,10,007,2022-09-23_14h40.48.284,test2,2022.2.4,59.70252726238111,
0,0,0,0,158,0,158,0,1043.5632626590013,1043.5632626590013,1043.5632626590013,1043.5632626590013,1043.5632626590013,1043.5632626590013,1043.5632626590013,1,1,azul,1,['N_B'],1045.298700671001,1045.298700671001,1045.298700671001,1045.298700671001,1047.3187372400007,1047.3187372400007,1047.3187372400007,1047.3187372400007,1047.3187372400007,1047.3187372400007,1047.3187372400007,1047.3187372400007,1049.335980492,1049.335980492,1049.335980492,1049.335980492,,,,,,,,,,,,,,,,,,,,,,,,,,,,,,,,,,,,,,,10,007,2022-09-23_14h40.48.284,test2,2022.2.4,59.70252726238111,
0,0,0,0,159,0,159,0,1049.335980492,1049.335980492,1049.335980492,1049.335980492,1049.335980492,1049.335980492,1049.335980492,1,1,azul,1,['N_B'],1050.7875937509998,1050.7875937509998,1050.7875937509998,1050.7875937509998,1052.807438668,1052.807438668,1052.807438668,1052.807438668,1052.807438668,1052.807438668,1052.807438668,1052.807438668,1054.825649581,1054.825649581,1054.825649581,1054.825649581,,,,,,,,,,,,,,,,,,,,,,,,,,,,,,,,,,,,,,,10,007,2022-09-23_14h40.48.284,test2,2022.2.4,59.70252726238111,
0,0,0,0,160,0,160,0,1054.825649581,1054.825649581,1054.825649581,1054.825649581,1054.825649581,1054.825649581,1054.825649581,-1,-1,rojo,1,['N_B'],1056.4950456470015,1056.4950456470015,1056.4950456470015,1056.4950456470015,1058.5128165660008,1058.5128165660008,1058.5128165660008,1058.5128165660008,1058.5128165660008,1058.5128165660008,1058.5128165660008,1058.5128165660008,1060.5327713750012,1060.5327713750012,1060.5327713750012,1060.5327713750012,,,,,,,,,,,,,,,,,,,,,,,,,,,,,,,,,,,,,,,10,007,2022-09-23_14h40.48.284,test2,2022.2.4,59.70252726238111,
0,0,0,0,161,0,161,0,1060.5327713750012,1060.5327713750012,1060.5327713750012,1060.5327713750012,1060.5327713750012,1060.5327713750012,1060.5327713750012,-1,1,rojo,1,['N_B'],1062.3841643750002,1062.3841643750002,1062.3841643750002,1062.3841643750002,1064.4044943870013,1064.4044943870013,1064.4044943870013,1064.4044943870013,1064.4044943870013,1064.4044943870013,1064.4044943870013,1064.4044943870013,1066.4219284320006,1066.4219284320006,1066.4219284320006,1066.4219284320006,,,,,,,,,,,,,,,,,,,,,,,,,,,,,,,,,,,,,,,10,007,2022-09-23_14h40.48.284,test2,2022.2.4,59.70252726238111,
0,0,0,0,162,0,162,0,1066.4219284320006,1066.4219284320006,1066.4219284320006,1066.4219284320006,1066.4219284320006,1066.4219284320006,1066.4219284320006,1,1,azul,1,['N_B'],1068.1240128139998,1068.1240128139998,1068.1240128139998,1068.1240128139998,1070.1433008190015,1070.1433008190015,1070.1433008190015,1070.1433008190015,1070.1433008190015,1070.1433008190015,1070.1433008190015,1070.1433008190015,1072.1619389570005,1072.1619389570005,1072.1619389570005,1072.1619389570005,,,,,,,,,,,,,,,,,,,,,,,,,,,,,,,,,,,,,,,10,007,2022-09-23_14h40.48.284,test2,2022.2.4,59.70252726238111,
0,0,0,0,163,0,163,0,1072.1619389570005,1072.1619389570005,1072.1619389570005,1072.1619389570005,1072.1619389570005,1072.1619389570005,1072.1619389570005,1,1,azul,1,['N_B'],1075.515000872001,1075.515000872001,1075.515000872001,1075.515000872001,1077.5348951860014,1077.5348951860014,1077.5348951860014,1077.5348951860014,1077.5348951860014,1077.5348951860014,1077.5348951860014,1077.5348951860014,1079.5536562840007,1079.5536562840007,1079.5536562840007,1079.5536562840007,,,,,,,,,,,,,,,,,,,,,,,,,,,,,,,,,,,,,,,10,007,2022-09-23_14h40.48.284,test2,2022.2.4,59.70252726238111,
0,0,0,0,164,0,164,0,1079.5536562840007,1079.5536562840007,1079.5536562840007,1079.5536562840007,1079.5536562840007,1079.5536562840007,1079.5536562840007,-1,1,rojo,1,['N_B'],1083.3237981680013,1083.3237981680013,1083.3237981680013,1083.3237981680013,1085.3431784680015,1085.3431784680015,1085.3431784680015,1085.3431784680015,1085.3431784680015,1085.3431784680015,1085.3431784680015,1085.3431784680015,1087.3616018840003,1087.3616018840003,1087.3616018840003,1087.3616018840003,,,,,,,,,,,,,,,,,,,,,,,,,,,,,,,,,,,,,,,10,007,2022-09-23_14h40.48.284,test2,2022.2.4,59.70252726238111,
0,0,0,0,165,0,165,0,1087.3616018840003,1087.3616018840003,1087.3616018840003,1087.3616018840003,1087.3616018840003,1087.3616018840003,1087.3616018840003,1,1,azul,1,['N_B'],1090.848489592001,1090.848489592001,1090.848489592001,1090.848489592001,1092.8678339320013,1092.8678339320013,1092.8678339320013,1092.8678339320013,1092.8678339320013,1092.8678339320013,1092.8678339320013,1092.8678339320013,1094.8870562600005,1094.8870562600005,1094.8870562600005,1094.8870562600005,,,,,,,,,,,,,,,,,,,,,,,,,,,,,,,,,,,,,,,10,007,2022-09-23_14h40.48.284,test2,2022.2.4,59.70252726238111,
0,0,0,0,166,0,166,0,1094.8870562600005,1094.8870562600005,1094.8870562600005,1094.8870562600005,1094.8870562600005,1094.8870562600005,1094.8870562600005,-1,1,rojo,1,['N_B'],1096.8053192240004,1096.8053192240004,1096.8053192240004,1096.8053192240004,1098.8258476299998,1098.8258476299998,1098.8258476299998,1098.8258476299998,1098.8258476299998,1098.8258476299998,1098.8258476299998,1098.8258476299998,1100.8429541160003,1100.8429541160003,1100.8429541160003,1100.8429541160003,,,,,,,,,,,,,,,,,,,,,,,,,,,,,,,,,,,,,,,10,007,2022-09-23_14h40.48.284,test2,2022.2.4,59.70252726238111,
0,0,0,0,167,0,167,0,1100.8429541160003,1100.8429541160003,1100.8429541160003,1100.8429541160003,1100.8429541160003,1100.8429541160003,1100.8429541160003,1,1,azul,0,['N_A'],1104.4302640370006,1104.4302640370006,1104.4302640370006,1104.4302640370006,1106.4498809320012,1106.4498809320012,1106.4498809320012,1106.4498809320012,1106.4498809320012,1106.4498809320012,1106.4498809320012,1106.4498809320012,1108.4695632950006,1108.4695632950006,1108.4695632950006,1108.4695632950006,,,,,,,,,,,,,,,,,,,,,,,,,,,,,,,,,,,,,,,10,007,2022-09-23_14h40.48.284,test2,2022.2.4,59.70252726238111,
0,0,0,0,168,0,168,0,1108.4695632950006,1108.4695632950006,1108.4695632950006,1108.4695632950006,1108.4695632950006,1108.4695632950006,1108.4695632950006,1,1,rojo,1,['N_A'],1110.3367136640009,1110.3367136640009,1110.3367136640009,1110.3367136640009,1112.3565751240003,1112.3565751240003,1112.3565751240003,1112.3565751240003,1112.3565751240003,1112.3565751240003,1112.3565751240003,1112.3565751240003,1114.3743613240003,1114.3743613240003,1114.3743613240003,1114.3743613240003,,,,,,,,,,,,,,,,,,,,,,,,,,,,,,,,,,,,,,,10,007,2022-09-23_14h40.48.284,test2,2022.2.4,59.70252726238111,
0,0,0,0,169,0,169,0,1114.3743613240003,1114.3743613240003,1114.3743613240003,1114.3743613240003,1114.3743613240003,1114.3743613240003,1114.3743613240003,-1,1,azul,1,['N_A'],1116.493796009001,1116.493796009001,1116.493796009001,1116.493796009001,1118.5125083210005,1118.5125083210005,1118.5125083210005,1118.5125083210005,1118.5125083210005,1118.5125083210005,1118.5125083210005,1118.5125083210005,1120.531555175001,1120.531555175001,1120.531555175001,1120.531555175001,,,,,,,,,,,,,,,,,,,,,,,,,,,,,,,,,,,,,,,10,007,2022-09-23_14h40.48.284,test2,2022.2.4,59.70252726238111,
0,0,0,0,170,0,170,0,1120.531555175001,1120.531555175001,1120.531555175001,1120.531555175001,1120.531555175001,1120.531555175001,1120.531555175001,1,-1,rojo,0,['N_B'],1121.9331555240005,1121.9331555240005,1121.9331555240005,1121.9331555240005,1123.9528431090002,1123.9528431090002,1123.9528431090002,1123.9528431090002,1123.9528431090002,1123.9528431090002,1123.9528431090002,1123.9528431090002,1125.9715748220005,1125.9715748220005,1125.9715748220005,1125.9715748220005,,,,,,,,,,,,,,,,,,,,,,,,,,,,,,,,,,,,,,,10,007,2022-09-23_14h40.48.284,test2,2022.2.4,59.70252726238111,
0,0,0,0,171,0,171,0,1125.9715748220005,1125.9715748220005,1125.9715748220005,1125.9715748220005,1125.9715748220005,1125.9715748220005,1125.9715748220005,-1,1,rojo,1,['N_B'],1142.2222699860013,1142.2222699860013,1142.2222699860013,1142.2222699860013,1144.241998906,1144.241998906,1144.241998906,1144.241998906,1144.241998906,1144.241998906,1144.241998906,1144.241998906,1146.2611079300004,1146.2611079300004,1146.2611079300004,1146.2611079300004,,,,,,,,,,,,,,,,,,,,,,,,,,,,,,,,,,,,,,,10,007,2022-09-23_14h40.48.284,test2,2022.2.4,59.70252726238111,
0,0,0,0,172,0,172,0,1146.2611079300004,1146.2611079300004,1146.2611079300004,1146.2611079300004,1146.2611079300004,1146.2611079300004,1146.2611079300004,1,1,azul,0,['N_A'],1151.8661340870003,1151.8661340870003,1151.8661340870003,1151.8661340870003,1153.8862843880015,1153.8862843880015,1153.8862843880015,1153.8862843880015,1153.8862843880015,1153.8862843880015,1153.8862843880015,1153.8862843880015,1155.9040236830006,1155.9040236830006,1155.9040236830006,1155.9040236830006,,,,,,,,,,,,,,,,,,,,,,,,,,,,,,,,,,,,,,,10,007,2022-09-23_14h40.48.284,test2,2022.2.4,59.70252726238111,
0,0,0,0,173,0,173,0,1155.9040236830006,1155.9040236830006,1155.9040236830006,1155.9040236830006,1155.9040236830006,1155.9040236830006,1155.9040236830006,-1,1,azul,1,['N_A'],1159.641526323001,1159.641526323001,1159.641526323001,1159.641526323001,1161.661126039,1161.661126039,1161.661126039,1161.661126039,1161.661126039,1161.661126039,1161.661126039,1161.661126039,1163.6792955180008,1163.6792955180008,1163.6792955180008,1163.6792955180008,,,,,,,,,,,,,,,,,,,,,,,,,,,,,,,,,,,,,,,10,007,2022-09-23_14h40.48.284,test2,2022.2.4,59.70252726238111,
0,0,0,0,174,0,174,0,1163.6792955180008,1163.6792955180008,1163.6792955180008,1163.6792955180008,1163.6792955180008,1163.6792955180008,1163.6792955180008,-1,1,azul,1,['N_A'],1165.6827562510007,1165.6827562510007,1165.6827562510007,1165.6827562510007,1167.70121302,1167.70121302,1167.70121302,1167.70121302,1167.70121302,1167.70121302,1167.70121302,1167.70121302,1169.719399136,1169.719399136,1169.719399136,1169.719399136,,,,,,,,,,,,,,,,,,,,,,,,,,,,,,,,,,,,,,,10,007,2022-09-23_14h40.48.284,test2,2022.2.4,59.70252726238111,
0,0,0,0,175,0,175,0,1169.719399136,1169.719399136,1169.719399136,1169.719399136,1169.719399136,1169.719399136,1169.719399136,-1,1,azul,1,['N_A'],1171.5881015100003,1171.5881015100003,1171.5881015100003,1171.5881015100003,1173.608191071,1173.608191071,1173.608191071,1173.608191071,1173.608191071,1173.608191071,1173.608191071,1173.608191071,1175.6262552180015,1175.6262552180015,1175.6262552180015,1175.6262552180015,,,,,,,,,,,,,,,,,,,,,,,,,,,,,,,,,,,,,,,10,007,2022-09-23_14h40.48.284,test2,2022.2.4,59.70252726238111,
0,0,0,0,176,0,176,0,1175.6262552180015,1175.6262552180015,1175.6262552180015,1175.6262552180015,1175.6262552180015,1175.6262552180015,1175.6262552180015,-1,1,azul,1,['N_A'],1177.1938241940006,1177.1938241940006,1177.1938241940006,1177.1938241940006,1179.2136154180007,1179.2136154180007,1179.2136154180007,1179.2136154180007,1179.2136154180007,1179.2136154180007,1179.2136154180007,1179.2136154180007,1181.2325495450004,1181.2325495450004,1181.2325495450004,1181.2325495450004,,,,,,,,,,,,,,,,,,,,,,,,,,,,,,,,,,,,,,,10,007,2022-09-23_14h40.48.284,test2,2022.2.4,59.70252726238111,
