trials_2.thisRepN,trials_2.thisTrialN,trials_2.thisN,trials_2.thisIndex,trials.thisRepN,trials.thisTrialN,trials.thisN,trials.thisIndex,Instrucción2.started,N_A_4.started,N_B_4.started,Exitos_3.started,Dias_3.started,Stimuli_1.started,Stimuli_2.started,Transitions,Rewards,Mode,Stay,Neighbour,Stimuli_3.started,Modo.started,Dias2.started,Exitos2.started,Stimuli_3.stopped,Modo.stopped,Dias2.stopped,Exitos2.stopped,Reward.started,Stimuli_reward.started,Exitos3.started,Dias3.started,Reward.stopped,Stimuli_reward.stopped,Exitos3.stopped,Dias3.stopped,Cue_text.started,Stimuli_4.started,Exitos4.started,Dias4.started,Stimuli_3_3.started,Stimuli_2_3.started,Instrucción.started,N_A.started,N_B.started,N_C.started,Exitos_2.started,Dias_2.started,Stimuli_1_3.started,Stimuli_3_2.started,Stimuli_2_2.started,Pregunta.started,N_A_2.started,N_B_2.started,N_C_2.started,Exitos5.started,Dias5.started,Stimuli_1_2.started,Resp_final_1,Modo2.started,Modo1.started,Pregunta_4.started,Modo3.started,Exitos7.started,Dias6.started,Resp_final_2,Modo1_2.started,Pregunta_3.started,Modo2_2.started,Exitos8.started,Dias7.started,Resp_final_3,Mensaje_Final2.started,Exitos6.started,participant,session,date,expName,psychopyVersion,frameRate,
0,0,0,0,0,0,0,0,25.624296142003004,25.624296142003004,25.624296142003004,25.624296142003004,25.624296142003004,25.624296142003004,25.624296142003004,0,0,0,0,['N_A'],33.315612469999905,33.315612469999905,33.315612469999905,33.315612469999905,35.35034269100288,35.35034269100288,35.35034269100288,35.35034269100288,35.35034269100288,35.35034269100288,35.35034269100288,35.35034269100288,37.386635440001555,37.386635440001555,37.386635440001555,37.386635440001555,,,,,,,,,,,,,,,,,,,,,,,,,,,,,,,,,,,,,,,12,007,2022-09-23_15h46.17.823,test2,2022.2.4,60.40252715182012,
0,0,0,0,1,0,1,0,37.386635440001555,37.386635440001555,37.386635440001555,37.386635440001555,37.386635440001555,37.386635440001555,37.386635440001555,1,-1,rojo,1,['N_A'],42.742886771000485,42.742886771000485,42.742886771000485,42.742886771000485,44.7780393130015,44.7780393130015,44.7780393130015,44.7780393130015,44.7780393130015,44.7780393130015,44.7780393130015,44.7780393130015,46.81334259600044,46.81334259600044,46.81334259600044,46.81334259600044,,,,,,,,,,,,,,,,,,,,,,,,,,,,,,,,,,,,,,,12,007,2022-09-23_15h46.17.823,test2,2022.2.4,60.40252715182012,
0,0,0,0,2,0,2,0,46.81334259600044,46.81334259600044,46.81334259600044,46.81334259600044,46.81334259600044,46.81334259600044,46.81334259600044,1,-1,rojo,0,['N_B'],51.03476613500243,51.03476613500243,51.03476613500243,51.03476613500243,53.069833483001275,53.069833483001275,53.069833483001275,53.069833483001275,53.069833483001275,53.069833483001275,53.069833483001275,53.069833483001275,55.106159331000526,55.106159331000526,55.106159331000526,55.106159331000526,,,,,,,,,,,,,,,,,,,,,,,,,,,,,,,,,,,,,,,12,007,2022-09-23_15h46.17.823,test2,2022.2.4,60.40252715182012,
0,0,0,0,3,0,3,0,55.106159331000526,55.106159331000526,55.106159331000526,55.106159331000526,55.106159331000526,55.106159331000526,55.106159331000526,1,-1,azul,1,['N_B'],58.460436825000215,58.460436825000215,58.460436825000215,58.460436825000215,60.49595645400041,60.49595645400041,60.49595645400041,60.49595645400041,60.49595645400041,60.49595645400041,60.49595645400041,60.49595645400041,62.53076871000303,62.53076871000303,62.53076871000303,62.53076871000303,,,,,,,,,,,,,,,,,,,,,,,,,,,,,,,,,,,,,,,12,007,2022-09-23_15h46.17.823,test2,2022.2.4,60.40252715182012,
0,0,0,0,4,0,4,0,62.53076871000303,62.53076871000303,62.53076871000303,62.53076871000303,62.53076871000303,62.53076871000303,62.53076871000303,-1,-1,rojo,0,['N_A'],65.26796862900301,65.26796862900301,65.26796862900301,65.26796862900301,67.30337082100232,67.30337082100232,67.30337082100232,67.30337082100232,67.30337082100232,67.30337082100232,67.30337082100232,67.30337082100232,69.3379778210001,69.3379778210001,69.3379778210001,69.3379778210001,,,,,,,,,,,,,,,,,,,,,,,,,,,,,,,,,,,,,,,12,007,2022-09-23_15h46.17.823,test2,2022.2.4,60.40252715182012,
0,0,0,0,5,0,5,0,69.3379778210001,69.3379778210001,69.3379778210001,69.3379778210001,69.3379778210001,69.3379778210001,69.3379778210001,1,-1,rojo,1,['N_A'],71.3579802460008,71.3579802460008,71.3579802460008,71.3579802460008,73.39260420800201,73.39260420800201,73.39260420800201,73.39260420800201,73.39260420800201,73.39260420800201,73.39260420800201,73.39260420800201,75.4281988890034,75.4281988890034,75.4281988890034,75.4281988890034,,,,,,,,,,,,,,,,,,,,,,,,,,,,,,,,,,,,,,,12,007,2022-09-23_15h46.17.823,test2,2022.2.4,60.40252715182012,
0,0,0,0,6,0,6,0,75.4281988890034,75.4281988890034,75.4281988890034,75.4281988890034,75.4281988890034,75.4281988890034,75.4281988890034,1,1,rojo,1,['N_A'],77.21432726400235,77.21432726400235,77.21432726400235,77.21432726400235,79.24928317800004,79.24928317800004,79.24928317800004,79.24928317800004,79.24928317800004,79.24928317800004,79.24928317800004,79.24928317800004,81.28487327000039,81.28487327000039,81.28487327000039,81.28487327000039,,,,,,,,,,,,,,,,,,,,,,,,,,,,,,,,,,,,,,,12,007,2022-09-23_15h46.17.823,test2,2022.2.4,60.40252715182012,
0,0,0,0,7,0,7,0,81.28487327000039,81.28487327000039,81.28487327000039,81.28487327000039,81.28487327000039,81.28487327000039,81.28487327000039,-1,-1,azul,1,['N_A'],83.22092730400254,83.22092730400254,83.22092730400254,83.22092730400254,85.25648591400022,85.25648591400022,85.25648591400022,85.25648591400022,85.25648591400022,85.25648591400022,85.25648591400022,85.25648591400022,87.29176693400223,87.29176693400223,87.29176693400223,87.29176693400223,,,,,,,,,,,,,,,,,,,,,,,,,,,,,,,,,,,,,,,12,007,2022-09-23_15h46.17.823,test2,2022.2.4,60.40252715182012,
0,0,0,0,8,0,8,0,87.29176693400223,87.29176693400223,87.29176693400223,87.29176693400223,87.29176693400223,87.29176693400223,87.29176693400223,1,1,rojo,0,['N_B'],90.8623887270005,90.8623887270005,90.8623887270005,90.8623887270005,92.88171699700251,92.88171699700251,92.88171699700251,92.88171699700251,92.88171699700251,92.88171699700251,92.88171699700251,92.88171699700251,94.91681942800278,94.91681942800278,94.91681942800278,94.91681942800278,,,,,,,,,,,,,,,,,,,,,,,,,,,,,,,,,,,,,,,12,007,2022-09-23_15h46.17.823,test2,2022.2.4,60.40252715182012,
0,0,0,0,9,0,9,0,94.91681942800278,94.91681942800278,94.91681942800278,94.91681942800278,94.91681942800278,94.91681942800278,94.91681942800278,-1,1,rojo,1,['N_B'],96.60221491300035,96.60221491300035,96.60221491300035,96.60221491300035,98.6210994480025,98.6210994480025,98.6210994480025,98.6210994480025,98.6210994480025,98.6210994480025,98.6210994480025,98.6210994480025,100.65684414400312,100.65684414400312,100.65684414400312,100.65684414400312,,,,,,,,,,,,,,,,,,,,,,,,,,,,,,,,,,,,,,,12,007,2022-09-23_15h46.17.823,test2,2022.2.4,60.40252715182012,
0,0,0,0,10,0,10,0,100.65684414400312,100.65684414400312,100.65684414400312,100.65684414400312,100.65684414400312,100.65684414400312,100.65684414400312,-1,1,rojo,0,['N_A'],106.14587637300065,106.14587637300065,106.14587637300065,106.14587637300065,108.1644183540011,108.1644183540011,108.1644183540011,108.1644183540011,108.1644183540011,108.1644183540011,108.1644183540011,108.1644183540011,110.20014259300297,110.20014259300297,110.20014259300297,110.20014259300297,,,,,,,,,,,,,,,,,,,,,,,,,,,,,,,,,,,,,,,12,007,2022-09-23_15h46.17.823,test2,2022.2.4,60.40252715182012,
0,0,0,0,11,0,11,0,110.20014259300297,110.20014259300297,110.20014259300297,110.20014259300297,110.20014259300297,110.20014259300297,110.20014259300297,1,1,rojo,1,['N_A'],113.48770796000099,113.48770796000099,113.48770796000099,113.48770796000099,115.50689746100034,115.50689746100034,115.50689746100034,115.50689746100034,115.50689746100034,115.50689746100034,115.50689746100034,115.50689746100034,117.54137597100271,117.54137597100271,117.54137597100271,117.54137597100271,,,,,,,,,,,,,,,,,,,,,,,,,,,,,,,,,,,,,,,12,007,2022-09-23_15h46.17.823,test2,2022.2.4,60.40252715182012,
0,0,0,0,12,0,12,0,117.54137597100271,117.54137597100271,117.54137597100271,117.54137597100271,117.54137597100271,117.54137597100271,117.54137597100271,-1,1,azul,0,['N_B'],120.62892024400207,120.62892024400207,120.62892024400207,120.62892024400207,122.6461036460023,122.6461036460023,122.6461036460023,122.6461036460023,122.6461036460023,122.6461036460023,122.6461036460023,122.6461036460023,124.68280799700005,124.68280799700005,124.68280799700005,124.68280799700005,,,,,,,,,,,,,,,,,,,,,,,,,,,,,,,,,,,,,,,12,007,2022-09-23_15h46.17.823,test2,2022.2.4,60.40252715182012,
0,0,0,0,13,0,13,0,124.68280799700005,124.68280799700005,124.68280799700005,124.68280799700005,124.68280799700005,124.68280799700005,124.68280799700005,1,1,azul,0,['N_A'],128.9206772130019,128.9206772130019,128.9206772130019,128.9206772130019,130.95714223100003,130.95714223100003,130.95714223100003,130.95714223100003,130.95714223100003,130.95714223100003,130.95714223100003,130.95714223100003,132.99209282100128,132.99209282100128,132.99209282100128,132.99209282100128,,,,,,,,,,,,,,,,,,,,,,,,,,,,,,,,,,,,,,,12,007,2022-09-23_15h46.17.823,test2,2022.2.4,60.40252715182012,
0,0,0,0,14,0,14,0,132.99209282100128,132.99209282100128,132.99209282100128,132.99209282100128,132.99209282100128,132.99209282100128,132.99209282100128,1,-1,rojo,0,['N_B'],135.31109428200216,135.31109428200216,135.31109428200216,135.31109428200216,137.34605968300093,137.34605968300093,137.34605968300093,137.34605968300093,137.34605968300093,137.34605968300093,137.34605968300093,137.34605968300093,139.3823992650032,139.3823992650032,139.3823992650032,139.3823992650032,,,,,,,,,,,,,,,,,,,,,,,,,,,,,,,,,,,,,,,12,007,2022-09-23_15h46.17.823,test2,2022.2.4,60.40252715182012,
0,0,0,0,15,0,15,0,139.3823992650032,139.3823992650032,139.3823992650032,139.3823992650032,139.3823992650032,139.3823992650032,139.3823992650032,1,-1,azul,1,['N_B'],141.05077221700049,141.05077221700049,141.05077221700049,141.05077221700049,143.08722721700178,143.08722721700178,143.08722721700178,143.08722721700178,143.08722721700178,143.08722721700178,143.08722721700178,143.08722721700178,145.12223061199984,145.12223061199984,145.12223061199984,145.12223061199984,,,,,,,,,,,,,,,,,,,,,,,,,,,,,,,,,,,,,,,12,007,2022-09-23_15h46.17.823,test2,2022.2.4,60.40252715182012,
0,0,0,0,16,0,16,0,145.12223061199984,145.12223061199984,145.12223061199984,145.12223061199984,145.12223061199984,145.12223061199984,145.12223061199984,-1,-1,rojo,1,['N_B'],146.54101241900207,146.54101241900207,146.54101241900207,146.54101241900207,148.57605267700274,148.57605267700274,148.57605267700274,148.57605267700274,148.57605267700274,148.57605267700274,148.57605267700274,148.57605267700274,150.61162167100338,150.61162167100338,150.61162167100338,150.61162167100338,,,,,,,,,,,,,,,,,,,,,,,,,,,,,,,,,,,,,,,12,007,2022-09-23_15h46.17.823,test2,2022.2.4,60.40252715182012,
0,0,0,0,17,0,17,0,150.61162167100338,150.61162167100338,150.61162167100338,150.61162167100338,150.61162167100338,150.61162167100338,150.61162167100338,1,1,azul,1,['N_B'],152.4298519010008,152.4298519010008,152.4298519010008,152.4298519010008,154.46546298900284,154.46546298900284,154.46546298900284,154.46546298900284,154.46546298900284,154.46546298900284,154.46546298900284,154.46546298900284,156.50114538100024,156.50114538100024,156.50114538100024,156.50114538100024,,,,,,,,,,,,,,,,,,,,,,,,,,,,,,,,,,,,,,,12,007,2022-09-23_15h46.17.823,test2,2022.2.4,60.40252715182012,
0,0,0,0,18,0,18,0,156.50114538100024,156.50114538100024,156.50114538100024,156.50114538100024,156.50114538100024,156.50114538100024,156.50114538100024,-1,-1,rojo,1,['N_B'],158.45323520300008,158.45323520300008,158.45323520300008,158.45323520300008,160.48984086700148,160.48984086700148,160.48984086700148,160.48984086700148,160.48984086700148,160.48984086700148,160.48984086700148,160.48984086700148,162.52499554600217,162.52499554600217,162.52499554600217,162.52499554600217,,,,,,,,,,,,,,,,,,,,,,,,,,,,,,,,,,,,,,,12,007,2022-09-23_15h46.17.823,test2,2022.2.4,60.40252715182012,
0,0,0,0,19,0,19,0,162.52499554600217,162.52499554600217,162.52499554600217,162.52499554600217,162.52499554600217,162.52499554600217,162.52499554600217,1,-1,azul,0,['N_A'],164.81037493300028,164.81037493300028,164.81037493300028,164.81037493300028,166.84577656500187,166.84577656500187,166.84577656500187,166.84577656500187,166.84577656500187,166.84577656500187,166.84577656500187,166.84577656500187,168.8814460320027,168.8814460320027,168.8814460320027,168.8814460320027,,,,,,,,,,,,,,,,,,,,,,,,,,,,,,,,,,,,,,,12,007,2022-09-23_15h46.17.823,test2,2022.2.4,60.40252715182012,
0,0,0,0,20,0,20,0,168.8814460320027,168.8814460320027,168.8814460320027,168.8814460320027,168.8814460320027,168.8814460320027,168.8814460320027,1,-1,rojo,1,['N_A'],170.91755828900205,170.91755828900205,170.91755828900205,170.91755828900205,172.95350100500218,172.95350100500218,172.95350100500218,172.95350100500218,172.95350100500218,172.95350100500218,172.95350100500218,172.95350100500218,174.98800670000128,174.98800670000128,174.98800670000128,174.98800670000128,,,,,,,,,,,,,,,,,,,,,,,,,,,,,,,,,,,,,,,12,007,2022-09-23_15h46.17.823,test2,2022.2.4,60.40252715182012,
0,0,0,0,21,0,21,0,174.98800670000128,174.98800670000128,174.98800670000128,174.98800670000128,174.98800670000128,174.98800670000128,174.98800670000128,1,-1,rojo,1,['N_A'],176.50622900600138,176.50622900600138,176.50622900600138,176.50622900600138,178.54234404599993,178.54234404599993,178.54234404599993,178.54234404599993,178.54234404599993,178.54234404599993,178.54234404599993,178.54234404599993,180.57751345900033,180.57751345900033,180.57751345900033,180.57751345900033,,,,,,,,,,,,,,,,,,,,,,,,,,,,,,,,,,,,,,,12,007,2022-09-23_15h46.17.823,test2,2022.2.4,60.40252715182012,
0,0,0,0,22,0,22,0,180.57751345900033,180.57751345900033,180.57751345900033,180.57751345900033,180.57751345900033,180.57751345900033,180.57751345900033,-1,-1,azul,1,['N_A'],182.44706955100264,182.44706955100264,182.44706955100264,182.44706955100264,184.48193763400195,184.48193763400195,184.48193763400195,184.48193763400195,184.48193763400195,184.48193763400195,184.48193763400195,184.48193763400195,186.51723595500152,186.51723595500152,186.51723595500152,186.51723595500152,,,,,,,,,,,,,,,,,,,,,,,,,,,,,,,,,,,,,,,12,007,2022-09-23_15h46.17.823,test2,2022.2.4,60.40252715182012,
0,0,0,0,23,0,23,0,186.51723595500152,186.51723595500152,186.51723595500152,186.51723595500152,186.51723595500152,186.51723595500152,186.51723595500152,1,-1,rojo,0,['N_B'],187.96992361900266,187.96992361900266,187.96992361900266,187.96992361900266,190.00547796400133,190.00547796400133,190.00547796400133,190.00547796400133,190.00547796400133,190.00547796400133,190.00547796400133,190.00547796400133,192.04109397900174,192.04109397900174,192.04109397900174,192.04109397900174,,,,,,,,,,,,,,,,,,,,,,,,,,,,,,,,,,,,,,,12,007,2022-09-23_15h46.17.823,test2,2022.2.4,60.40252715182012,
0,0,0,0,24,0,24,0,192.04109397900174,192.04109397900174,192.04109397900174,192.04109397900174,192.04109397900174,192.04109397900174,192.04109397900174,-1,-1,rojo,1,['N_B'],193.45927642900278,193.45927642900278,193.45927642900278,193.45927642900278,195.4945104090002,195.4945104090002,195.4945104090002,195.4945104090002,195.4945104090002,195.4945104090002,195.4945104090002,195.4945104090002,197.53046644300048,197.53046644300048,197.53046644300048,197.53046644300048,,,,,,,,,,,,,,,,,,,,,,,,,,,,,,,,,,,,,,,12,007,2022-09-23_15h46.17.823,test2,2022.2.4,60.40252715182012,
0,0,0,0,25,0,25,0,197.53046644300048,197.53046644300048,197.53046644300048,197.53046644300048,197.53046644300048,197.53046644300048,197.53046644300048,1,-1,azul,1,['N_B'],198.9150546080018,198.9150546080018,198.9150546080018,198.9150546080018,200.95078227800332,200.95078227800332,200.95078227800332,200.95078227800332,200.95078227800332,200.95078227800332,200.95078227800332,200.95078227800332,202.98632404400269,202.98632404400269,202.98632404400269,202.98632404400269,,,,,,,,,,,,,,,,,,,,,,,,,,,,,,,,,,,,,,,12,007,2022-09-23_15h46.17.823,test2,2022.2.4,60.40252715182012,
0,0,0,0,26,0,26,0,202.98632404400269,202.98632404400269,202.98632404400269,202.98632404400269,202.98632404400269,202.98632404400269,202.98632404400269,1,1,azul,1,['N_B'],204.3704681140007,204.3704681140007,204.3704681140007,204.3704681140007,206.39049388200146,206.39049388200146,206.39049388200146,206.39049388200146,206.39049388200146,206.39049388200146,206.39049388200146,206.39049388200146,208.4258428180001,208.4258428180001,208.4258428180001,208.4258428180001,,,,,,,,,,,,,,,,,,,,,,,,,,,,,,,,,,,,,,,12,007,2022-09-23_15h46.17.823,test2,2022.2.4,60.40252715182012,
0,0,0,0,27,0,27,0,208.4258428180001,208.4258428180001,208.4258428180001,208.4258428180001,208.4258428180001,208.4258428180001,208.4258428180001,1,1,azul,1,['N_B'],210.2435259010017,210.2435259010017,210.2435259010017,210.2435259010017,212.26375656800155,212.26375656800155,212.26375656800155,212.26375656800155,212.26375656800155,212.26375656800155,212.26375656800155,212.26375656800155,214.2987390390008,214.2987390390008,214.2987390390008,214.2987390390008,,,,,,,,,,,,,,,,,,,,,,,,,,,,,,,,,,,,,,,12,007,2022-09-23_15h46.17.823,test2,2022.2.4,60.40252715182012,
0,0,0,0,28,0,28,0,214.2987390390008,214.2987390390008,214.2987390390008,214.2987390390008,214.2987390390008,214.2987390390008,214.2987390390008,1,1,azul,1,['N_B'],215.9504157370029,215.9504157370029,215.9504157370029,215.9504157370029,217.96950060100062,217.96950060100062,217.96950060100062,217.96950060100062,217.96950060100062,217.96950060100062,217.96950060100062,217.96950060100062,220.00455847300327,220.00455847300327,220.00455847300327,220.00455847300327,,,,,,,,,,,,,,,,,,,,,,,,,,,,,,,,,,,,,,,12,007,2022-09-23_15h46.17.823,test2,2022.2.4,60.40252715182012,
0,0,0,0,29,0,29,0,220.00455847300327,220.00455847300327,220.00455847300327,220.00455847300327,220.00455847300327,220.00455847300327,220.00455847300327,1,1,azul,1,['N_B'],222.27430921900304,222.27430921900304,222.27430921900304,222.27430921900304,224.3095965450011,224.3095965450011,224.3095965450011,224.3095965450011,224.3095965450011,224.3095965450011,224.3095965450011,224.3095965450011,226.34505956800058,226.34505956800058,226.34505956800058,226.34505956800058,,,,,,,,,,,,,,,,,,,,,,,,,,,,,,,,,,,,,,,12,007,2022-09-23_15h46.17.823,test2,2022.2.4,60.40252715182012,
0,0,0,0,30,0,30,0,226.34505956800058,226.34505956800058,226.34505956800058,226.34505956800058,226.34505956800058,226.34505956800058,226.34505956800058,1,-1,azul,0,['N_A'],229.13161597900034,229.13161597900034,229.13161597900034,229.13161597900034,231.1677322550022,231.1677322550022,231.1677322550022,231.1677322550022,231.1677322550022,231.1677322550022,231.1677322550022,231.1677322550022,233.2027067880008,233.2027067880008,233.2027067880008,233.2027067880008,,,,,,,,,,,,,,,,,,,,,,,,,,,,,,,,,,,,,,,12,007,2022-09-23_15h46.17.823,test2,2022.2.4,60.40252715182012,
0,0,0,0,31,0,31,0,233.2027067880008,233.2027067880008,233.2027067880008,233.2027067880008,233.2027067880008,233.2027067880008,233.2027067880008,1,-1,rojo,1,['N_A'],234.6206197190004,234.6206197190004,234.6206197190004,234.6206197190004,236.65710251600103,236.65710251600103,236.65710251600103,236.65710251600103,236.65710251600103,236.65710251600103,236.65710251600103,236.65710251600103,238.69188402200234,238.69188402200234,238.69188402200234,238.69188402200234,,,,,,,,,,,,,,,,,,,,,,,,,,,,,,,,,,,,,,,12,007,2022-09-23_15h46.17.823,test2,2022.2.4,60.40252715182012,
0,0,0,0,32,0,32,0,238.69188402200234,238.69188402200234,238.69188402200234,238.69188402200234,238.69188402200234,238.69188402200234,238.69188402200234,1,-1,rojo,0,['N_B'],240.6436712750001,240.6436712750001,240.6436712750001,240.6436712750001,242.68012842000098,242.68012842000098,242.68012842000098,242.68012842000098,242.68012842000098,242.68012842000098,242.68012842000098,242.68012842000098,244.71530331300164,244.71530331300164,244.71530331300164,244.71530331300164,,,,,,,,,,,,,,,,,,,,,,,,,,,,,,,,,,,,,,,12,007,2022-09-23_15h46.17.823,test2,2022.2.4,60.40252715182012,
0,0,0,0,33,0,33,0,244.71530331300164,244.71530331300164,244.71530331300164,244.71530331300164,244.71530331300164,244.71530331300164,244.71530331300164,1,-1,azul,1,['N_B'],246.2002708100008,246.2002708100008,246.2002708100008,246.2002708100008,248.23602777199994,248.23602777199994,248.23602777199994,248.23602777199994,248.23602777199994,248.23602777199994,248.23602777199994,248.23602777199994,250.27117299300153,250.27117299300153,250.27117299300153,250.27117299300153,,,,,,,,,,,,,,,,,,,,,,,,,,,,,,,,,,,,,,,12,007,2022-09-23_15h46.17.823,test2,2022.2.4,60.40252715182012,
0,0,0,0,34,0,34,0,250.27117299300153,250.27117299300153,250.27117299300153,250.27117299300153,250.27117299300153,250.27117299300153,250.27117299300153,-1,-1,rojo,1,['N_B'],251.73973516000115,251.73973516000115,251.73973516000115,251.73973516000115,253.77595206700062,253.77595206700062,253.77595206700062,253.77595206700062,253.77595206700062,253.77595206700062,253.77595206700062,253.77595206700062,255.8108553460006,255.8108553460006,255.8108553460006,255.8108553460006,,,,,,,,,,,,,,,,,,,,,,,,,,,,,,,,,,,,,,,12,007,2022-09-23_15h46.17.823,test2,2022.2.4,60.40252715182012,
0,0,0,0,35,0,35,0,255.8108553460006,255.8108553460006,255.8108553460006,255.8108553460006,255.8108553460006,255.8108553460006,255.8108553460006,1,1,azul,1,['N_B'],257.76271852500213,257.76271852500213,257.76271852500213,257.76271852500213,259.78112071299984,259.78112071299984,259.78112071299984,259.78112071299984,259.78112071299984,259.78112071299984,259.78112071299984,259.78112071299984,261.81759942400095,261.81759942400095,261.81759942400095,261.81759942400095,,,,,,,,,,,,,,,,,,,,,,,,,,,,,,,,,,,,,,,12,007,2022-09-23_15h46.17.823,test2,2022.2.4,60.40252715182012,
0,0,0,0,36,0,36,0,261.81759942400095,261.81759942400095,261.81759942400095,261.81759942400095,261.81759942400095,261.81759942400095,261.81759942400095,1,1,azul,1,['N_B'],265.6050944680028,265.6050944680028,265.6050944680028,265.6050944680028,267.6412344870005,267.6412344870005,267.6412344870005,267.6412344870005,267.6412344870005,267.6412344870005,267.6412344870005,267.6412344870005,269.6761683270015,269.6761683270015,269.6761683270015,269.6761683270015,,,,,,,,,,,,,,,,,,,,,,,,,,,,,,,,,,,,,,,12,007,2022-09-23_15h46.17.823,test2,2022.2.4,60.40252715182012,
0,0,0,0,37,0,37,0,269.6761683270015,269.6761683270015,269.6761683270015,269.6761683270015,269.6761683270015,269.6761683270015,269.6761683270015,-1,-1,rojo,0,['N_A'],271.99574536100044,271.99574536100044,271.99574536100044,271.99574536100044,274.0318028480033,274.0318028480033,274.0318028480033,274.0318028480033,274.0318028480033,274.0318028480033,274.0318028480033,274.0318028480033,276.06655291300194,276.06655291300194,276.06655291300194,276.06655291300194,,,,,,,,,,,,,,,,,,,,,,,,,,,,,,,,,,,,,,,12,007,2022-09-23_15h46.17.823,test2,2022.2.4,60.40252715182012,
0,0,0,0,38,0,38,0,276.06655291300194,276.06655291300194,276.06655291300194,276.06655291300194,276.06655291300194,276.06655291300194,276.06655291300194,1,-1,rojo,0,['N_B'],277.71823654699983,277.71823654699983,277.71823654699983,277.71823654699983,279.7539500890016,279.7539500890016,279.7539500890016,279.7539500890016,279.7539500890016,279.7539500890016,279.7539500890016,279.7539500890016,281.7891026970028,281.7891026970028,281.7891026970028,281.7891026970028,,,,,,,,,,,,,,,,,,,,,,,,,,,,,,,,,,,,,,,12,007,2022-09-23_15h46.17.823,test2,2022.2.4,60.40252715182012,
0,0,0,0,39,0,39,0,281.7891026970028,281.7891026970028,281.7891026970028,281.7891026970028,281.7891026970028,281.7891026970028,281.7891026970028,1,-1,azul,1,['N_B'],283.7080411470015,283.7080411470015,283.7080411470015,283.7080411470015,285.7443712000022,285.7443712000022,285.7443712000022,285.7443712000022,285.7443712000022,285.7443712000022,285.7443712000022,285.7443712000022,287.7793602310012,287.7793602310012,287.7793602310012,287.7793602310012,,,,,,,,,,,,,,,,,,,,,,,,,,,,,,,,,,,,,,,12,007,2022-09-23_15h46.17.823,test2,2022.2.4,60.40252715182012,
0,0,0,0,40,0,40,0,287.7793602310012,287.7793602310012,287.7793602310012,287.7793602310012,287.7793602310012,287.7793602310012,287.7793602310012,1,1,azul,0,['N_A'],291.1996192250008,291.1996192250008,291.1996192250008,291.1996192250008,293.2370727490015,293.2370727490015,293.2370727490015,293.2370727490015,293.2370727490015,293.2370727490015,293.2370727490015,293.2370727490015,295.27156682200075,295.27156682200075,295.27156682200075,295.27156682200075,,,,,,,,,,,,,,,,,,,,,,,,,,,,,,,,,,,,,,,12,007,2022-09-23_15h46.17.823,test2,2022.2.4,60.40252715182012,
0,0,0,0,41,0,41,0,295.27156682200075,295.27156682200075,295.27156682200075,295.27156682200075,295.27156682200075,295.27156682200075,295.27156682200075,1,-1,rojo,0,['N_B'],297.45733475700035,297.45733475700035,297.45733475700035,297.45733475700035,299.49431643700154,299.49431643700154,299.49431643700154,299.49431643700154,299.49431643700154,299.49431643700154,299.49431643700154,299.49431643700154,301.5279671800017,301.5279671800017,301.5279671800017,301.5279671800017,,,,,,,,,,,,,,,,,,,,,,,,,,,,,,,,,,,,,,,12,007,2022-09-23_15h46.17.823,test2,2022.2.4,60.40252715182012,
0,0,0,0,42,0,42,0,301.5279671800017,301.5279671800017,301.5279671800017,301.5279671800017,301.5279671800017,301.5279671800017,301.5279671800017,-1,-1,rojo,0,['N_A'],303.04612594900027,303.04612594900027,303.04612594900027,303.04612594900027,305.0823720420012,305.0823720420012,305.0823720420012,305.0823720420012,305.0823720420012,305.0823720420012,305.0823720420012,305.0823720420012,307.1174342600025,307.1174342600025,307.1174342600025,307.1174342600025,,,,,,,,,,,,,,,,,,,,,,,,,,,,,,,,,,,,,,,12,007,2022-09-23_15h46.17.823,test2,2022.2.4,60.40252715182012,
0,0,0,0,43,0,43,0,307.1174342600025,307.1174342600025,307.1174342600025,307.1174342600025,307.1174342600025,307.1174342600025,307.1174342600025,-1,-1,azul,0,['N_B'],308.7025635610007,308.7025635610007,308.7025635610007,308.7025635610007,310.7380388420024,310.7380388420024,310.7380388420024,310.7380388420024,310.7380388420024,310.7380388420024,310.7380388420024,310.7380388420024,312.7738827560024,312.7738827560024,312.7738827560024,312.7738827560024,,,,,,,,,,,,,,,,,,,,,,,,,,,,,,,,,,,,,,,12,007,2022-09-23_15h46.17.823,test2,2022.2.4,60.40252715182012,
0,0,0,0,44,0,44,0,312.7738827560024,312.7738827560024,312.7738827560024,312.7738827560024,312.7738827560024,312.7738827560024,312.7738827560024,-1,-1,rojo,0,['N_A'],314.3928821610025,314.3928821610025,314.3928821610025,314.3928821610025,316.4279421550018,316.4279421550018,316.4279421550018,316.4279421550018,316.4279421550018,316.4279421550018,316.4279421550018,316.4279421550018,318.4631838610003,318.4631838610003,318.4631838610003,318.4631838610003,,,,,,,,,,,,,,,,,,,,,,,,,,,,,,,,,,,,,,,12,007,2022-09-23_15h46.17.823,test2,2022.2.4,60.40252715182012,
0,0,0,0,45,0,45,0,318.4631838610003,318.4631838610003,318.4631838610003,318.4631838610003,318.4631838610003,318.4631838610003,318.4631838610003,-1,1,azul,0,['N_B'],320.21609286400053,320.21609286400053,320.21609286400053,320.21609286400053,322.25044794800124,322.25044794800124,322.25044794800124,322.25044794800124,322.25044794800124,322.25044794800124,322.25044794800124,322.25044794800124,324.2872182760002,324.2872182760002,324.2872182760002,324.2872182760002,,,,,,,,,,,,,,,,,,,,,,,,,,,,,,,,,,,,,,,12,007,2022-09-23_15h46.17.823,test2,2022.2.4,60.40252715182012,
0,0,0,0,46,0,46,0,324.2872182760002,324.2872182760002,324.2872182760002,324.2872182760002,324.2872182760002,324.2872182760002,324.2872182760002,-1,-1,rojo,0,['N_A'],326.7562166940006,326.7562166940006,326.7562166940006,326.7562166940006,328.7901106850004,328.7901106850004,328.7901106850004,328.7901106850004,328.7901106850004,328.7901106850004,328.7901106850004,328.7901106850004,330.8268683000024,330.8268683000024,330.8268683000024,330.8268683000024,,,,,,,,,,,,,,,,,,,,,,,,,,,,,,,,,,,,,,,12,007,2022-09-23_15h46.17.823,test2,2022.2.4,60.40252715182012,
0,0,0,0,47,0,47,0,330.8268683000024,330.8268683000024,330.8268683000024,330.8268683000024,330.8268683000024,330.8268683000024,330.8268683000024,1,-1,rojo,0,['N_B'],332.5459971170021,332.5459971170021,332.5459971170021,332.5459971170021,334.58147541400103,334.58147541400103,334.58147541400103,334.58147541400103,334.58147541400103,334.58147541400103,334.58147541400103,334.58147541400103,336.6166991880018,336.6166991880018,336.6166991880018,336.6166991880018,,,,,,,,,,,,,,,,,,,,,,,,,,,,,,,,,,,,,,,12,007,2022-09-23_15h46.17.823,test2,2022.2.4,60.40252715182012,
0,0,0,0,48,0,48,0,336.6166991880018,336.6166991880018,336.6166991880018,336.6166991880018,336.6166991880018,336.6166991880018,336.6166991880018,-1,-1,rojo,0,['N_A'],338.61934626100265,338.61934626100265,338.61934626100265,338.61934626100265,340.65525244400123,340.65525244400123,340.65525244400123,340.65525244400123,340.65525244400123,340.65525244400123,340.65525244400123,340.65525244400123,342.68983849800134,342.68983849800134,342.68983849800134,342.68983849800134,,,,,,,,,,,,,,,,,,,,,,,,,,,,,,,,,,,,,,,12,007,2022-09-23_15h46.17.823,test2,2022.2.4,60.40252715182012,
0,0,0,0,49,0,49,0,342.68983849800134,342.68983849800134,342.68983849800134,342.68983849800134,342.68983849800134,342.68983849800134,342.68983849800134,-1,-1,azul,1,['N_A'],344.5429212939998,344.5429212939998,344.5429212939998,344.5429212939998,346.5778865700013,346.5778865700013,346.5778865700013,346.5778865700013,346.5778865700013,346.5778865700013,346.5778865700013,346.5778865700013,348.6136761530033,348.6136761530033,348.6136761530033,348.6136761530033,,,,,,,,,,,,,,,,,,,,,,,,,,,,,,,,,,,,,,,12,007,2022-09-23_15h46.17.823,test2,2022.2.4,60.40252715182012,
0,0,0,0,50,0,50,0,348.6136761530033,348.6136761530033,348.6136761530033,348.6136761530033,348.6136761530033,348.6136761530033,348.6136761530033,-1,1,azul,1,['N_A'],350.94904468000095,350.94904468000095,350.94904468000095,350.94904468000095,352.98504364700057,352.98504364700057,352.98504364700057,352.98504364700057,352.98504364700057,352.98504364700057,352.98504364700057,352.98504364700057,355.02032872300333,355.02032872300333,355.02032872300333,355.02032872300333,,,,,,,,,,,,,,,,,,,,,,,,,,,,,,,,,,,,,,,12,007,2022-09-23_15h46.17.823,test2,2022.2.4,60.40252715182012,
0,0,0,0,51,0,51,0,355.02032872300333,355.02032872300333,355.02032872300333,355.02032872300333,355.02032872300333,355.02032872300333,355.02032872300333,-1,-1,azul,1,['N_A'],356.4383966890018,356.4383966890018,356.4383966890018,356.4383966890018,358.474648626001,358.474648626001,358.474648626001,358.474648626001,358.474648626001,358.474648626001,358.474648626001,358.474648626001,360.5094659960014,360.5094659960014,360.5094659960014,360.5094659960014,,,,,,,,,,,,,,,,,,,,,,,,,,,,,,,,,,,,,,,12,007,2022-09-23_15h46.17.823,test2,2022.2.4,60.40252715182012,
0,0,0,0,52,0,52,0,360.5094659960014,360.5094659960014,360.5094659960014,360.5094659960014,360.5094659960014,360.5094659960014,360.5094659960014,1,-1,rojo,1,['N_A'],361.9275040970024,361.9275040970024,361.9275040970024,361.9275040970024,363.9634428220015,363.9634428220015,363.9634428220015,363.9634428220015,363.9634428220015,363.9634428220015,363.9634428220015,363.9634428220015,365.9998876160025,365.9998876160025,365.9998876160025,365.9998876160025,,,,,,,,,,,,,,,,,,,,,,,,,,,,,,,,,,,,,,,12,007,2022-09-23_15h46.17.823,test2,2022.2.4,60.40252715182012,
0,0,0,0,53,0,53,0,365.9998876160025,365.9998876160025,365.9998876160025,365.9998876160025,365.9998876160025,365.9998876160025,365.9998876160025,1,-1,rojo,1,['N_A'],367.38435182800094,367.38435182800094,367.38435182800094,367.38435182800094,369.41878725300194,369.41878725300194,369.41878725300194,369.41878725300194,369.41878725300194,369.41878725300194,369.41878725300194,369.41878725300194,371.45478259300216,371.45478259300216,371.45478259300216,371.45478259300216,,,,,,,,,,,,,,,,,,,,,,,,,,,,,,,,,,,,,,,12,007,2022-09-23_15h46.17.823,test2,2022.2.4,60.40252715182012,
0,0,0,0,54,0,54,0,371.45478259300216,371.45478259300216,371.45478259300216,371.45478259300216,371.45478259300216,371.45478259300216,371.45478259300216,1,1,rojo,0,['N_B'],373.20778098200026,373.20778098200026,373.20778098200026,373.20778098200026,375.24264737400154,375.24264737400154,375.24264737400154,375.24264737400154,375.24264737400154,375.24264737400154,375.24264737400154,375.24264737400154,377.27832764699997,377.27832764699997,377.27832764699997,377.27832764699997,,,,,,,,,,,,,,,,,,,,,,,,,,,,,,,,,,,,,,,12,007,2022-09-23_15h46.17.823,test2,2022.2.4,60.40252715182012,
0,0,0,0,55,0,55,0,377.27832764699997,377.27832764699997,377.27832764699997,377.27832764699997,377.27832764699997,377.27832764699997,377.27832764699997,-1,-1,rojo,0,['N_A'],378.8974603070019,378.8974603070019,378.8974603070019,378.8974603070019,380.93282093400194,380.93282093400194,380.93282093400194,380.93282093400194,380.93282093400194,380.93282093400194,380.93282093400194,380.93282093400194,382.96748787800243,382.96748787800243,382.96748787800243,382.96748787800243,,,,,,,,,,,,,,,,,,,,,,,,,,,,,,,,,,,,,,,12,007,2022-09-23_15h46.17.823,test2,2022.2.4,60.40252715182012,
0,0,0,0,56,0,56,0,382.96748787800243,382.96748787800243,382.96748787800243,382.96748787800243,382.96748787800243,382.96748787800243,382.96748787800243,-1,1,azul,1,['N_A'],384.6531288570004,384.6531288570004,384.6531288570004,384.6531288570004,386.67170643100326,386.67170643100326,386.67170643100326,386.67170643100326,386.67170643100326,386.67170643100326,386.67170643100326,386.67170643100326,388.70726414500314,388.70726414500314,388.70726414500314,388.70726414500314,,,,,,,,,,,,,,,,,,,,,,,,,,,,,,,,,,,,,,,12,007,2022-09-23_15h46.17.823,test2,2022.2.4,60.40252715182012,
0,0,0,0,57,0,57,0,388.70726414500314,388.70726414500314,388.70726414500314,388.70726414500314,388.70726414500314,388.70726414500314,388.70726414500314,-1,1,azul,1,['N_A'],392.66170367200175,392.66170367200175,392.66170367200175,392.66170367200175,394.6976896200031,394.6976896200031,394.6976896200031,394.6976896200031,394.6976896200031,394.6976896200031,394.6976896200031,394.6976896200031,396.73363348300336,396.73363348300336,396.73363348300336,396.73363348300336,,,,,,,,,,,,,,,,,,,,,,,,,,,,,,,,,,,,,,,12,007,2022-09-23_15h46.17.823,test2,2022.2.4,60.40252715182012,
0,0,0,0,58,0,58,0,396.73363348300336,396.73363348300336,396.73363348300336,396.73363348300336,396.73363348300336,396.73363348300336,396.73363348300336,-1,-1,azul,0,['N_B'],398.3181999160006,398.3181999160006,398.3181999160006,398.3181999160006,400.3544887040007,400.3544887040007,400.3544887040007,400.3544887040007,400.3544887040007,400.3544887040007,400.3544887040007,400.3544887040007,402.3895673020015,402.3895673020015,402.3895673020015,402.3895673020015,,,,,,,,,,,,,,,,,,,,,,,,,,,,,,,,,,,,,,,12,007,2022-09-23_15h46.17.823,test2,2022.2.4,60.40252715182012,
0,0,0,0,59,0,59,0,402.3895673020015,402.3895673020015,402.3895673020015,402.3895673020015,402.3895673020015,402.3895673020015,402.3895673020015,1,-1,azul,1,['N_B'],403.84126406200085,403.84126406200085,403.84126406200085,403.84126406200085,405.8766768890018,405.8766768890018,405.8766768890018,405.8766768890018,405.8766768890018,405.8766768890018,405.8766768890018,405.8766768890018,407.9126147759998,407.9126147759998,407.9126147759998,407.9126147759998,,,,,,,,,,,,,,,,,,,,,,,,,,,,,,,,,,,,,,,12,007,2022-09-23_15h46.17.823,test2,2022.2.4,60.40252715182012,
0,0,0,0,60,0,60,0,407.9126147759998,407.9126147759998,407.9126147759998,407.9126147759998,407.9126147759998,407.9126147759998,407.9126147759998,-1,-1,rojo,1,['N_B'],410.8158945130017,410.8158945130017,410.8158945130017,410.8158945130017,412.84995623800205,412.84995623800205,412.84995623800205,412.84995623800205,412.84995623800205,412.84995623800205,412.84995623800205,412.84995623800205,414.8861382660034,414.8861382660034,414.8861382660034,414.8861382660034,,,,,,,,,,,,,,,,,,,,,,,,,,,,,,,,,,,,,,,12,007,2022-09-23_15h46.17.823,test2,2022.2.4,60.40252715182012,
0,0,0,0,61,0,61,0,414.8861382660034,414.8861382660034,414.8861382660034,414.8861382660034,414.8861382660034,414.8861382660034,414.8861382660034,1,1,azul,1,['N_B'],422.14493170900096,422.14493170900096,422.14493170900096,422.14493170900096,424.17948648600213,424.17948648600213,424.17948648600213,424.17948648600213,424.17948648600213,424.17948648600213,424.17948648600213,424.17948648600213,426.2158311530002,426.2158311530002,426.2158311530002,426.2158311530002,,,,,,,,,,,,,,,,,,,,,,,,,,,,,,,,,,,,,,,12,007,2022-09-23_15h46.17.823,test2,2022.2.4,60.40252715182012,
0,0,0,0,62,0,62,0,426.2158311530002,426.2158311530002,426.2158311530002,426.2158311530002,426.2158311530002,426.2158311530002,426.2158311530002,-1,-1,rojo,1,['N_B'],427.8341491730025,427.8341491730025,427.8341491730025,427.8341491730025,429.8698189380011,429.8698189380011,429.8698189380011,429.8698189380011,429.8698189380011,429.8698189380011,429.8698189380011,429.8698189380011,431.9054308720006,431.9054308720006,431.9054308720006,431.9054308720006,,,,,,,,,,,,,,,,,,,,,,,,,,,,,,,,,,,,,,,12,007,2022-09-23_15h46.17.823,test2,2022.2.4,60.40252715182012,
0,0,0,0,63,0,63,0,431.9054308720006,431.9054308720006,431.9054308720006,431.9054308720006,431.9054308720006,431.9054308720006,431.9054308720006,1,-1,azul,1,['N_B'],433.3736433130034,433.3736433130034,433.3736433130034,433.3736433130034,435.4085398120005,435.4085398120005,435.4085398120005,435.4085398120005,435.4085398120005,435.4085398120005,435.4085398120005,435.4085398120005,437.444638465,437.444638465,437.444638465,437.444638465,,,,,,,,,,,,,,,,,,,,,,,,,,,,,,,,,,,,,,,12,007,2022-09-23_15h46.17.823,test2,2022.2.4,60.40252715182012,
0,0,0,0,64,0,64,0,437.444638465,437.444638465,437.444638465,437.444638465,437.444638465,437.444638465,437.444638465,-1,-1,rojo,1,['N_B'],439.0125924410022,439.0125924410022,439.0125924410022,439.0125924410022,441.0492791020006,441.0492791020006,441.0492791020006,441.0492791020006,441.0492791020006,441.0492791020006,441.0492791020006,441.0492791020006,443.08406201800244,443.08406201800244,443.08406201800244,443.08406201800244,,,,,,,,,,,,,,,,,,,,,,,,,,,,,,,,,,,,,,,12,007,2022-09-23_15h46.17.823,test2,2022.2.4,60.40252715182012,
0,0,0,0,65,0,65,0,443.08406201800244,443.08406201800244,443.08406201800244,443.08406201800244,443.08406201800244,443.08406201800244,443.08406201800244,1,-1,azul,1,['N_B'],444.73641720300293,444.73641720300293,444.73641720300293,444.73641720300293,446.77130800099985,446.77130800099985,446.77130800099985,446.77130800099985,446.77130800099985,446.77130800099985,446.77130800099985,446.77130800099985,448.80706205800016,448.80706205800016,448.80706205800016,448.80706205800016,,,,,,,,,,,,,,,,,,,,,,,,,,,,,,,,,,,,,,,12,007,2022-09-23_15h46.17.823,test2,2022.2.4,60.40252715182012,
0,0,0,0,66,0,66,0,448.80706205800016,448.80706205800016,448.80706205800016,448.80706205800016,448.80706205800016,448.80706205800016,448.80706205800016,1,1,azul,1,['N_B'],450.593083017,450.593083017,450.593083017,450.593083017,452.6108883040033,452.6108883040033,452.6108883040033,452.6108883040033,452.6108883040033,452.6108883040033,452.6108883040033,452.6108883040033,454.6471273520001,454.6471273520001,454.6471273520001,454.6471273520001,,,,,,,,,,,,,,,,,,,,,,,,,,,,,,,,,,,,,,,12,007,2022-09-23_15h46.17.823,test2,2022.2.4,60.40252715182012,
0,0,0,0,67,0,67,0,454.6471273520001,454.6471273520001,454.6471273520001,454.6471273520001,454.6471273520001,454.6471273520001,454.6471273520001,1,1,azul,1,['N_B'],456.19819490100053,456.19819490100053,456.19819490100053,456.19819490100053,458.23449147800056,458.23449147800056,458.23449147800056,458.23449147800056,458.23449147800056,458.23449147800056,458.23449147800056,458.23449147800056,460.2697843599999,460.2697843599999,460.2697843599999,460.2697843599999,,,,,,,,,,,,,,,,,,,,,,,,,,,,,,,,,,,,,,,12,007,2022-09-23_15h46.17.823,test2,2022.2.4,60.40252715182012,
0,0,0,0,68,0,68,0,460.2697843599999,460.2697843599999,460.2697843599999,460.2697843599999,460.2697843599999,460.2697843599999,460.2697843599999,-1,-1,rojo,0,['N_A'],461.88890019200335,461.88890019200335,461.88890019200335,461.88890019200335,463.9244740960021,463.9244740960021,463.9244740960021,463.9244740960021,463.9244740960021,463.9244740960021,463.9244740960021,463.9244740960021,465.9590976520012,465.9590976520012,465.9590976520012,465.9590976520012,,,,,,,,,,,,,,,,,,,,,,,,,,,,,,,,,,,,,,,12,007,2022-09-23_15h46.17.823,test2,2022.2.4,60.40252715182012,
0,0,0,0,69,0,69,0,465.9590976520012,465.9590976520012,465.9590976520012,465.9590976520012,465.9590976520012,465.9590976520012,465.9590976520012,1,-1,rojo,1,['N_A'],468.6619112280023,468.6619112280023,468.6619112280023,468.6619112280023,470.69855859600284,470.69855859600284,470.69855859600284,470.69855859600284,470.69855859600284,470.69855859600284,470.69855859600284,470.69855859600284,472.7334189980029,472.7334189980029,472.7334189980029,472.7334189980029,,,,,,,,,,,,,,,,,,,,,,,,,,,,,,,,,,,,,,,12,007,2022-09-23_15h46.17.823,test2,2022.2.4,60.40252715182012,
0,0,0,0,70,0,70,0,472.7334189980029,472.7334189980029,472.7334189980029,472.7334189980029,472.7334189980029,472.7334189980029,472.7334189980029,1,1,rojo,0,['N_B'],476.3538573340011,476.3538573340011,476.3538573340011,476.3538573340011,478.3729600220031,478.3729600220031,478.3729600220031,478.3729600220031,478.3729600220031,478.3729600220031,478.3729600220031,478.3729600220031,480.4085518210013,480.4085518210013,480.4085518210013,480.4085518210013,,,,,,,,,,,,,,,,,,,,,,,,,,,,,,,,,,,,,,,12,007,2022-09-23_15h46.17.823,test2,2022.2.4,60.40252715182012,
0,0,0,0,71,0,71,0,480.4085518210013,480.4085518210013,480.4085518210013,480.4085518210013,480.4085518210013,480.4085518210013,480.4085518210013,-1,1,rojo,1,['N_B'],484.34661512599996,484.34661512599996,484.34661512599996,484.34661512599996,486.38197490800303,486.38197490800303,486.38197490800303,486.38197490800303,486.38197490800303,486.38197490800303,486.38197490800303,486.38197490800303,488.4180800590002,488.4180800590002,488.4180800590002,488.4180800590002,,,,,,,,,,,,,,,,,,,,,,,,,,,,,,,,,,,,,,,12,007,2022-09-23_15h46.17.823,test2,2022.2.4,60.40252715182012,
0,0,0,0,72,0,72,0,488.4180800590002,488.4180800590002,488.4180800590002,488.4180800590002,488.4180800590002,488.4180800590002,488.4180800590002,1,-1,azul,0,['N_A'],490.1691712620013,490.1691712620013,490.1691712620013,490.1691712620013,492.20453550500315,492.20453550500315,492.20453550500315,492.20453550500315,492.20453550500315,492.20453550500315,492.20453550500315,492.20453550500315,494.2407447700025,494.2407447700025,494.2407447700025,494.2407447700025,,,,,,,,,,,,,,,,,,,,,,,,,,,,,,,,,,,,,,,12,007,2022-09-23_15h46.17.823,test2,2022.2.4,60.40252715182012,
0,0,0,0,73,0,73,0,494.2407447700025,494.2407447700025,494.2407447700025,494.2407447700025,494.2407447700025,494.2407447700025,494.2407447700025,1,-1,rojo,1,['N_A'],499.02872087900323,499.02872087900323,499.02872087900323,499.02872087900323,501.0657970980028,501.0657970980028,501.0657970980028,501.0657970980028,501.0657970980028,501.0657970980028,501.0657970980028,501.0657970980028,503.09983565600123,503.09983565600123,503.09983565600123,503.09983565600123,,,,,,,,,,,,,,,,,,,,,,,,,,,,,,,,,,,,,,,12,007,2022-09-23_15h46.17.823,test2,2022.2.4,60.40252715182012,
0,0,0,0,74,0,74,0,503.09983565600123,503.09983565600123,503.09983565600123,503.09983565600123,503.09983565600123,503.09983565600123,503.09983565600123,-1,-1,azul,1,['N_A'],505.05224720500337,505.05224720500337,505.05224720500337,505.05224720500337,507.0889125850008,507.0889125850008,507.0889125850008,507.0889125850008,507.0889125850008,507.0889125850008,507.0889125850008,507.0889125850008,509.12376717000006,509.12376717000006,509.12376717000006,509.12376717000006,,,,,,,,,,,,,,,,,,,,,,,,,,,,,,,,,,,,,,,12,007,2022-09-23_15h46.17.823,test2,2022.2.4,60.40252715182012,
0,0,0,0,75,0,75,0,509.12376717000006,509.12376717000006,509.12376717000006,509.12376717000006,509.12376717000006,509.12376717000006,509.12376717000006,1,-1,rojo,0,['N_B'],510.9086409380034,510.9086409380034,510.9086409380034,510.9086409380034,512.9445185460027,512.9445185460027,512.9445185460027,512.9445185460027,512.9445185460027,512.9445185460027,512.9445185460027,512.9445185460027,514.9806383490031,514.9806383490031,514.9806383490031,514.9806383490031,,,,,,,,,,,,,,,,,,,,,,,,,,,,,,,,,,,,,,,12,007,2022-09-23_15h46.17.823,test2,2022.2.4,60.40252715182012,
0,0,0,0,76,0,76,0,514.9806383490031,514.9806383490031,514.9806383490031,514.9806383490031,514.9806383490031,514.9806383490031,514.9806383490031,-1,-1,rojo,0,['N_A'],516.6155338870012,516.6155338870012,516.6155338870012,516.6155338870012,518.6513666420033,518.6513666420033,518.6513666420033,518.6513666420033,518.6513666420033,518.6513666420033,518.6513666420033,518.6513666420033,520.6871043720021,520.6871043720021,520.6871043720021,520.6871043720021,,,,,,,,,,,,,,,,,,,,,,,,,,,,,,,,,,,,,,,12,007,2022-09-23_15h46.17.823,test2,2022.2.4,60.40252715182012,
0,0,0,0,77,0,77,0,520.6871043720021,520.6871043720021,520.6871043720021,520.6871043720021,520.6871043720021,520.6871043720021,520.6871043720021,1,1,rojo,1,['N_A'],522.4552227860004,522.4552227860004,522.4552227860004,522.4552227860004,524.4912386350006,524.4912386350006,524.4912386350006,524.4912386350006,524.4912386350006,524.4912386350006,524.4912386350006,524.4912386350006,526.5267753470034,526.5267753470034,526.5267753470034,526.5267753470034,,,,,,,,,,,,,,,,,,,,,,,,,,,,,,,,,,,,,,,12,007,2022-09-23_15h46.17.823,test2,2022.2.4,60.40252715182012,
0,0,0,0,78,0,78,0,526.5267753470034,526.5267753470034,526.5267753470034,526.5267753470034,526.5267753470034,526.5267753470034,526.5267753470034,1,-1,rojo,1,['N_A'],528.6123891310017,528.6123891310017,528.6123891310017,528.6123891310017,530.6480545600025,530.6480545600025,530.6480545600025,530.6480545600025,530.6480545600025,530.6480545600025,530.6480545600025,530.6480545600025,532.6825183960027,532.6825183960027,532.6825183960027,532.6825183960027,,,,,,,,,,,,,,,,,,,,,,,,,,,,,,,,,,,,,,,12,007,2022-09-23_15h46.17.823,test2,2022.2.4,60.40252715182012,
0,0,0,0,79,0,79,0,532.6825183960027,532.6825183960027,532.6825183960027,532.6825183960027,532.6825183960027,532.6825183960027,532.6825183960027,-1,-1,azul,1,['N_A'],534.3015251940014,534.3015251940014,534.3015251940014,534.3015251940014,536.3370590800005,536.3370590800005,536.3370590800005,536.3370590800005,536.3370590800005,536.3370590800005,536.3370590800005,536.3370590800005,538.3726147060006,538.3726147060006,538.3726147060006,538.3726147060006,,,,,,,,,,,,,,,,,,,,,,,,,,,,,,,,,,,,,,,12,007,2022-09-23_15h46.17.823,test2,2022.2.4,60.40252715182012,
0,0,0,0,80,0,80,0,538.3726147060006,538.3726147060006,538.3726147060006,538.3726147060006,538.3726147060006,538.3726147060006,538.3726147060006,-1,-1,azul,0,['N_B'],539.9240872780028,539.9240872780028,539.9240872780028,539.9240872780028,541.9604031080016,541.9604031080016,541.9604031080016,541.9604031080016,541.9604031080016,541.9604031080016,541.9604031080016,541.9604031080016,543.9957670360018,543.9957670360018,543.9957670360018,543.9957670360018,,,,,,,,,,,,,,,,,,,,,,,,,,,,,,,,,,,,,,,12,007,2022-09-23_15h46.17.823,test2,2022.2.4,60.40252715182012,
0,0,0,0,81,0,81,0,543.9957670360018,543.9957670360018,543.9957670360018,543.9957670360018,543.9957670360018,543.9957670360018,543.9957670360018,-1,-1,rojo,1,['N_B'],545.5305659120022,545.5305659120022,545.5305659120022,545.5305659120022,547.565994687,547.565994687,547.565994687,547.565994687,547.565994687,547.565994687,547.565994687,547.565994687,549.6015859060026,549.6015859060026,549.6015859060026,549.6015859060026,,,,,,,,,,,,,,,,,,,,,,,,,,,,,,,,,,,,,,,12,007,2022-09-23_15h46.17.823,test2,2022.2.4,60.40252715182012,
0,0,0,0,82,0,82,0,549.6015859060026,549.6015859060026,549.6015859060026,549.6015859060026,549.6015859060026,549.6015859060026,549.6015859060026,1,-1,azul,1,['N_B'],551.5537181780019,551.5537181780019,551.5537181780019,551.5537181780019,553.5889502210011,553.5889502210011,553.5889502210011,553.5889502210011,553.5889502210011,553.5889502210011,553.5889502210011,553.5889502210011,555.6252792660016,555.6252792660016,555.6252792660016,555.6252792660016,,,,,,,,,,,,,,,,,,,,,,,,,,,,,,,,,,,,,,,12,007,2022-09-23_15h46.17.823,test2,2022.2.4,60.40252715182012,
0,0,0,0,83,0,83,0,555.6252792660016,555.6252792660016,555.6252792660016,555.6252792660016,555.6252792660016,555.6252792660016,555.6252792660016,1,1,azul,1,['N_B'],557.2762956590013,557.2762956590013,557.2762956590013,557.2762956590013,559.3122391800025,559.3122391800025,559.3122391800025,559.3122391800025,559.3122391800025,559.3122391800025,559.3122391800025,559.3122391800025,561.3473789140007,561.3473789140007,561.3473789140007,561.3473789140007,,,,,,,,,,,,,,,,,,,,,,,,,,,,,,,,,,,,,,,12,007,2022-09-23_15h46.17.823,test2,2022.2.4,60.40252715182012,
0,0,0,0,84,0,84,0,561.3473789140007,561.3473789140007,561.3473789140007,561.3473789140007,561.3473789140007,561.3473789140007,561.3473789140007,1,-1,azul,1,['N_B'],563.0677566400009,563.0677566400009,563.0677566400009,563.0677566400009,565.1012266780017,565.1012266780017,565.1012266780017,565.1012266780017,565.1012266780017,565.1012266780017,565.1012266780017,565.1012266780017,567.1377823350012,567.1377823350012,567.1377823350012,567.1377823350012,,,,,,,,,,,,,,,,,,,,,,,,,,,,,,,,,,,,,,,12,007,2022-09-23_15h46.17.823,test2,2022.2.4,60.40252715182012,
0,0,0,0,85,0,85,0,567.1377823350012,567.1377823350012,567.1377823350012,567.1377823350012,567.1377823350012,567.1377823350012,567.1377823350012,1,-1,azul,1,['N_B'],569.9240787790004,569.9240787790004,569.9240787790004,569.9240787790004,571.9599917640007,571.9599917640007,571.9599917640007,571.9599917640007,571.9599917640007,571.9599917640007,571.9599917640007,571.9599917640007,573.9949630980009,573.9949630980009,573.9949630980009,573.9949630980009,,,,,,,,,,,,,,,,,,,,,,,,,,,,,,,,,,,,,,,12,007,2022-09-23_15h46.17.823,test2,2022.2.4,60.40252715182012,
0,0,0,0,86,0,86,0,573.9949630980009,573.9949630980009,573.9949630980009,573.9949630980009,573.9949630980009,573.9949630980009,573.9949630980009,1,-1,azul,1,['N_B'],576.0811195700007,576.0811195700007,576.0811195700007,576.0811195700007,578.1170971000029,578.1170971000029,578.1170971000029,578.1170971000029,578.1170971000029,578.1170971000029,578.1170971000029,578.1170971000029,580.1521194540001,580.1521194540001,580.1521194540001,580.1521194540001,,,,,,,,,,,,,,,,,,,,,,,,,,,,,,,,,,,,,,,12,007,2022-09-23_15h46.17.823,test2,2022.2.4,60.40252715182012,
0,0,0,0,87,0,87,0,580.1521194540001,580.1521194540001,580.1521194540001,580.1521194540001,580.1521194540001,580.1521194540001,580.1521194540001,-1,-1,rojo,1,['N_B'],581.8376653860032,581.8376653860032,581.8376653860032,581.8376653860032,583.8731794900013,583.8731794900013,583.8731794900013,583.8731794900013,583.8731794900013,583.8731794900013,583.8731794900013,583.8731794900013,585.9086103770023,585.9086103770023,585.9086103770023,585.9086103770023,,,,,,,,,,,,,,,,,,,,,,,,,,,,,,,,,,,,,,,12,007,2022-09-23_15h46.17.823,test2,2022.2.4,60.40252715182012,
0,0,0,0,88,0,88,0,585.9086103770023,585.9086103770023,585.9086103770023,585.9086103770023,585.9086103770023,585.9086103770023,585.9086103770023,1,-1,azul,0,['N_A'],587.459287179001,587.459287179001,587.459287179001,587.459287179001,589.4961585480014,589.4961585480014,589.4961585480014,589.4961585480014,589.4961585480014,589.4961585480014,589.4961585480014,589.4961585480014,591.5318097980016,591.5318097980016,591.5318097980016,591.5318097980016,,,,,,,,,,,,,,,,,,,,,,,,,,,,,,,,,,,,,,,12,007,2022-09-23_15h46.17.823,test2,2022.2.4,60.40252715182012,
0,0,0,0,89,0,89,0,591.5318097980016,591.5318097980016,591.5318097980016,591.5318097980016,591.5318097980016,591.5318097980016,591.5318097980016,1,-1,rojo,1,['N_A'],593.6173220160017,593.6173220160017,593.6173220160017,593.6173220160017,595.6528189480014,595.6528189480014,595.6528189480014,595.6528189480014,595.6528189480014,595.6528189480014,595.6528189480014,595.6528189480014,597.6885474180017,597.6885474180017,597.6885474180017,597.6885474180017,,,,,,,,,,,,,,,,,,,,,,,,,,,,,,,,,,,,,,,12,007,2022-09-23_15h46.17.823,test2,2022.2.4,60.40252715182012,
0,0,0,0,90,0,90,0,597.6885474180017,597.6885474180017,597.6885474180017,597.6885474180017,597.6885474180017,597.6885474180017,597.6885474180017,1,-1,rojo,1,['N_A'],599.2068150430023,599.2068150430023,599.2068150430023,599.2068150430023,601.2418628560008,601.2418628560008,601.2418628560008,601.2418628560008,601.2418628560008,601.2418628560008,601.2418628560008,601.2418628560008,603.2773054410027,603.2773054410027,603.2773054410027,603.2773054410027,,,,,,,,,,,,,,,,,,,,,,,,,,,,,,,,,,,,,,,12,007,2022-09-23_15h46.17.823,test2,2022.2.4,60.40252715182012,
0,0,0,0,91,0,91,0,603.2773054410027,603.2773054410027,603.2773054410027,603.2773054410027,603.2773054410027,603.2773054410027,603.2773054410027,1,-1,rojo,0,['N_B'],604.9959889570018,604.9959889570018,604.9959889570018,604.9959889570018,607.031579313003,607.031579313003,607.031579313003,607.031579313003,607.031579313003,607.031579313003,607.031579313003,607.031579313003,609.0672029980014,609.0672029980014,609.0672029980014,609.0672029980014,,,,,,,,,,,,,,,,,,,,,,,,,,,,,,,,,,,,,,,12,007,2022-09-23_15h46.17.823,test2,2022.2.4,60.40252715182012,
0,0,0,0,92,0,92,0,609.0672029980014,609.0672029980014,609.0672029980014,609.0672029980014,609.0672029980014,609.0672029980014,609.0672029980014,1,-1,azul,1,['N_B'],610.5192759920028,610.5192759920028,610.5192759920028,610.5192759920028,612.5545942570025,612.5545942570025,612.5545942570025,612.5545942570025,612.5545942570025,612.5545942570025,612.5545942570025,612.5545942570025,614.589620900002,614.589620900002,614.589620900002,614.589620900002,,,,,,,,,,,,,,,,,,,,,,,,,,,,,,,,,,,,,,,12,007,2022-09-23_15h46.17.823,test2,2022.2.4,60.40252715182012,
0,0,0,0,93,0,93,0,614.589620900002,614.589620900002,614.589620900002,614.589620900002,614.589620900002,614.589620900002,614.589620900002,-1,-1,rojo,1,['N_B'],616.2084639060013,616.2084639060013,616.2084639060013,616.2084639060013,618.2435597680014,618.2435597680014,618.2435597680014,618.2435597680014,618.2435597680014,618.2435597680014,618.2435597680014,618.2435597680014,620.2800547810002,620.2800547810002,620.2800547810002,620.2800547810002,,,,,,,,,,,,,,,,,,,,,,,,,,,,,,,,,,,,,,,12,007,2022-09-23_15h46.17.823,test2,2022.2.4,60.40252715182012,
0,0,0,0,94,0,94,0,620.2800547810002,620.2800547810002,620.2800547810002,620.2800547810002,620.2800547810002,620.2800547810002,620.2800547810002,1,1,azul,1,['N_B'],621.9316822940018,621.9316822940018,621.9316822940018,621.9316822940018,623.9673864110009,623.9673864110009,623.9673864110009,623.9673864110009,623.9673864110009,623.9673864110009,623.9673864110009,623.9673864110009,626.0023306170006,626.0023306170006,626.0023306170006,626.0023306170006,,,,,,,,,,,,,,,,,,,,,,,,,,,,,,,,,,,,,,,12,007,2022-09-23_15h46.17.823,test2,2022.2.4,60.40252715182012,
0,0,0,0,95,0,95,0,626.0023306170006,626.0023306170006,626.0023306170006,626.0023306170006,626.0023306170006,626.0023306170006,626.0023306170006,1,-1,azul,1,['N_B'],627.4714526800017,627.4714526800017,627.4714526800017,627.4714526800017,629.5064968000006,629.5064968000006,629.5064968000006,629.5064968000006,629.5064968000006,629.5064968000006,629.5064968000006,629.5064968000006,631.5420461240028,631.5420461240028,631.5420461240028,631.5420461240028,,,,,,,,,,,,,,,,,,,,,,,,,,,,,,,,,,,,,,,12,007,2022-09-23_15h46.17.823,test2,2022.2.4,60.40252715182012,
0,0,0,0,96,0,96,0,631.5420461240028,631.5420461240028,631.5420461240028,631.5420461240028,631.5420461240028,631.5420461240028,631.5420461240028,1,1,azul,1,['N_B'],633.2602129760016,633.2602129760016,633.2602129760016,633.2602129760016,635.2962710890024,635.2962710890024,635.2962710890024,635.2962710890024,635.2962710890024,635.2962710890024,635.2962710890024,635.2962710890024,637.3313790810025,637.3313790810025,637.3313790810025,637.3313790810025,,,,,,,,,,,,,,,,,,,,,,,,,,,,,,,,,,,,,,,12,007,2022-09-23_15h46.17.823,test2,2022.2.4,60.40252715182012,
0,0,0,0,97,0,97,0,637.3313790810025,637.3313790810025,637.3313790810025,637.3313790810025,637.3313790810025,637.3313790810025,637.3313790810025,1,-1,azul,1,['N_B'],638.8832334880026,638.8832334880026,638.8832334880026,638.8832334880026,640.9190170300026,640.9190170300026,640.9190170300026,640.9190170300026,640.9190170300026,640.9190170300026,640.9190170300026,640.9190170300026,642.9549454020016,642.9549454020016,642.9549454020016,642.9549454020016,,,,,,,,,,,,,,,,,,,,,,,,,,,,,,,,,,,,,,,12,007,2022-09-23_15h46.17.823,test2,2022.2.4,60.40252715182012,
0,0,0,0,98,0,98,0,642.9549454020016,642.9549454020016,642.9549454020016,642.9549454020016,642.9549454020016,642.9549454020016,642.9549454020016,-1,-1,rojo,1,['N_B'],644.6073059530027,644.6073059530027,644.6073059530027,644.6073059530027,646.6426304940032,646.6426304940032,646.6426304940032,646.6426304940032,646.6426304940032,646.6426304940032,646.6426304940032,646.6426304940032,648.6774268530025,648.6774268530025,648.6774268530025,648.6774268530025,,,,,,,,,,,,,,,,,,,,,,,,,,,,,,,,,,,,,,,12,007,2022-09-23_15h46.17.823,test2,2022.2.4,60.40252715182012,
0,0,0,0,99,0,99,0,648.6774268530025,648.6774268530025,648.6774268530025,648.6774268530025,648.6774268530025,648.6774268530025,648.6774268530025,1,1,azul,1,['N_B'],650.1961873430009,650.1961873430009,650.1961873430009,650.1961873430009,652.2138114320005,652.2138114320005,652.2138114320005,652.2138114320005,652.2138114320005,652.2138114320005,652.2138114320005,652.2138114320005,654.2508825170007,654.2508825170007,654.2508825170007,654.2508825170007,,,,,,,,,,,,,,,,,,,,,,,,,,,,,,,,,,,,,,,12,007,2022-09-23_15h46.17.823,test2,2022.2.4,60.40252715182012,
0,0,0,0,100,0,100,0,654.2508825170007,654.2508825170007,654.2508825170007,654.2508825170007,654.2508825170007,654.2508825170007,654.2508825170007,1,1,azul,0,['N_A'],656.3359970490019,656.3359970490019,656.3359970490019,656.3359970490019,658.3714592680008,658.3714592680008,658.3714592680008,658.3714592680008,658.3714592680008,658.3714592680008,658.3714592680008,658.3714592680008,660.4079736320018,660.4079736320018,660.4079736320018,660.4079736320018,,,,,,,,,,,,,,,,,,,,,,,,,,,,,,,,,,,,,,,12,007,2022-09-23_15h46.17.823,test2,2022.2.4,60.40252715182012,
0,0,0,0,101,0,101,0,660.4079736320018,660.4079736320018,660.4079736320018,660.4079736320018,660.4079736320018,660.4079736320018,660.4079736320018,-1,-1,azul,1,['N_A'],662.2931423990012,662.2931423990012,662.2931423990012,662.2931423990012,664.3282250470002,664.3282250470002,664.3282250470002,664.3282250470002,664.3282250470002,664.3282250470002,664.3282250470002,664.3282250470002,666.363621268003,666.363621268003,666.363621268003,666.363621268003,,,,,,,,,,,,,,,,,,,,,,,,,,,,,,,,,,,,,,,12,007,2022-09-23_15h46.17.823,test2,2022.2.4,60.40252715182012,
0,0,0,0,102,0,102,0,666.363621268003,666.363621268003,666.363621268003,666.363621268003,666.363621268003,666.363621268003,666.363621268003,1,-1,rojo,1,['N_A'],667.8654643730006,667.8654643730006,667.8654643730006,667.8654643730006,669.9003176920014,669.9003176920014,669.9003176920014,669.9003176920014,669.9003176920014,669.9003176920014,669.9003176920014,669.9003176920014,671.9363136020002,671.9363136020002,671.9363136020002,671.9363136020002,,,,,,,,,,,,,,,,,,,,,,,,,,,,,,,,,,,,,,,12,007,2022-09-23_15h46.17.823,test2,2022.2.4,60.40252715182012,
0,0,0,0,103,0,103,0,671.9363136020002,671.9363136020002,671.9363136020002,671.9363136020002,671.9363136020002,671.9363136020002,671.9363136020002,-1,-1,azul,0,['N_B'],673.3719148830023,673.3719148830023,673.3719148830023,673.3719148830023,675.4074626800029,675.4074626800029,675.4074626800029,675.4074626800029,675.4074626800029,675.4074626800029,675.4074626800029,675.4074626800029,677.4425042319999,677.4425042319999,677.4425042319999,677.4425042319999,,,,,,,,,,,,,,,,,,,,,,,,,,,,,,,,,,,,,,,12,007,2022-09-23_15h46.17.823,test2,2022.2.4,60.40252715182012,
0,0,0,0,104,0,104,0,677.4425042319999,677.4425042319999,677.4425042319999,677.4425042319999,677.4425042319999,677.4425042319999,677.4425042319999,1,1,azul,1,['N_B'],679.2279628860015,679.2279628860015,679.2279628860015,679.2279628860015,681.2633700340011,681.2633700340011,681.2633700340011,681.2633700340011,681.2633700340011,681.2633700340011,681.2633700340011,681.2633700340011,683.2988308560016,683.2988308560016,683.2988308560016,683.2988308560016,,,,,,,,,,,,,,,,,,,,,,,,,,,,,,,,,,,,,,,12,007,2022-09-23_15h46.17.823,test2,2022.2.4,60.40252715182012,
0,0,0,0,105,0,105,0,683.2988308560016,683.2988308560016,683.2988308560016,683.2988308560016,683.2988308560016,683.2988308560016,683.2988308560016,-1,-1,rojo,0,['N_A'],685.4854824850008,685.4854824850008,685.4854824850008,685.4854824850008,687.5204140760034,687.5204140760034,687.5204140760034,687.5204140760034,687.5204140760034,687.5204140760034,687.5204140760034,687.5204140760034,689.5561123980006,689.5561123980006,689.5561123980006,689.5561123980006,,,,,,,,,,,,,,,,,,,,,,,,,,,,,,,,,,,,,,,12,007,2022-09-23_15h46.17.823,test2,2022.2.4,60.40252715182012,
0,0,0,0,106,0,106,0,689.5561123980006,689.5561123980006,689.5561123980006,689.5561123980006,689.5561123980006,689.5561123980006,689.5561123980006,-1,-1,azul,0,['N_B'],691.1577208350027,691.1577208350027,691.1577208350027,691.1577208350027,693.1936316950014,693.1936316950014,693.1936316950014,693.1936316950014,693.1936316950014,693.1936316950014,693.1936316950014,693.1936316950014,695.2294378830011,695.2294378830011,695.2294378830011,695.2294378830011,,,,,,,,,,,,,,,,,,,,,,,,,,,,,,,,,,,,,,,12,007,2022-09-23_15h46.17.823,test2,2022.2.4,60.40252715182012,
0,0,0,0,107,0,107,0,695.2294378830011,695.2294378830011,695.2294378830011,695.2294378830011,695.2294378830011,695.2294378830011,695.2294378830011,1,1,azul,1,['N_B'],697.6655205180032,697.6655205180032,697.6655205180032,697.6655205180032,699.6844336350005,699.6844336350005,699.6844336350005,699.6844336350005,699.6844336350005,699.6844336350005,699.6844336350005,699.6844336350005,701.7201062660024,701.7201062660024,701.7201062660024,701.7201062660024,,,,,,,,,,,,,,,,,,,,,,,,,,,,,,,,,,,,,,,12,007,2022-09-23_15h46.17.823,test2,2022.2.4,60.40252715182012,
0,0,0,0,108,0,108,0,701.7201062660024,701.7201062660024,701.7201062660024,701.7201062660024,701.7201062660024,701.7201062660024,701.7201062660024,1,1,azul,1,['N_B'],703.4879833930027,703.4879833930027,703.4879833930027,703.4879833930027,705.5234026020007,705.5234026020007,705.5234026020007,705.5234026020007,705.5234026020007,705.5234026020007,705.5234026020007,705.5234026020007,707.5589927120018,707.5589927120018,707.5589927120018,707.5589927120018,,,,,,,,,,,,,,,,,,,,,,,,,,,,,,,,,,,,,,,12,007,2022-09-23_15h46.17.823,test2,2022.2.4,60.40252715182012,
0,0,0,0,109,0,109,0,707.5589927120018,707.5589927120018,707.5589927120018,707.5589927120018,707.5589927120018,707.5589927120018,707.5589927120018,1,-1,azul,1,['N_B'],709.1448333560002,709.1448333560002,709.1448333560002,709.1448333560002,711.1807360270031,711.1807360270031,711.1807360270031,711.1807360270031,711.1807360270031,711.1807360270031,711.1807360270031,711.1807360270031,713.2158710370022,713.2158710370022,713.2158710370022,713.2158710370022,,,,,,,,,,,,,,,,,,,,,,,,,,,,,,,,,,,,,,,12,007,2022-09-23_15h46.17.823,test2,2022.2.4,60.40252715182012,
0,0,0,0,110,0,110,0,713.2158710370022,713.2158710370022,713.2158710370022,713.2158710370022,713.2158710370022,713.2158710370022,713.2158710370022,1,-1,azul,0,['N_A'],715.2011617090029,715.2011617090029,715.2011617090029,715.2011617090029,717.2363005470033,717.2363005470033,717.2363005470033,717.2363005470033,717.2363005470033,717.2363005470033,717.2363005470033,717.2363005470033,719.2720352130018,719.2720352130018,719.2720352130018,719.2720352130018,,,,,,,,,,,,,,,,,,,,,,,,,,,,,,,,,,,,,,,12,007,2022-09-23_15h46.17.823,test2,2022.2.4,60.40252715182012,
0,0,0,0,111,0,111,0,719.2720352130018,719.2720352130018,719.2720352130018,719.2720352130018,719.2720352130018,719.2720352130018,719.2720352130018,1,-1,rojo,0,['N_B'],721.090747041002,721.090747041002,721.090747041002,721.090747041002,723.1263431590014,723.1263431590014,723.1263431590014,723.1263431590014,723.1263431590014,723.1263431590014,723.1263431590014,723.1263431590014,725.1621825530019,725.1621825530019,725.1621825530019,725.1621825530019,,,,,,,,,,,,,,,,,,,,,,,,,,,,,,,,,,,,,,,12,007,2022-09-23_15h46.17.823,test2,2022.2.4,60.40252715182012,
0,0,0,0,112,0,112,0,725.1621825530019,725.1621825530019,725.1621825530019,725.1621825530019,725.1621825530019,725.1621825530019,725.1621825530019,1,-1,azul,1,['N_B'],726.7307112980016,726.7307112980016,726.7307112980016,726.7307112980016,728.766217761,728.766217761,728.766217761,728.766217761,728.766217761,728.766217761,728.766217761,728.766217761,730.8015315890007,730.8015315890007,730.8015315890007,730.8015315890007,,,,,,,,,,,,,,,,,,,,,,,,,,,,,,,,,,,,,,,12,007,2022-09-23_15h46.17.823,test2,2022.2.4,60.40252715182012,
0,0,0,0,113,0,113,0,730.8015315890007,730.8015315890007,730.8015315890007,730.8015315890007,730.8015315890007,730.8015315890007,730.8015315890007,1,1,azul,1,['N_B'],732.520192097003,732.520192097003,732.520192097003,732.520192097003,734.5386575900011,734.5386575900011,734.5386575900011,734.5386575900011,734.5386575900011,734.5386575900011,734.5386575900011,734.5386575900011,736.574411542002,736.574411542002,736.574411542002,736.574411542002,,,,,,,,,,,,,,,,,,,,,,,,,,,,,,,,,,,,,,,12,007,2022-09-23_15h46.17.823,test2,2022.2.4,60.40252715182012,
0,0,0,0,114,0,114,0,736.574411542002,736.574411542002,736.574411542002,736.574411542002,736.574411542002,736.574411542002,736.574411542002,-1,1,rojo,1,['N_B'],738.3930253880026,738.3930253880026,738.3930253880026,738.3930253880026,740.4291833980024,740.4291833980024,740.4291833980024,740.4291833980024,740.4291833980024,740.4291833980024,740.4291833980024,740.4291833980024,742.4640855360012,742.4640855360012,742.4640855360012,742.4640855360012,,,,,,,,,,,,,,,,,,,,,,,,,,,,,,,,,,,,,,,12,007,2022-09-23_15h46.17.823,test2,2022.2.4,60.40252715182012,
0,0,0,0,115,0,115,0,742.4640855360012,742.4640855360012,742.4640855360012,742.4640855360012,742.4640855360012,742.4640855360012,742.4640855360012,1,-1,azul,1,['N_B'],744.2829923050012,744.2829923050012,744.2829923050012,744.2829923050012,746.3184814850028,746.3184814850028,746.3184814850028,746.3184814850028,746.3184814850028,746.3184814850028,746.3184814850028,746.3184814850028,748.3546808150022,748.3546808150022,748.3546808150022,748.3546808150022,,,,,,,,,,,,,,,,,,,,,,,,,,,,,,,,,,,,,,,12,007,2022-09-23_15h46.17.823,test2,2022.2.4,60.40252715182012,
0,0,0,0,116,0,116,0,748.3546808150022,748.3546808150022,748.3546808150022,748.3546808150022,748.3546808150022,748.3546808150022,748.3546808150022,-1,-1,rojo,1,['N_B'],749.8398380470026,749.8398380470026,749.8398380470026,749.8398380470026,751.8750719220006,751.8750719220006,751.8750719220006,751.8750719220006,751.8750719220006,751.8750719220006,751.8750719220006,751.8750719220006,753.9100553250028,753.9100553250028,753.9100553250028,753.9100553250028,,,,,,,,,,,,,,,,,,,,,,,,,,,,,,,,,,,,,,,12,007,2022-09-23_15h46.17.823,test2,2022.2.4,60.40252715182012,
0,0,0,0,117,0,117,0,753.9100553250028,753.9100553250028,753.9100553250028,753.9100553250028,753.9100553250028,753.9100553250028,753.9100553250028,1,-1,azul,1,['N_B'],755.9462004680026,755.9462004680026,755.9462004680026,755.9462004680026,757.9817313620006,757.9817313620006,757.9817313620006,757.9817313620006,757.9817313620006,757.9817313620006,757.9817313620006,757.9817313620006,760.0172109960004,760.0172109960004,760.0172109960004,760.0172109960004,,,,,,,,,,,,,,,,,,,,,,,,,,,,,,,,,,,,,,,12,007,2022-09-23_15h46.17.823,test2,2022.2.4,60.40252715182012,
0,0,0,0,118,0,118,0,760.0172109960004,760.0172109960004,760.0172109960004,760.0172109960004,760.0172109960004,760.0172109960004,760.0172109960004,1,1,azul,1,['N_B'],764.9072801690018,764.9072801690018,764.9072801690018,764.9072801690018,766.9412067930025,766.9412067930025,766.9412067930025,766.9412067930025,766.9412067930025,766.9412067930025,766.9412067930025,766.9412067930025,768.9768268250009,768.9768268250009,768.9768268250009,768.9768268250009,,,,,,,,,,,,,,,,,,,,,,,,,,,,,,,,,,,,,,,12,007,2022-09-23_15h46.17.823,test2,2022.2.4,60.40252715182012,
0,0,0,0,119,0,119,0,768.9768268250009,768.9768268250009,768.9768268250009,768.9768268250009,768.9768268250009,768.9768268250009,768.9768268250009,-1,-1,rojo,1,['N_B'],771.3128002490012,771.3128002490012,771.3128002490012,771.3128002490012,773.3492113100001,773.3492113100001,773.3492113100001,773.3492113100001,773.3492113100001,773.3492113100001,773.3492113100001,773.3492113100001,775.383853927,775.383853927,775.383853927,775.383853927,,,,,,,,,,,,,,,,,,,,,,,,,,,,,,,,,,,,,,,12,007,2022-09-23_15h46.17.823,test2,2022.2.4,60.40252715182012,
0,0,0,0,120,0,120,0,775.383853927,775.383853927,775.383853927,775.383853927,775.383853927,775.383853927,775.383853927,1,-1,azul,1,['N_B'],777.5035090220008,777.5035090220008,777.5035090220008,777.5035090220008,779.5384934440008,779.5384934440008,779.5384934440008,779.5384934440008,779.5384934440008,779.5384934440008,779.5384934440008,779.5384934440008,781.574695452,781.574695452,781.574695452,781.574695452,,,,,,,,,,,,,,,,,,,,,,,,,,,,,,,,,,,,,,,12,007,2022-09-23_15h46.17.823,test2,2022.2.4,60.40252715182012,
0,0,0,0,121,0,121,0,781.574695452,781.574695452,781.574695452,781.574695452,781.574695452,781.574695452,781.574695452,-1,-1,rojo,1,['N_B'],783.1923602679999,783.1923602679999,783.1923602679999,783.1923602679999,785.228064435003,785.228064435003,785.228064435003,785.228064435003,785.228064435003,785.228064435003,785.228064435003,785.228064435003,787.2644165230013,787.2644165230013,787.2644165230013,787.2644165230013,,,,,,,,,,,,,,,,,,,,,,,,,,,,,,,,,,,,,,,12,007,2022-09-23_15h46.17.823,test2,2022.2.4,60.40252715182012,
0,0,0,0,122,0,122,0,787.2644165230013,787.2644165230013,787.2644165230013,787.2644165230013,787.2644165230013,787.2644165230013,787.2644165230013,1,-1,azul,1,['N_B'],789.1824126010033,789.1824126010033,789.1824126010033,789.1824126010033,791.2182763370001,791.2182763370001,791.2182763370001,791.2182763370001,791.2182763370001,791.2182763370001,791.2182763370001,791.2182763370001,793.2534744090008,793.2534744090008,793.2534744090008,793.2534744090008,,,,,,,,,,,,,,,,,,,,,,,,,,,,,,,,,,,,,,,12,007,2022-09-23_15h46.17.823,test2,2022.2.4,60.40252715182012,
0,0,0,0,123,0,123,0,793.2534744090008,793.2534744090008,793.2534744090008,793.2534744090008,793.2534744090008,793.2534744090008,793.2534744090008,-1,-1,rojo,0,['N_A'],795.7400236580033,795.7400236580033,795.7400236580033,795.7400236580033,797.7752460770025,797.7752460770025,797.7752460770025,797.7752460770025,797.7752460770025,797.7752460770025,797.7752460770025,797.7752460770025,799.8111445670002,799.8111445670002,799.8111445670002,799.8111445670002,,,,,,,,,,,,,,,,,,,,,,,,,,,,,,,,,,,,,,,12,007,2022-09-23_15h46.17.823,test2,2022.2.4,60.40252715182012,
0,0,0,0,124,0,124,0,799.8111445670002,799.8111445670002,799.8111445670002,799.8111445670002,799.8111445670002,799.8111445670002,799.8111445670002,1,-1,rojo,1,['N_A'],801.5295049500019,801.5295049500019,801.5295049500019,801.5295049500019,803.5654607360011,803.5654607360011,803.5654607360011,803.5654607360011,803.5654607360011,803.5654607360011,803.5654607360011,803.5654607360011,805.600401857002,805.600401857002,805.600401857002,805.600401857002,,,,,,,,,,,,,,,,,,,,,,,,,,,,,,,,,,,,,,,12,007,2022-09-23_15h46.17.823,test2,2022.2.4,60.40252715182012,
0,0,0,0,125,0,125,0,805.600401857002,805.600401857002,805.600401857002,805.600401857002,805.600401857002,805.600401857002,805.600401857002,1,-1,rojo,1,['N_A'],807.1190101240027,807.1190101240027,807.1190101240027,807.1190101240027,809.1547626780011,809.1547626780011,809.1547626780011,809.1547626780011,809.1547626780011,809.1547626780011,809.1547626780011,809.1547626780011,811.1903947170031,811.1903947170031,811.1903947170031,811.1903947170031,,,,,,,,,,,,,,,,,,,,,,,,,,,,,,,,,,,,,,,12,007,2022-09-23_15h46.17.823,test2,2022.2.4,60.40252715182012,
0,0,0,0,126,0,126,0,811.1903947170031,811.1903947170031,811.1903947170031,811.1903947170031,811.1903947170031,811.1903947170031,811.1903947170031,1,-1,rojo,0,['N_B'],813.0425790990012,813.0425790990012,813.0425790990012,813.0425790990012,815.0778653180023,815.0778653180023,815.0778653180023,815.0778653180023,815.0778653180023,815.0778653180023,815.0778653180023,815.0778653180023,817.1133193990026,817.1133193990026,817.1133193990026,817.1133193990026,,,,,,,,,,,,,,,,,,,,,,,,,,,,,,,,,,,,,,,12,007,2022-09-23_15h46.17.823,test2,2022.2.4,60.40252715182012,
0,0,0,0,127,0,127,0,817.1133193990026,817.1133193990026,817.1133193990026,817.1133193990026,817.1133193990026,817.1133193990026,817.1133193990026,1,1,azul,1,['N_B'],819.4321688050004,819.4321688050004,819.4321688050004,819.4321688050004,821.4680552050013,821.4680552050013,821.4680552050013,821.4680552050013,821.4680552050013,821.4680552050013,821.4680552050013,821.4680552050013,823.5034987380022,823.5034987380022,823.5034987380022,823.5034987380022,,,,,,,,,,,,,,,,,,,,,,,,,,,,,,,,,,,,,,,12,007,2022-09-23_15h46.17.823,test2,2022.2.4,60.40252715182012,
0,0,0,0,128,0,128,0,823.5034987380022,823.5034987380022,823.5034987380022,823.5034987380022,823.5034987380022,823.5034987380022,823.5034987380022,-1,-1,rojo,1,['N_B'],826.1907260389999,826.1907260389999,826.1907260389999,826.1907260389999,828.2255912510009,828.2255912510009,828.2255912510009,828.2255912510009,828.2255912510009,828.2255912510009,828.2255912510009,828.2255912510009,830.2614117200028,830.2614117200028,830.2614117200028,830.2614117200028,,,,,,,,,,,,,,,,,,,,,,,,,,,,,,,,,,,,,,,12,007,2022-09-23_15h46.17.823,test2,2022.2.4,60.40252715182012,
0,0,0,0,129,0,129,0,830.2614117200028,830.2614117200028,830.2614117200028,830.2614117200028,830.2614117200028,830.2614117200028,830.2614117200028,1,-1,azul,1,['N_B'],836.1850441590032,836.1850441590032,836.1850441590032,836.1850441590032,838.2196030490013,838.2196030490013,838.2196030490013,838.2196030490013,838.2196030490013,838.2196030490013,838.2196030490013,838.2196030490013,840.2560257000005,840.2560257000005,840.2560257000005,840.2560257000005,,,,,,,,,,,,,,,,,,,,,,,,,,,,,,,,,,,,,,,12,007,2022-09-23_15h46.17.823,test2,2022.2.4,60.40252715182012,
0,0,0,0,130,0,130,0,840.2560257000005,840.2560257000005,840.2560257000005,840.2560257000005,840.2560257000005,840.2560257000005,840.2560257000005,1,1,azul,1,['N_B'],842.3077903520025,842.3077903520025,842.3077903520025,842.3077903520025,844.3256342510031,844.3256342510031,844.3256342510031,844.3256342510031,844.3256342510031,844.3256342510031,844.3256342510031,844.3256342510031,846.3623785950003,846.3623785950003,846.3623785950003,846.3623785950003,,,,,,,,,,,,,,,,,,,,,,,,,,,,,,,,,,,,,,,12,007,2022-09-23_15h46.17.823,test2,2022.2.4,60.40252715182012,
0,0,0,0,131,0,131,0,846.3623785950003,846.3623785950003,846.3623785950003,846.3623785950003,846.3623785950003,846.3623785950003,846.3623785950003,1,1,azul,1,['N_B'],848.8151387819998,848.8151387819998,848.8151387819998,848.8151387819998,850.833773923001,850.833773923001,850.833773923001,850.833773923001,850.833773923001,850.833773923001,850.833773923001,850.833773923001,852.8695787230026,852.8695787230026,852.8695787230026,852.8695787230026,,,,,,,,,,,,,,,,,,,,,,,,,,,,,,,,,,,,,,,12,007,2022-09-23_15h46.17.823,test2,2022.2.4,60.40252715182012,
0,0,0,0,132,0,132,0,852.8695787230026,852.8695787230026,852.8695787230026,852.8695787230026,852.8695787230026,852.8695787230026,852.8695787230026,1,1,azul,1,['N_B'],857.9917275100015,857.9917275100015,857.9917275100015,857.9917275100015,860.011617428001,860.011617428001,860.011617428001,860.011617428001,860.011617428001,860.011617428001,860.011617428001,860.011617428001,862.0468173510017,862.0468173510017,862.0468173510017,862.0468173510017,,,,,,,,,,,,,,,,,,,,,,,,,,,,,,,,,,,,,,,12,007,2022-09-23_15h46.17.823,test2,2022.2.4,60.40252715182012,
0,0,0,0,133,0,133,0,862.0468173510017,862.0468173510017,862.0468173510017,862.0468173510017,862.0468173510017,862.0468173510017,862.0468173510017,1,1,azul,1,['N_B'],863.6656504650018,863.6656504650018,863.6656504650018,863.6656504650018,865.6826554090003,865.6826554090003,865.6826554090003,865.6826554090003,865.6826554090003,865.6826554090003,865.6826554090003,865.6826554090003,867.7191092009998,867.7191092009998,867.7191092009998,867.7191092009998,,,,,,,,,,,,,,,,,,,,,,,,,,,,,,,,,,,,,,,12,007,2022-09-23_15h46.17.823,test2,2022.2.4,60.40252715182012,
0,0,0,0,134,0,134,0,867.7191092009998,867.7191092009998,867.7191092009998,867.7191092009998,867.7191092009998,867.7191092009998,867.7191092009998,1,1,azul,1,['N_B'],871.5071524520026,871.5071524520026,871.5071524520026,871.5071524520026,873.5259039310004,873.5259039310004,873.5259039310004,873.5259039310004,873.5259039310004,873.5259039310004,873.5259039310004,873.5259039310004,875.5608792920029,875.5608792920029,875.5608792920029,875.5608792920029,,,,,,,,,,,,,,,,,,,,,,,,,,,,,,,,,,,,,,,12,007,2022-09-23_15h46.17.823,test2,2022.2.4,60.40252715182012,
0,0,0,0,135,0,135,0,875.5608792920029,875.5608792920029,875.5608792920029,875.5608792920029,875.5608792920029,875.5608792920029,875.5608792920029,1,1,azul,1,['N_B'],878.449351067,878.449351067,878.449351067,878.449351067,880.483566263003,880.483566263003,880.483566263003,880.483566263003,880.483566263003,880.483566263003,880.483566263003,880.483566263003,882.5187537800011,882.5187537800011,882.5187537800011,882.5187537800011,,,,,,,,,,,,,,,,,,,,,,,,,,,,,,,,,,,,,,,12,007,2022-09-23_15h46.17.823,test2,2022.2.4,60.40252715182012,
0,0,0,0,136,0,136,0,882.5187537800011,882.5187537800011,882.5187537800011,882.5187537800011,882.5187537800011,882.5187537800011,882.5187537800011,1,-1,azul,0,['N_A'],883.9373845760019,883.9373845760019,883.9373845760019,883.9373845760019,885.9725718690024,885.9725718690024,885.9725718690024,885.9725718690024,885.9725718690024,885.9725718690024,885.9725718690024,885.9725718690024,888.0085022050007,888.0085022050007,888.0085022050007,888.0085022050007,,,,,,,,,,,,,,,,,,,,,,,,,,,,,,,,,,,,,,,12,007,2022-09-23_15h46.17.823,test2,2022.2.4,60.40252715182012,
0,0,0,0,137,0,137,0,888.0085022050007,888.0085022050007,888.0085022050007,888.0085022050007,888.0085022050007,888.0085022050007,888.0085022050007,1,-1,rojo,1,['N_A'],889.8770461110034,889.8770461110034,889.8770461110034,889.8770461110034,891.9134316390009,891.9134316390009,891.9134316390009,891.9134316390009,891.9134316390009,891.9134316390009,891.9134316390009,891.9134316390009,893.9478551040011,893.9478551040011,893.9478551040011,893.9478551040011,,,,,,,,,,,,,,,,,,,,,,,,,,,,,,,,,,,,,,,12,007,2022-09-23_15h46.17.823,test2,2022.2.4,60.40252715182012,
0,0,0,0,138,0,138,0,893.9478551040011,893.9478551040011,893.9478551040011,893.9478551040011,893.9478551040011,893.9478551040011,893.9478551040011,1,-1,rojo,1,['N_A'],895.7326475070004,895.7326475070004,895.7326475070004,895.7326475070004,897.7696841550023,897.7696841550023,897.7696841550023,897.7696841550023,897.7696841550023,897.7696841550023,897.7696841550023,897.7696841550023,899.8051892630028,899.8051892630028,899.8051892630028,899.8051892630028,,,,,,,,,,,,,,,,,,,,,,,,,,,,,,,,,,,,,,,12,007,2022-09-23_15h46.17.823,test2,2022.2.4,60.40252715182012,
0,0,0,0,139,0,139,0,899.8051892630028,899.8051892630028,899.8051892630028,899.8051892630028,899.8051892630028,899.8051892630028,899.8051892630028,1,-1,rojo,1,['N_A'],901.5560446039999,901.5560446039999,901.5560446039999,901.5560446039999,903.5922437200024,903.5922437200024,903.5922437200024,903.5922437200024,903.5922437200024,903.5922437200024,903.5922437200024,903.5922437200024,905.6280442790012,905.6280442790012,905.6280442790012,905.6280442790012,,,,,,,,,,,,,,,,,,,,,,,,,,,,,,,,,,,,,,,12,007,2022-09-23_15h46.17.823,test2,2022.2.4,60.40252715182012,
0,0,0,0,140,0,140,0,905.6280442790012,905.6280442790012,905.6280442790012,905.6280442790012,905.6280442790012,905.6280442790012,905.6280442790012,-1,1,azul,1,['N_A'],907.263561693002,907.263561693002,907.263561693002,907.263561693002,909.2986452720033,909.2986452720033,909.2986452720033,909.2986452720033,909.2986452720033,909.2986452720033,909.2986452720033,909.2986452720033,911.3341774600012,911.3341774600012,911.3341774600012,911.3341774600012,,,,,,,,,,,,,,,,,,,,,,,,,,,,,,,,,,,,,,,12,007,2022-09-23_15h46.17.823,test2,2022.2.4,60.40252715182012,
0,0,0,0,141,0,141,0,911.3341774600012,911.3341774600012,911.3341774600012,911.3341774600012,911.3341774600012,911.3341774600012,911.3341774600012,1,-1,rojo,0,['N_B'],913.5540140210032,913.5540140210032,913.5540140210032,913.5540140210032,915.5888166570003,915.5888166570003,915.5888166570003,915.5888166570003,915.5888166570003,915.5888166570003,915.5888166570003,915.5888166570003,917.624318516002,917.624318516002,917.624318516002,917.624318516002,,,,,,,,,,,,,,,,,,,,,,,,,,,,,,,,,,,,,,,12,007,2022-09-23_15h46.17.823,test2,2022.2.4,60.40252715182012,
0,0,0,0,142,0,142,0,917.624318516002,917.624318516002,917.624318516002,917.624318516002,917.624318516002,917.624318516002,917.624318516002,-1,-1,rojo,0,['N_A'],919.8767378789998,919.8767378789998,919.8767378789998,919.8767378789998,921.9128244860003,921.9128244860003,921.9128244860003,921.9128244860003,921.9128244860003,921.9128244860003,921.9128244860003,921.9128244860003,923.9477838790008,923.9477838790008,923.9477838790008,923.9477838790008,,,,,,,,,,,,,,,,,,,,,,,,,,,,,,,,,,,,,,,12,007,2022-09-23_15h46.17.823,test2,2022.2.4,60.40252715182012,
0,0,0,0,143,0,143,0,923.9477838790008,923.9477838790008,923.9477838790008,923.9477838790008,923.9477838790008,923.9477838790008,923.9477838790008,1,-1,rojo,1,['N_A'],926.1324984130006,926.1324984130006,926.1324984130006,926.1324984130006,928.1690252280023,928.1690252280023,928.1690252280023,928.1690252280023,928.1690252280023,928.1690252280023,928.1690252280023,928.1690252280023,930.204898887001,930.204898887001,930.204898887001,930.204898887001,,,,,,,,,,,,,,,,,,,,,,,,,,,,,,,,,,,,,,,12,007,2022-09-23_15h46.17.823,test2,2022.2.4,60.40252715182012,
0,0,0,0,144,0,144,0,930.204898887001,930.204898887001,930.204898887001,930.204898887001,930.204898887001,930.204898887001,930.204898887001,-1,-1,azul,1,['N_A'],931.8905022960025,931.8905022960025,931.8905022960025,931.8905022960025,933.9258219980002,933.9258219980002,933.9258219980002,933.9258219980002,933.9258219980002,933.9258219980002,933.9258219980002,933.9258219980002,935.9608934170028,935.9608934170028,935.9608934170028,935.9608934170028,,,,,,,,,,,,,,,,,,,,,,,,,,,,,,,,,,,,,,,12,007,2022-09-23_15h46.17.823,test2,2022.2.4,60.40252715182012,
0,0,0,0,145,0,145,0,935.9608934170028,935.9608934170028,935.9608934170028,935.9608934170028,935.9608934170028,935.9608934170028,935.9608934170028,1,-1,rojo,1,['N_A'],937.7627382880019,937.7627382880019,937.7627382880019,937.7627382880019,939.7992661980024,939.7992661980024,939.7992661980024,939.7992661980024,939.7992661980024,939.7992661980024,939.7992661980024,939.7992661980024,941.8344609320011,941.8344609320011,941.8344609320011,941.8344609320011,,,,,,,,,,,,,,,,,,,,,,,,,,,,,,,,,,,,,,,12,007,2022-09-23_15h46.17.823,test2,2022.2.4,60.40252715182012,
0,0,0,0,146,0,146,0,941.8344609320011,941.8344609320011,941.8344609320011,941.8344609320011,941.8344609320011,941.8344609320011,941.8344609320011,1,-1,rojo,0,['N_B'],943.9537224420019,943.9537224420019,943.9537224420019,943.9537224420019,945.9893421980014,945.9893421980014,945.9893421980014,945.9893421980014,945.9893421980014,945.9893421980014,945.9893421980014,945.9893421980014,948.0246474070009,948.0246474070009,948.0246474070009,948.0246474070009,,,,,,,,,,,,,,,,,,,,,,,,,,,,,,,,,,,,,,,12,007,2022-09-23_15h46.17.823,test2,2022.2.4,60.40252715182012,
0,0,0,0,147,0,147,0,948.0246474070009,948.0246474070009,948.0246474070009,948.0246474070009,948.0246474070009,948.0246474070009,948.0246474070009,1,-1,azul,1,['N_B'],949.8099000150032,949.8099000150032,949.8099000150032,949.8099000150032,951.8453594600032,951.8453594600032,951.8453594600032,951.8453594600032,951.8453594600032,951.8453594600032,951.8453594600032,951.8453594600032,953.8810521240011,953.8810521240011,953.8810521240011,953.8810521240011,,,,,,,,,,,,,,,,,,,,,,,,,,,,,,,,,,,,,,,12,007,2022-09-23_15h46.17.823,test2,2022.2.4,60.40252715182012,
0,0,0,0,148,0,148,0,953.8810521240011,953.8810521240011,953.8810521240011,953.8810521240011,953.8810521240011,953.8810521240011,953.8810521240011,1,-1,azul,1,['N_B'],956.7678138080009,956.7678138080009,956.7678138080009,956.7678138080009,958.8030317350022,958.8030317350022,958.8030317350022,958.8030317350022,958.8030317350022,958.8030317350022,958.8030317350022,958.8030317350022,960.8385487660016,960.8385487660016,960.8385487660016,960.8385487660016,,,,,,,,,,,,,,,,,,,,,,,,,,,,,,,,,,,,,,,12,007,2022-09-23_15h46.17.823,test2,2022.2.4,60.40252715182012,
0,0,0,0,149,0,149,0,960.8385487660016,960.8385487660016,960.8385487660016,960.8385487660016,960.8385487660016,960.8385487660016,960.8385487660016,1,1,azul,1,['N_B'],963.2578672990021,963.2578672990021,963.2578672990021,963.2578672990021,965.2937789510033,965.2937789510033,965.2937789510033,965.2937789510033,965.2937789510033,965.2937789510033,965.2937789510033,965.2937789510033,967.3288201870018,967.3288201870018,967.3288201870018,967.3288201870018,,,,,,,,,,,,,,,,,,,,,,,,,,,,,,,,,,,,,,,12,007,2022-09-23_15h46.17.823,test2,2022.2.4,60.40252715182012,
0,0,0,0,150,0,150,0,967.3288201870018,967.3288201870018,967.3288201870018,967.3288201870018,967.3288201870018,967.3288201870018,967.3288201870018,1,-1,azul,0,['N_A'],971.4672015220021,971.4672015220021,971.4672015220021,971.4672015220021,973.5022223370033,973.5022223370033,973.5022223370033,973.5022223370033,973.5022223370033,973.5022223370033,973.5022223370033,973.5022223370033,975.5386952290028,975.5386952290028,975.5386952290028,975.5386952290028,,,,,,,,,,,,,,,,,,,,,,,,,,,,,,,,,,,,,,,12,007,2022-09-23_15h46.17.823,test2,2022.2.4,60.40252715182012,
0,0,0,0,151,0,151,0,975.5386952290028,975.5386952290028,975.5386952290028,975.5386952290028,975.5386952290028,975.5386952290028,975.5386952290028,-1,-1,azul,0,['N_B'],978.258423411,978.258423411,978.258423411,978.258423411,980.2934571250007,980.2934571250007,980.2934571250007,980.2934571250007,980.2934571250007,980.2934571250007,980.2934571250007,980.2934571250007,982.329710238002,982.329710238002,982.329710238002,982.329710238002,,,,,,,,,,,,,,,,,,,,,,,,,,,,,,,,,,,,,,,12,007,2022-09-23_15h46.17.823,test2,2022.2.4,60.40252715182012,
0,0,0,0,152,0,152,0,982.329710238002,982.329710238002,982.329710238002,982.329710238002,982.329710238002,982.329710238002,982.329710238002,1,1,azul,1,['N_B'],984.1805480580006,984.1805480580006,984.1805480580006,984.1805480580006,986.2173256470014,986.2173256470014,986.2173256470014,986.2173256470014,986.2173256470014,986.2173256470014,986.2173256470014,986.2173256470014,988.2527664640002,988.2527664640002,988.2527664640002,988.2527664640002,,,,,,,,,,,,,,,,,,,,,,,,,,,,,,,,,,,,,,,12,007,2022-09-23_15h46.17.823,test2,2022.2.4,60.40252715182012,
0,0,0,0,153,0,153,0,988.2527664640002,988.2527664640002,988.2527664640002,988.2527664640002,988.2527664640002,988.2527664640002,988.2527664640002,1,-1,azul,0,['N_A'],990.4384658800009,990.4384658800009,990.4384658800009,990.4384658800009,992.4741151630005,992.4741151630005,992.4741151630005,992.4741151630005,992.4741151630005,992.4741151630005,992.4741151630005,992.4741151630005,994.5088109740027,994.5088109740027,994.5088109740027,994.5088109740027,,,,,,,,,,,,,,,,,,,,,,,,,,,,,,,,,,,,,,,12,007,2022-09-23_15h46.17.823,test2,2022.2.4,60.40252715182012,
0,0,0,0,154,0,154,0,994.5088109740027,994.5088109740027,994.5088109740027,994.5088109740027,994.5088109740027,994.5088109740027,994.5088109740027,-1,1,azul,0,['N_B'],996.0941634370029,996.0941634370029,996.0941634370029,996.0941634370029,998.1306366320023,998.1306366320023,998.1306366320023,998.1306366320023,998.1306366320023,998.1306366320023,998.1306366320023,998.1306366320023,1000.165645473,1000.165645473,1000.165645473,1000.165645473,,,,,,,,,,,,,,,,,,,,,,,,,,,,,,,,,,,,,,,12,007,2022-09-23_15h46.17.823,test2,2022.2.4,60.40252715182012,
0,0,0,0,155,0,155,0,1000.165645473,1000.165645473,1000.165645473,1000.165645473,1000.165645473,1000.165645473,1000.165645473,1,-1,azul,0,['N_A'],1001.9513101970006,1001.9513101970006,1001.9513101970006,1001.9513101970006,1003.9870222180034,1003.9870222180034,1003.9870222180034,1003.9870222180034,1003.9870222180034,1003.9870222180034,1003.9870222180034,1003.9870222180034,1006.0227081590019,1006.0227081590019,1006.0227081590019,1006.0227081590019,,,,,,,,,,,,,,,,,,,,,,,,,,,,,,,,,,,,,,,12,007,2022-09-23_15h46.17.823,test2,2022.2.4,60.40252715182012,
0,0,0,0,156,0,156,0,1006.0227081590019,1006.0227081590019,1006.0227081590019,1006.0227081590019,1006.0227081590019,1006.0227081590019,1006.0227081590019,1,-1,rojo,0,['N_B'],1008.0412148950018,1008.0412148950018,1008.0412148950018,1008.0412148950018,1010.0763344360021,1010.0763344360021,1010.0763344360021,1010.0763344360021,1010.0763344360021,1010.0763344360021,1010.0763344360021,1010.0763344360021,1012.112528302001,1012.112528302001,1012.112528302001,1012.112528302001,,,,,,,,,,,,,,,,,,,,,,,,,,,,,,,,,,,,,,,12,007,2022-09-23_15h46.17.823,test2,2022.2.4,60.40252715182012,
0,0,0,0,157,0,157,0,1012.112528302001,1012.112528302001,1012.112528302001,1012.112528302001,1012.112528302001,1012.112528302001,1012.112528302001,-1,1,rojo,1,['N_B'],1014.3645347480015,1014.3645347480015,1014.3645347480015,1014.3645347480015,1016.4000986750034,1016.4000986750034,1016.4000986750034,1016.4000986750034,1016.4000986750034,1016.4000986750034,1016.4000986750034,1016.4000986750034,1018.4354993120032,1018.4354993120032,1018.4354993120032,1018.4354993120032,,,,,,,,,,,,,,,,,,,,,,,,,,,,,,,,,,,,,,,12,007,2022-09-23_15h46.17.823,test2,2022.2.4,60.40252715182012,
0,0,0,0,158,0,158,0,1018.4354993120032,1018.4354993120032,1018.4354993120032,1018.4354993120032,1018.4354993120032,1018.4354993120032,1018.4354993120032,-1,-1,rojo,1,['N_B'],1020.4039574750022,1020.4039574750022,1020.4039574750022,1020.4039574750022,1022.440647104002,1022.440647104002,1022.440647104002,1022.440647104002,1022.440647104002,1022.440647104002,1022.440647104002,1022.440647104002,1024.4759185580006,1024.4759185580006,1024.4759185580006,1024.4759185580006,,,,,,,,,,,,,,,,,,,,,,,,,,,,,,,,,,,,,,,12,007,2022-09-23_15h46.17.823,test2,2022.2.4,60.40252715182012,
0,0,0,0,159,0,159,0,1024.4759185580006,1024.4759185580006,1024.4759185580006,1024.4759185580006,1024.4759185580006,1024.4759185580006,1024.4759185580006,1,1,azul,1,['N_B'],1026.794744832001,1026.794744832001,1026.794744832001,1026.794744832001,1028.8307716680029,1028.8307716680029,1028.8307716680029,1028.8307716680029,1028.8307716680029,1028.8307716680029,1028.8307716680029,1028.8307716680029,1030.8655450610022,1030.8655450610022,1030.8655450610022,1030.8655450610022,,,,,,,,,,,,,,,,,,,,,,,,,,,,,,,,,,,,,,,12,007,2022-09-23_15h46.17.823,test2,2022.2.4,60.40252715182012,
0,0,0,0,160,0,160,0,1030.8655450610022,1030.8655450610022,1030.8655450610022,1030.8655450610022,1030.8655450610022,1030.8655450610022,1030.8655450610022,1,-1,azul,0,['N_A'],1032.617869847003,1032.617869847003,1032.617869847003,1032.617869847003,1034.653618735003,1034.653618735003,1034.653618735003,1034.653618735003,1034.653618735003,1034.653618735003,1034.653618735003,1034.653618735003,1036.6895482020009,1036.6895482020009,1036.6895482020009,1036.6895482020009,,,,,,,,,,,,,,,,,,,,,,,,,,,,,,,,,,,,,,,12,007,2022-09-23_15h46.17.823,test2,2022.2.4,60.40252715182012,
0,0,0,0,161,0,161,0,1036.6895482020009,1036.6895482020009,1036.6895482020009,1036.6895482020009,1036.6895482020009,1036.6895482020009,1036.6895482020009,1,-1,rojo,0,['N_B'],1038.7917988810004,1038.7917988810004,1038.7917988810004,1038.7917988810004,1040.827274055002,1040.827274055002,1040.827274055002,1040.827274055002,1040.827274055002,1040.827274055002,1040.827274055002,1040.827274055002,1042.8628331830005,1042.8628331830005,1042.8628331830005,1042.8628331830005,,,,,,,,,,,,,,,,,,,,,,,,,,,,,,,,,,,,,,,12,007,2022-09-23_15h46.17.823,test2,2022.2.4,60.40252715182012,
0,0,0,0,162,0,162,0,1042.8628331830005,1042.8628331830005,1042.8628331830005,1042.8628331830005,1042.8628331830005,1042.8628331830005,1042.8628331830005,1,1,azul,1,['N_B'],1047.0171139960003,1047.0171139960003,1047.0171139960003,1047.0171139960003,1049.0521502530028,1049.0521502530028,1049.0521502530028,1049.0521502530028,1049.0521502530028,1049.0521502530028,1049.0521502530028,1049.0521502530028,1051.0878543200015,1051.0878543200015,1051.0878543200015,1051.0878543200015,,,,,,,,,,,,,,,,,,,,,,,,,,,,,,,,,,,,,,,12,007,2022-09-23_15h46.17.823,test2,2022.2.4,60.40252715182012,
0,0,0,0,163,0,163,0,1051.0878543200015,1051.0878543200015,1051.0878543200015,1051.0878543200015,1051.0878543200015,1051.0878543200015,1051.0878543200015,-1,-1,rojo,0,['N_A'],1053.074525254,1053.074525254,1053.074525254,1053.074525254,1055.1099563470016,1055.1099563470016,1055.1099563470016,1055.1099563470016,1055.1099563470016,1055.1099563470016,1055.1099563470016,1055.1099563470016,1057.145254582003,1057.145254582003,1057.145254582003,1057.145254582003,,,,,,,,,,,,,,,,,,,,,,,,,,,,,,,,,,,,,,,12,007,2022-09-23_15h46.17.823,test2,2022.2.4,60.40252715182012,
0,0,0,0,164,0,164,0,1057.145254582003,1057.145254582003,1057.145254582003,1057.145254582003,1057.145254582003,1057.145254582003,1057.145254582003,1,-1,rojo,0,['N_B'],1059.7646162420024,1059.7646162420024,1059.7646162420024,1059.7646162420024,1061.7999646019998,1061.7999646019998,1061.7999646019998,1061.7999646019998,1061.7999646019998,1061.7999646019998,1061.7999646019998,1061.7999646019998,1063.8358626590016,1063.8358626590016,1063.8358626590016,1063.8358626590016,,,,,,,,,,,,,,,,,,,,,,,,,,,,,,,,,,,,,,,12,007,2022-09-23_15h46.17.823,test2,2022.2.4,60.40252715182012,
0,0,0,0,165,0,165,0,1063.8358626590016,1063.8358626590016,1063.8358626590016,1063.8358626590016,1063.8358626590016,1063.8358626590016,1063.8358626590016,1,-1,azul,1,['N_B'],1068.7247138600032,1068.7247138600032,1068.7247138600032,1068.7247138600032,1070.760005504002,1070.760005504002,1070.760005504002,1070.760005504002,1070.760005504002,1070.760005504002,1070.760005504002,1070.760005504002,1072.7951165490012,1072.7951165490012,1072.7951165490012,1072.7951165490012,,,,,,,,,,,,,,,,,,,,,,,,,,,,,,,,,,,,,,,12,007,2022-09-23_15h46.17.823,test2,2022.2.4,60.40252715182012,
0,0,0,0,166,0,166,0,1072.7951165490012,1072.7951165490012,1072.7951165490012,1072.7951165490012,1072.7951165490012,1072.7951165490012,1072.7951165490012,1,-1,azul,0,['N_A'],1076.0821885210025,1076.0821885210025,1076.0821885210025,1076.0821885210025,1078.1168824220003,1078.1168824220003,1078.1168824220003,1078.1168824220003,1078.1168824220003,1078.1168824220003,1078.1168824220003,1078.1168824220003,1080.1533399979999,1080.1533399979999,1080.1533399979999,1080.1533399979999,,,,,,,,,,,,,,,,,,,,,,,,,,,,,,,,,,,,,,,12,007,2022-09-23_15h46.17.823,test2,2022.2.4,60.40252715182012,
0,0,0,0,167,0,167,0,1080.1533399979999,1080.1533399979999,1080.1533399979999,1080.1533399979999,1080.1533399979999,1080.1533399979999,1080.1533399979999,1,-1,rojo,0,['N_B'],1082.1890113580012,1082.1890113580012,1082.1890113580012,1082.1890113580012,1084.225156186003,1084.225156186003,1084.225156186003,1084.225156186003,1084.225156186003,1084.225156186003,1084.225156186003,1084.225156186003,1086.2608700370001,1086.2608700370001,1086.2608700370001,1086.2608700370001,,,,,,,,,,,,,,,,,,,,,,,,,,,,,,,,,,,,,,,12,007,2022-09-23_15h46.17.823,test2,2022.2.4,60.40252715182012,
0,0,0,0,168,0,168,0,1086.2608700370001,1086.2608700370001,1086.2608700370001,1086.2608700370001,1086.2608700370001,1086.2608700370001,1086.2608700370001,-1,1,rojo,1,['N_B'],1089.3145288020023,1089.3145288020023,1089.3145288020023,1089.3145288020023,1091.3329103880023,1091.3329103880023,1091.3329103880023,1091.3329103880023,1091.3329103880023,1091.3329103880023,1091.3329103880023,1091.3329103880023,1093.3691704800003,1093.3691704800003,1093.3691704800003,1093.3691704800003,,,,,,,,,,,,,,,,,,,,,,,,,,,,,,,,,,,,,,,12,007,2022-09-23_15h46.17.823,test2,2022.2.4,60.40252715182012,
0,0,0,0,169,0,169,0,1093.3691704800003,1093.3691704800003,1093.3691704800003,1093.3691704800003,1093.3691704800003,1093.3691704800003,1093.3691704800003,1,1,azul,1,['N_B'],1098.5067858680013,1098.5067858680013,1098.5067858680013,1098.5067858680013,1100.5432302290028,1100.5432302290028,1100.5432302290028,1100.5432302290028,1100.5432302290028,1100.5432302290028,1100.5432302290028,1100.5432302290028,1102.578200576001,1102.578200576001,1102.578200576001,1102.578200576001,,,,,,,,,,,,,,,,,,,,,,,,,,,,,,,,,,,,,,,12,007,2022-09-23_15h46.17.823,test2,2022.2.4,60.40252715182012,
0,0,0,0,170,0,170,0,1102.578200576001,1102.578200576001,1102.578200576001,1102.578200576001,1102.578200576001,1102.578200576001,1102.578200576001,-1,-1,rojo,1,['N_B'],1104.680952068,1104.680952068,1104.680952068,1104.680952068,1106.714987452,1106.714987452,1106.714987452,1106.714987452,1106.714987452,1106.714987452,1106.714987452,1106.714987452,1108.751925061002,1108.751925061002,1108.751925061002,1108.751925061002,,,,,,,,,,,,,,,,,,,,,,,,,,,,,,,,,,,,,,,12,007,2022-09-23_15h46.17.823,test2,2022.2.4,60.40252715182012,
0,0,0,0,171,0,171,0,1108.751925061002,1108.751925061002,1108.751925061002,1108.751925061002,1108.751925061002,1108.751925061002,1108.751925061002,1,-1,azul,1,['N_B'],1117.0603284300014,1117.0603284300014,1117.0603284300014,1117.0603284300014,1119.0974367280032,1119.0974367280032,1119.0974367280032,1119.0974367280032,1119.0974367280032,1119.0974367280032,1119.0974367280032,1119.0974367280032,1121.1323038450028,1121.1323038450028,1121.1323038450028,1121.1323038450028,,,,,,,,,,,,,,,,,,,,,,,,,,,,,,,,,,,,,,,12,007,2022-09-23_15h46.17.823,test2,2022.2.4,60.40252715182012,
0,0,0,0,172,0,172,0,1121.1323038450028,1121.1323038450028,1121.1323038450028,1121.1323038450028,1121.1323038450028,1121.1323038450028,1121.1323038450028,1,-1,azul,1,['N_B'],1123.2849105890018,1123.2849105890018,1123.2849105890018,1123.2849105890018,1125.3207752940034,1125.3207752940034,1125.3207752940034,1125.3207752940034,1125.3207752940034,1125.3207752940034,1125.3207752940034,1125.3207752940034,1127.3558577250005,1127.3558577250005,1127.3558577250005,1127.3558577250005,,,,,,,,,,,,,,,,,,,,,,,,,,,,,,,,,,,,,,,12,007,2022-09-23_15h46.17.823,test2,2022.2.4,60.40252715182012,
0,0,0,0,173,0,173,0,1127.3558577250005,1127.3558577250005,1127.3558577250005,1127.3558577250005,1127.3558577250005,1127.3558577250005,1127.3558577250005,1,-1,azul,1,['N_B'],1128.9074195070025,1128.9074195070025,1128.9074195070025,1128.9074195070025,1130.9430138920034,1130.9430138920034,1130.9430138920034,1130.9430138920034,1130.9430138920034,1130.9430138920034,1130.9430138920034,1130.9430138920034,1132.9784780320006,1132.9784780320006,1132.9784780320006,1132.9784780320006,,,,,,,,,,,,,,,,,,,,,,,,,,,,,,,,,,,,,,,12,007,2022-09-23_15h46.17.823,test2,2022.2.4,60.40252715182012,
0,0,0,0,174,0,174,0,1132.9784780320006,1132.9784780320006,1132.9784780320006,1132.9784780320006,1132.9784780320006,1132.9784780320006,1132.9784780320006,1,-1,azul,0,['N_A'],1134.6971001520033,1134.6971001520033,1134.6971001520033,1134.6971001520033,1136.733143425001,1136.733143425001,1136.733143425001,1136.733143425001,1136.733143425001,1136.733143425001,1136.733143425001,1136.733143425001,1138.7683766890004,1138.7683766890004,1138.7683766890004,1138.7683766890004,,,,,,,,,,,,,,,,,,,,,,,,,,,,,,,,,,,,,,,12,007,2022-09-23_15h46.17.823,test2,2022.2.4,60.40252715182012,
0,0,0,0,175,0,175,0,1138.7683766890004,1138.7683766890004,1138.7683766890004,1138.7683766890004,1138.7683766890004,1138.7683766890004,1138.7683766890004,1,-1,rojo,0,['N_B'],1140.2696112490012,1140.2696112490012,1140.2696112490012,1140.2696112490012,1142.3063950060023,1142.3063950060023,1142.3063950060023,1142.3063950060023,1142.3063950060023,1142.3063950060023,1142.3063950060023,1142.3063950060023,1144.341620487001,1144.341620487001,1144.341620487001,1144.341620487001,,,,,,,,,,,,,,,,,,,,,,,,,,,,,,,,,,,,,,,12,007,2022-09-23_15h46.17.823,test2,2022.2.4,60.40252715182012,
