trials_2.thisRepN,trials_2.thisTrialN,trials_2.thisN,trials_2.thisIndex,trials.thisRepN,trials.thisTrialN,trials.thisN,trials.thisIndex,Instrucción2.started,N_A_4.started,N_B_4.started,Exitos_3.started,Dias_3.started,Stimuli_1.started,Stimuli_2.started,Transitions,Rewards,Mode,Stay,Neighbour,Stimuli_3.started,Modo.started,Dias2.started,Exitos2.started,Stimuli_3.stopped,Modo.stopped,Dias2.stopped,Exitos2.stopped,Reward.started,Stimuli_reward.started,Exitos3.started,Dias3.started,Reward.stopped,Stimuli_reward.stopped,Exitos3.stopped,Dias3.stopped,Cue_text.started,Stimuli_4.started,Exitos4.started,Dias4.started,Stimuli_3_3.started,Stimuli_2_3.started,Instrucción.started,N_A.started,N_B.started,N_C.started,Exitos_2.started,Dias_2.started,Stimuli_1_3.started,Stimuli_3_2.started,Stimuli_2_2.started,Pregunta.started,N_A_2.started,N_B_2.started,N_C_2.started,Exitos5.started,Dias5.started,Stimuli_1_2.started,Resp_final_1,Modo2.started,Modo1.started,Pregunta_4.started,Modo3.started,Exitos7.started,Dias6.started,Resp_final_2,Modo1_2.started,Pregunta_3.started,Modo2_2.started,Exitos8.started,Dias7.started,Resp_final_3,Mensaje_Final2.started,Exitos6.started,participant,session,date,expName,psychopyVersion,frameRate,
0,0,0,0,0,0,0,0,2100.634245964,2100.634245964,2100.634245964,2100.634245964,2100.634245964,2100.634245964,2100.634245964,0,0,0,0,['N_B'],2122.65793054,2122.65793054,2122.65793054,2122.65793054,2124.7269409769997,2124.7269409769997,2124.7269409769997,2124.7269409769997,2124.7269409769997,2124.7269409769997,2124.7269409769997,2124.7269409769997,2126.7633304409997,2126.7633304409997,2126.7633304409997,2126.7633304409997,,,,,,,,,,,,,,,,,,,,,,,,,,,,,,,,,,,,,,,14,005,2022-09-23_10h39.20.146,test2,2022.2.4,59.95660089407777,
0,0,0,0,1,0,1,0,2126.7633304409997,2126.7633304409997,2126.7633304409997,2126.7633304409997,2126.7633304409997,2126.7633304409997,2126.7633304409997,1,1,azul,1,['N_B'],2131.334778053,2131.334778053,2131.334778053,2131.334778053,2133.420255344,2133.420255344,2133.420255344,2133.420255344,2133.420255344,2133.420255344,2133.420255344,2133.420255344,2135.4552410879996,2135.4552410879996,2135.4552410879996,2135.4552410879996,,,,,,,,,,,,,,,,,,,,,,,,,,,,,,,,,,,,,,,14,005,2022-09-23_10h39.20.146,test2,2022.2.4,59.95660089407777,
0,0,0,0,2,0,2,0,2135.4552410879996,2135.4552410879996,2135.4552410879996,2135.4552410879996,2135.4552410879996,2135.4552410879996,2135.4552410879996,1,-1,azul,0,['N_A'],2143.847972147,2143.847972147,2143.847972147,2143.847972147,2145.8842371829996,2145.8842371829996,2145.8842371829996,2145.8842371829996,2145.8842371829996,2145.8842371829996,2145.8842371829996,2145.8842371829996,2147.920161601,2147.920161601,2147.920161601,2147.920161601,,,,,,,,,,,,,,,,,,,,,,,,,,,,,,,,,,,,,,,14,005,2022-09-23_10h39.20.146,test2,2022.2.4,59.95660089407777,
0,0,0,0,3,0,3,0,2147.920161601,2147.920161601,2147.920161601,2147.920161601,2147.920161601,2147.920161601,2147.920161601,-1,-1,azul,1,['N_A'],2149.872139654,2149.872139654,2149.872139654,2149.872139654,2151.907390241,2151.907390241,2151.907390241,2151.907390241,2151.907390241,2151.907390241,2151.907390241,2151.907390241,2153.9425804979996,2153.9425804979996,2153.9425804979996,2153.9425804979996,,,,,,,,,,,,,,,,,,,,,,,,,,,,,,,,,,,,,,,14,005,2022-09-23_10h39.20.146,test2,2022.2.4,59.95660089407777,
0,0,0,0,4,0,4,0,2153.9425804979996,2153.9425804979996,2153.9425804979996,2153.9425804979996,2153.9425804979996,2153.9425804979996,2153.9425804979996,-1,-1,azul,1,['N_A'],2155.394942718,2155.394942718,2155.394942718,2155.394942718,2157.4305202309997,2157.4305202309997,2157.4305202309997,2157.4305202309997,2157.4305202309997,2157.4305202309997,2157.4305202309997,2157.4305202309997,2159.4663258349997,2159.4663258349997,2159.4663258349997,2159.4663258349997,,,,,,,,,,,,,,,,,,,,,,,,,,,,,,,,,,,,,,,14,005,2022-09-23_10h39.20.146,test2,2022.2.4,59.95660089407777,
0,0,0,0,5,0,5,0,2159.4663258349997,2159.4663258349997,2159.4663258349997,2159.4663258349997,2159.4663258349997,2159.4663258349997,2159.4663258349997,1,-1,rojo,0,['N_B'],2161.31798699,2161.31798699,2161.31798699,2161.31798699,2163.3536376939996,2163.3536376939996,2163.3536376939996,2163.3536376939996,2163.3536376939996,2163.3536376939996,2163.3536376939996,2163.3536376939996,2165.388650214,2165.388650214,2165.388650214,2165.388650214,,,,,,,,,,,,,,,,,,,,,,,,,,,,,,,,,,,,,,,14,005,2022-09-23_10h39.20.146,test2,2022.2.4,59.95660089407777,
0,0,0,0,6,0,6,0,2165.388650214,2165.388650214,2165.388650214,2165.388650214,2165.388650214,2165.388650214,2165.388650214,1,1,azul,0,['N_A'],2167.658606944,2167.658606944,2167.658606944,2167.658606944,2169.694110343,2169.694110343,2169.694110343,2169.694110343,2169.694110343,2169.694110343,2169.694110343,2169.694110343,2171.728826084,2171.728826084,2171.728826084,2171.728826084,,,,,,,,,,,,,,,,,,,,,,,,,,,,,,,,,,,,,,,14,005,2022-09-23_10h39.20.146,test2,2022.2.4,59.95660089407777,
0,0,0,0,7,0,7,0,2171.728826084,2171.728826084,2171.728826084,2171.728826084,2171.728826084,2171.728826084,2171.728826084,-1,-1,azul,0,['N_B'],2173.514650324,2173.514650324,2173.514650324,2173.514650324,2175.550025903,2175.550025903,2175.550025903,2175.550025903,2175.550025903,2175.550025903,2175.550025903,2175.550025903,2177.586159382,2177.586159382,2177.586159382,2177.586159382,,,,,,,,,,,,,,,,,,,,,,,,,,,,,,,,,,,,,,,14,005,2022-09-23_10h39.20.146,test2,2022.2.4,59.95660089407777,
0,0,0,0,8,0,8,0,2177.586159382,2177.586159382,2177.586159382,2177.586159382,2177.586159382,2177.586159382,2177.586159382,1,1,azul,1,['N_B'],2179.2380495849998,2179.2380495849998,2179.2380495849998,2179.2380495849998,2181.256104236,2181.256104236,2181.256104236,2181.256104236,2181.256104236,2181.256104236,2181.256104236,2181.256104236,2183.2916736439997,2183.2916736439997,2183.2916736439997,2183.2916736439997,,,,,,,,,,,,,,,,,,,,,,,,,,,,,,,,,,,,,,,14,005,2022-09-23_10h39.20.146,test2,2022.2.4,59.95660089407777,
0,0,0,0,9,0,9,0,2183.2916736439997,2183.2916736439997,2183.2916736439997,2183.2916736439997,2183.2916736439997,2183.2916736439997,2183.2916736439997,1,1,azul,1,['N_B'],2185.361219913,2185.361219913,2185.361219913,2185.361219913,2187.396889698,2187.396889698,2187.396889698,2187.396889698,2187.396889698,2187.396889698,2187.396889698,2187.396889698,2189.432257229,2189.432257229,2189.432257229,2189.432257229,,,,,,,,,,,,,,,,,,,,,,,,,,,,,,,,,,,,,,,14,005,2022-09-23_10h39.20.146,test2,2022.2.4,59.95660089407777,
0,0,0,0,10,0,10,0,2189.432257229,2189.432257229,2189.432257229,2189.432257229,2189.432257229,2189.432257229,2189.432257229,1,-1,azul,1,['N_B'],2193.920714171,2193.920714171,2193.920714171,2193.920714171,2195.9565172049997,2195.9565172049997,2195.9565172049997,2195.9565172049997,2195.9565172049997,2195.9565172049997,2195.9565172049997,2195.9565172049997,2197.991514948,2197.991514948,2197.991514948,2197.991514948,,,,,,,,,,,,,,,,,,,,,,,,,,,,,,,,,,,,,,,14,005,2022-09-23_10h39.20.146,test2,2022.2.4,59.95660089407777,
0,0,0,0,11,0,11,0,2197.991514948,2197.991514948,2197.991514948,2197.991514948,2197.991514948,2197.991514948,2197.991514948,1,1,azul,1,['N_B'],2200.544437941,2200.544437941,2200.544437941,2200.544437941,2202.580369293,2202.580369293,2202.580369293,2202.580369293,2202.580369293,2202.580369293,2202.580369293,2202.580369293,2204.61482996,2204.61482996,2204.61482996,2204.61482996,,,,,,,,,,,,,,,,,,,,,,,,,,,,,,,,,,,,,,,14,005,2022-09-23_10h39.20.146,test2,2022.2.4,59.95660089407777,
0,0,0,0,12,0,12,0,2204.61482996,2204.61482996,2204.61482996,2204.61482996,2204.61482996,2204.61482996,2204.61482996,1,-1,azul,1,['N_B'],2205.933672699,2205.933672699,2205.933672699,2205.933672699,2207.969308113,2207.969308113,2207.969308113,2207.969308113,2207.969308113,2207.969308113,2207.969308113,2207.969308113,2210.005377314,2210.005377314,2210.005377314,2210.005377314,,,,,,,,,,,,,,,,,,,,,,,,,,,,,,,,,,,,,,,14,005,2022-09-23_10h39.20.146,test2,2022.2.4,59.95660089407777,
0,0,0,0,13,0,13,0,2210.005377314,2210.005377314,2210.005377314,2210.005377314,2210.005377314,2210.005377314,2210.005377314,1,-1,azul,1,['N_B'],2212.858765258,2212.858765258,2212.858765258,2212.858765258,2214.8941804419997,2214.8941804419997,2214.8941804419997,2214.8941804419997,2214.8941804419997,2214.8941804419997,2214.8941804419997,2214.8941804419997,2216.929121521,2216.929121521,2216.929121521,2216.929121521,,,,,,,,,,,,,,,,,,,,,,,,,,,,,,,,,,,,,,,14,005,2022-09-23_10h39.20.146,test2,2022.2.4,59.95660089407777,
0,0,0,0,14,0,14,0,2216.929121521,2216.929121521,2216.929121521,2216.929121521,2216.929121521,2216.929121521,2216.929121521,-1,1,rojo,1,['N_B'],2219.0815790429997,2219.0815790429997,2219.0815790429997,2219.0815790429997,2221.1176742089997,2221.1176742089997,2221.1176742089997,2221.1176742089997,2221.1176742089997,2221.1176742089997,2221.1176742089997,2221.1176742089997,2223.1525882359997,2223.1525882359997,2223.1525882359997,2223.1525882359997,,,,,,,,,,,,,,,,,,,,,,,,,,,,,,,,,,,,,,,14,005,2022-09-23_10h39.20.146,test2,2022.2.4,59.95660089407777,
0,0,0,0,15,0,15,0,2223.1525882359997,2223.1525882359997,2223.1525882359997,2223.1525882359997,2223.1525882359997,2223.1525882359997,2223.1525882359997,-1,-1,rojo,0,['N_A'],2224.737518695,2224.737518695,2224.737518695,2224.737518695,2226.7736686129997,2226.7736686129997,2226.7736686129997,2226.7736686129997,2226.7736686129997,2226.7736686129997,2226.7736686129997,2226.7736686129997,2228.809379341,2228.809379341,2228.809379341,2228.809379341,,,,,,,,,,,,,,,,,,,,,,,,,,,,,,,,,,,,,,,14,005,2022-09-23_10h39.20.146,test2,2022.2.4,59.95660089407777,
0,0,0,0,16,0,16,0,2228.809379341,2228.809379341,2228.809379341,2228.809379341,2228.809379341,2228.809379341,2228.809379341,1,-1,rojo,1,['N_A'],2230.744530573,2230.744530573,2230.744530573,2230.744530573,2232.780126286,2232.780126286,2232.780126286,2232.780126286,2232.780126286,2232.780126286,2232.780126286,2232.780126286,2234.815190214,2234.815190214,2234.815190214,2234.815190214,,,,,,,,,,,,,,,,,,,,,,,,,,,,,,,,,,,,,,,14,005,2022-09-23_10h39.20.146,test2,2022.2.4,59.95660089407777,
0,0,0,0,17,0,17,0,2234.815190214,2234.815190214,2234.815190214,2234.815190214,2234.815190214,2234.815190214,2234.815190214,-1,-1,azul,0,['N_B'],2236.434275968,2236.434275968,2236.434275968,2236.434275968,2238.469320072,2238.469320072,2238.469320072,2238.469320072,2238.469320072,2238.469320072,2238.469320072,2238.469320072,2240.5054650469997,2240.5054650469997,2240.5054650469997,2240.5054650469997,,,,,,,,,,,,,,,,,,,,,,,,,,,,,,,,,,,,,,,14,005,2022-09-23_10h39.20.146,test2,2022.2.4,59.95660089407777,
0,0,0,0,18,0,18,0,2240.5054650469997,2240.5054650469997,2240.5054650469997,2240.5054650469997,2240.5054650469997,2240.5054650469997,2240.5054650469997,-1,-1,rojo,1,['N_B'],2242.006333977,2242.006333977,2242.006333977,2242.006333977,2244.0431667459998,2244.0431667459998,2244.0431667459998,2244.0431667459998,2244.0431667459998,2244.0431667459998,2244.0431667459998,2244.0431667459998,2246.078066563,2246.078066563,2246.078066563,2246.078066563,,,,,,,,,,,,,,,,,,,,,,,,,,,,,,,,,,,,,,,14,005,2022-09-23_10h39.20.146,test2,2022.2.4,59.95660089407777,
0,0,0,0,19,0,19,0,2246.078066563,2246.078066563,2246.078066563,2246.078066563,2246.078066563,2246.078066563,2246.078066563,1,1,azul,1,['N_B'],2247.546072866,2247.546072866,2247.546072866,2247.546072866,2249.5646272599997,2249.5646272599997,2249.5646272599997,2249.5646272599997,2249.5646272599997,2249.5646272599997,2249.5646272599997,2249.5646272599997,2251.600496749,2251.600496749,2251.600496749,2251.600496749,,,,,,,,,,,,,,,,,,,,,,,,,,,,,,,,,,,,,,,14,005,2022-09-23_10h39.20.146,test2,2022.2.4,59.95660089407777,
0,0,0,0,20,0,20,0,2251.600496749,2251.600496749,2251.600496749,2251.600496749,2251.600496749,2251.600496749,2251.600496749,1,1,azul,1,['N_B'],2253.235548833,2253.235548833,2253.235548833,2253.235548833,2255.272145287,2255.272145287,2255.272145287,2255.272145287,2255.272145287,2255.272145287,2255.272145287,2255.272145287,2257.3067731389997,2257.3067731389997,2257.3067731389997,2257.3067731389997,,,,,,,,,,,,,,,,,,,,,,,,,,,,,,,,,,,,,,,14,005,2022-09-23_10h39.20.146,test2,2022.2.4,59.95660089407777,
0,0,0,0,21,0,21,0,2257.3067731389997,2257.3067731389997,2257.3067731389997,2257.3067731389997,2257.3067731389997,2257.3067731389997,2257.3067731389997,1,-1,azul,1,['N_B'],2259.6430354999998,2259.6430354999998,2259.6430354999998,2259.6430354999998,2261.6789745809997,2261.6789745809997,2261.6789745809997,2261.6789745809997,2261.6789745809997,2261.6789745809997,2261.6789745809997,2261.6789745809997,2263.713769347,2263.713769347,2263.713769347,2263.713769347,,,,,,,,,,,,,,,,,,,,,,,,,,,,,,,,,,,,,,,14,005,2022-09-23_10h39.20.146,test2,2022.2.4,59.95660089407777,
0,0,0,0,22,0,22,0,2263.713769347,2263.713769347,2263.713769347,2263.713769347,2263.713769347,2263.713769347,2263.713769347,-1,1,rojo,1,['N_B'],2267.6681896719997,2267.6681896719997,2267.6681896719997,2267.6681896719997,2269.704326401,2269.704326401,2269.704326401,2269.704326401,2269.704326401,2269.704326401,2269.704326401,2269.704326401,2271.740124293,2271.740124293,2271.740124293,2271.740124293,,,,,,,,,,,,,,,,,,,,,,,,,,,,,,,,,,,,,,,14,005,2022-09-23_10h39.20.146,test2,2022.2.4,59.95660089407777,
0,0,0,0,23,0,23,0,2271.740124293,2271.740124293,2271.740124293,2271.740124293,2271.740124293,2271.740124293,2271.740124293,1,-1,azul,0,['N_A'],2273.3580181869997,2273.3580181869997,2273.3580181869997,2273.3580181869997,2275.39419009,2275.39419009,2275.39419009,2275.39419009,2275.39419009,2275.39419009,2275.39419009,2275.39419009,2277.428552281,2277.428552281,2277.428552281,2277.428552281,,,,,,,,,,,,,,,,,,,,,,,,,,,,,,,,,,,,,,,14,005,2022-09-23_10h39.20.146,test2,2022.2.4,59.95660089407777,
0,0,0,0,24,0,24,0,2277.428552281,2277.428552281,2277.428552281,2277.428552281,2277.428552281,2277.428552281,2277.428552281,1,-1,rojo,1,['N_A'],2279.915598691,2279.915598691,2279.915598691,2279.915598691,2281.9506439819997,2281.9506439819997,2281.9506439819997,2281.9506439819997,2281.9506439819997,2281.9506439819997,2281.9506439819997,2281.9506439819997,2283.985912755,2283.985912755,2283.985912755,2283.985912755,,,,,,,,,,,,,,,,,,,,,,,,,,,,,,,,,,,,,,,14,005,2022-09-23_10h39.20.146,test2,2022.2.4,59.95660089407777,
0,0,0,0,25,0,25,0,2283.985912755,2283.985912755,2283.985912755,2283.985912755,2283.985912755,2283.985912755,2283.985912755,1,-1,rojo,0,['N_B'],2285.471391783,2285.471391783,2285.471391783,2285.471391783,2287.506767041,2287.506767041,2287.506767041,2287.506767041,2287.506767041,2287.506767041,2287.506767041,2287.506767041,2289.542538446,2289.542538446,2289.542538446,2289.542538446,,,,,,,,,,,,,,,,,,,,,,,,,,,,,,,,,,,,,,,14,005,2022-09-23_10h39.20.146,test2,2022.2.4,59.95660089407777,
0,0,0,0,26,0,26,0,2289.542538446,2289.542538446,2289.542538446,2289.542538446,2289.542538446,2289.542538446,2289.542538446,1,1,azul,1,['N_B'],2291.01120468,2291.01120468,2291.01120468,2291.01120468,2293.046255012,2293.046255012,2293.046255012,2293.046255012,2293.046255012,2293.046255012,2293.046255012,2293.046255012,2295.082511539,2295.082511539,2295.082511539,2295.082511539,,,,,,,,,,,,,,,,,,,,,,,,,,,,,,,,,,,,,,,14,005,2022-09-23_10h39.20.146,test2,2022.2.4,59.95660089407777,
0,0,0,0,27,0,27,0,2295.082511539,2295.082511539,2295.082511539,2295.082511539,2295.082511539,2295.082511539,2295.082511539,1,-1,azul,0,['N_A'],2297.334121131,2297.334121131,2297.334121131,2297.334121131,2299.3707320569997,2299.3707320569997,2299.3707320569997,2299.3707320569997,2299.3707320569997,2299.3707320569997,2299.3707320569997,2299.3707320569997,2301.4063286359997,2301.4063286359997,2301.4063286359997,2301.4063286359997,,,,,,,,,,,,,,,,,,,,,,,,,,,,,,,,,,,,,,,14,005,2022-09-23_10h39.20.146,test2,2022.2.4,59.95660089407777,
0,0,0,0,28,0,28,0,2301.4063286359997,2301.4063286359997,2301.4063286359997,2301.4063286359997,2301.4063286359997,2301.4063286359997,2301.4063286359997,1,-1,rojo,0,['N_B'],2302.874273266,2302.874273266,2302.874273266,2302.874273266,2304.909412296,2304.909412296,2304.909412296,2304.909412296,2304.909412296,2304.909412296,2304.909412296,2304.909412296,2306.944890574,2306.944890574,2306.944890574,2306.944890574,,,,,,,,,,,,,,,,,,,,,,,,,,,,,,,,,,,,,,,14,005,2022-09-23_10h39.20.146,test2,2022.2.4,59.95660089407777,
0,0,0,0,29,0,29,0,2306.944890574,2306.944890574,2306.944890574,2306.944890574,2306.944890574,2306.944890574,2306.944890574,1,-1,azul,1,['N_B'],2310.382147205,2310.382147205,2310.382147205,2310.382147205,2312.418255428,2312.418255428,2312.418255428,2312.418255428,2312.418255428,2312.418255428,2312.418255428,2312.418255428,2314.4531091629997,2314.4531091629997,2314.4531091629997,2314.4531091629997,,,,,,,,,,,,,,,,,,,,,,,,,,,,,,,,,,,,,,,14,005,2022-09-23_10h39.20.146,test2,2022.2.4,59.95660089407777,
0,0,0,0,30,0,30,0,2314.4531091629997,2314.4531091629997,2314.4531091629997,2314.4531091629997,2314.4531091629997,2314.4531091629997,2314.4531091629997,-1,1,rojo,0,['N_A'],2316.955799926,2316.955799926,2316.955799926,2316.955799926,2318.9920040849997,2318.9920040849997,2318.9920040849997,2318.9920040849997,2318.9920040849997,2318.9920040849997,2318.9920040849997,2318.9920040849997,2321.027504748,2321.027504748,2321.027504748,2321.027504748,,,,,,,,,,,,,,,,,,,,,,,,,,,,,,,,,,,,,,,14,005,2022-09-23_10h39.20.146,test2,2022.2.4,59.95660089407777,
0,0,0,0,31,0,31,0,2321.027504748,2321.027504748,2321.027504748,2321.027504748,2321.027504748,2321.027504748,2321.027504748,-1,-1,azul,1,['N_A'],2322.912734037,2322.912734037,2322.912734037,2322.912734037,2324.948397183,2324.948397183,2324.948397183,2324.948397183,2324.948397183,2324.948397183,2324.948397183,2324.948397183,2326.983817125,2326.983817125,2326.983817125,2326.983817125,,,,,,,,,,,,,,,,,,,,,,,,,,,,,,,,,,,,,,,14,005,2022-09-23_10h39.20.146,test2,2022.2.4,59.95660089407777,
0,0,0,0,32,0,32,0,2326.983817125,2326.983817125,2326.983817125,2326.983817125,2326.983817125,2326.983817125,2326.983817125,1,1,rojo,1,['N_A'],2329.5706084999997,2329.5706084999997,2329.5706084999997,2329.5706084999997,2331.5885621099997,2331.5885621099997,2331.5885621099997,2331.5885621099997,2331.5885621099997,2331.5885621099997,2331.5885621099997,2331.5885621099997,2333.624257651,2333.624257651,2333.624257651,2333.624257651,,,,,,,,,,,,,,,,,,,,,,,,,,,,,,,,,,,,,,,14,005,2022-09-23_10h39.20.146,test2,2022.2.4,59.95660089407777,
0,0,0,0,33,0,33,0,2333.624257651,2333.624257651,2333.624257651,2333.624257651,2333.624257651,2333.624257651,2333.624257651,1,1,rojo,1,['N_A'],2335.126067612,2335.126067612,2335.126067612,2335.126067612,2337.1614941119997,2337.1614941119997,2337.1614941119997,2337.1614941119997,2337.1614941119997,2337.1614941119997,2337.1614941119997,2337.1614941119997,2339.196970218,2339.196970218,2339.196970218,2339.196970218,,,,,,,,,,,,,,,,,,,,,,,,,,,,,,,,,,,,,,,14,005,2022-09-23_10h39.20.146,test2,2022.2.4,59.95660089407777,
0,0,0,0,34,0,34,0,2339.196970218,2339.196970218,2339.196970218,2339.196970218,2339.196970218,2339.196970218,2339.196970218,1,-1,rojo,1,['N_A'],2340.6486591149996,2340.6486591149996,2340.6486591149996,2340.6486591149996,2342.6844513799997,2342.6844513799997,2342.6844513799997,2342.6844513799997,2342.6844513799997,2342.6844513799997,2342.6844513799997,2342.6844513799997,2344.7201917049997,2344.7201917049997,2344.7201917049997,2344.7201917049997,,,,,,,,,,,,,,,,,,,,,,,,,,,,,,,,,,,,,,,14,005,2022-09-23_10h39.20.146,test2,2022.2.4,59.95660089407777,
0,0,0,0,35,0,35,0,2344.7201917049997,2344.7201917049997,2344.7201917049997,2344.7201917049997,2344.7201917049997,2344.7201917049997,2344.7201917049997,1,1,rojo,1,['N_A'],2346.205301387,2346.205301387,2346.205301387,2346.205301387,2348.2235250559997,2348.2235250559997,2348.2235250559997,2348.2235250559997,2348.2235250559997,2348.2235250559997,2348.2235250559997,2348.2235250559997,2350.259609916,2350.259609916,2350.259609916,2350.259609916,,,,,,,,,,,,,,,,,,,,,,,,,,,,,,,,,,,,,,,14,005,2022-09-23_10h39.20.146,test2,2022.2.4,59.95660089407777,
0,0,0,0,36,0,36,0,2350.259609916,2350.259609916,2350.259609916,2350.259609916,2350.259609916,2350.259609916,2350.259609916,1,1,rojo,1,['N_A'],2351.777621078,2351.777621078,2351.777621078,2351.777621078,2353.8134684419997,2353.8134684419997,2353.8134684419997,2353.8134684419997,2353.8134684419997,2353.8134684419997,2353.8134684419997,2353.8134684419997,2355.849247137,2355.849247137,2355.849247137,2355.849247137,,,,,,,,,,,,,,,,,,,,,,,,,,,,,,,,,,,,,,,14,005,2022-09-23_10h39.20.146,test2,2022.2.4,59.95660089407777,
0,0,0,0,37,0,37,0,2355.849247137,2355.849247137,2355.849247137,2355.849247137,2355.849247137,2355.849247137,2355.849247137,1,-1,rojo,0,['N_B'],2357.3173446839996,2357.3173446839996,2357.3173446839996,2357.3173446839996,2359.352767376,2359.352767376,2359.352767376,2359.352767376,2359.352767376,2359.352767376,2359.352767376,2359.352767376,2361.3884385379997,2361.3884385379997,2361.3884385379997,2361.3884385379997,,,,,,,,,,,,,,,,,,,,,,,,,,,,,,,,,,,,,,,14,005,2022-09-23_10h39.20.146,test2,2022.2.4,59.95660089407777,
0,0,0,0,38,0,38,0,2361.3884385379997,2361.3884385379997,2361.3884385379997,2361.3884385379997,2361.3884385379997,2361.3884385379997,2361.3884385379997,1,1,azul,1,['N_B'],2362.840174632,2362.840174632,2362.840174632,2362.840174632,2364.875851503,2364.875851503,2364.875851503,2364.875851503,2364.875851503,2364.875851503,2364.875851503,2364.875851503,2366.911621716,2366.911621716,2366.911621716,2366.911621716,,,,,,,,,,,,,,,,,,,,,,,,,,,,,,,,,,,,,,,14,005,2022-09-23_10h39.20.146,test2,2022.2.4,59.95660089407777,
0,0,0,0,39,0,39,0,2366.911621716,2366.911621716,2366.911621716,2366.911621716,2366.911621716,2366.911621716,2366.911621716,-1,-1,rojo,1,['N_B'],2368.480105569,2368.480105569,2368.480105569,2368.480105569,2370.5153838419997,2370.5153838419997,2370.5153838419997,2370.5153838419997,2370.5153838419997,2370.5153838419997,2370.5153838419997,2370.5153838419997,2372.550857187,2372.550857187,2372.550857187,2372.550857187,,,,,,,,,,,,,,,,,,,,,,,,,,,,,,,,,,,,,,,14,005,2022-09-23_10h39.20.146,test2,2022.2.4,59.95660089407777,
0,0,0,0,40,0,40,0,2372.550857187,2372.550857187,2372.550857187,2372.550857187,2372.550857187,2372.550857187,2372.550857187,-1,-1,rojo,0,['N_A'],2374.486302277,2374.486302277,2374.486302277,2374.486302277,2376.5213203499998,2376.5213203499998,2376.5213203499998,2376.5213203499998,2376.5213203499998,2376.5213203499998,2376.5213203499998,2376.5213203499998,2378.5571422549997,2378.5571422549997,2378.5571422549997,2378.5571422549997,,,,,,,,,,,,,,,,,,,,,,,,,,,,,,,,,,,,,,,14,005,2022-09-23_10h39.20.146,test2,2022.2.4,59.95660089407777,
0,0,0,0,41,0,41,0,2378.5571422549997,2378.5571422549997,2378.5571422549997,2378.5571422549997,2378.5571422549997,2378.5571422549997,2378.5571422549997,1,1,rojo,0,['N_B'],2380.2091296139997,2380.2091296139997,2380.2091296139997,2380.2091296139997,2382.2274743939997,2382.2274743939997,2382.2274743939997,2382.2274743939997,2382.2274743939997,2382.2274743939997,2382.2274743939997,2382.2274743939997,2384.2642549939997,2384.2642549939997,2384.2642549939997,2384.2642549939997,,,,,,,,,,,,,,,,,,,,,,,,,,,,,,,,,,,,,,,14,005,2022-09-23_10h39.20.146,test2,2022.2.4,59.95660089407777,
0,0,0,0,42,0,42,0,2384.2642549939997,2384.2642549939997,2384.2642549939997,2384.2642549939997,2384.2642549939997,2384.2642549939997,2384.2642549939997,1,1,azul,0,['N_A'],2386.282457638,2386.282457638,2386.282457638,2386.282457638,2388.318702384,2388.318702384,2388.318702384,2388.318702384,2388.318702384,2388.318702384,2388.318702384,2388.318702384,2390.3538477009997,2390.3538477009997,2390.3538477009997,2390.3538477009997,,,,,,,,,,,,,,,,,,,,,,,,,,,,,,,,,,,,,,,14,005,2022-09-23_10h39.20.146,test2,2022.2.4,59.95660089407777,
0,0,0,0,43,0,43,0,2390.3538477009997,2390.3538477009997,2390.3538477009997,2390.3538477009997,2390.3538477009997,2390.3538477009997,2390.3538477009997,1,-1,rojo,1,['N_A'],2391.804939413,2391.804939413,2391.804939413,2391.804939413,2393.8412988309997,2393.8412988309997,2393.8412988309997,2393.8412988309997,2393.8412988309997,2393.8412988309997,2393.8412988309997,2393.8412988309997,2395.876895516,2395.876895516,2395.876895516,2395.876895516,,,,,,,,,,,,,,,,,,,,,,,,,,,,,,,,,,,,,,,14,005,2022-09-23_10h39.20.146,test2,2022.2.4,59.95660089407777,
0,0,0,0,44,0,44,0,2395.876895516,2395.876895516,2395.876895516,2395.876895516,2395.876895516,2395.876895516,2395.876895516,1,-1,rojo,0,['N_B'],2398.1454620689997,2398.1454620689997,2398.1454620689997,2398.1454620689997,2400.181051231,2400.181051231,2400.181051231,2400.181051231,2400.181051231,2400.181051231,2400.181051231,2400.181051231,2402.216738969,2402.216738969,2402.216738969,2402.216738969,,,,,,,,,,,,,,,,,,,,,,,,,,,,,,,,,,,,,,,14,005,2022-09-23_10h39.20.146,test2,2022.2.4,59.95660089407777,
0,0,0,0,45,0,45,0,2402.216738969,2402.216738969,2402.216738969,2402.216738969,2402.216738969,2402.216738969,2402.216738969,1,1,azul,0,['N_A'],2404.2363834979997,2404.2363834979997,2404.2363834979997,2404.2363834979997,2406.271341581,2406.271341581,2406.271341581,2406.271341581,2406.271341581,2406.271341581,2406.271341581,2406.271341581,2408.3065178909997,2408.3065178909997,2408.3065178909997,2408.3065178909997,,,,,,,,,,,,,,,,,,,,,,,,,,,,,,,,,,,,,,,14,005,2022-09-23_10h39.20.146,test2,2022.2.4,59.95660089407777,
0,0,0,0,46,0,46,0,2408.3065178909997,2408.3065178909997,2408.3065178909997,2408.3065178909997,2408.3065178909997,2408.3065178909997,2408.3065178909997,1,-1,rojo,0,['N_B'],2409.692176692,2409.692176692,2409.692176692,2409.692176692,2411.72702931,2411.72702931,2411.72702931,2411.72702931,2411.72702931,2411.72702931,2411.72702931,2411.72702931,2413.76348255,2413.76348255,2413.76348255,2413.76348255,,,,,,,,,,,,,,,,,,,,,,,,,,,,,,,,,,,,,,,14,005,2022-09-23_10h39.20.146,test2,2022.2.4,59.95660089407777,
0,0,0,0,47,0,47,0,2413.76348255,2413.76348255,2413.76348255,2413.76348255,2413.76348255,2413.76348255,2413.76348255,-1,-1,rojo,1,['N_B'],2415.314622587,2415.314622587,2415.314622587,2415.314622587,2417.3505382979997,2417.3505382979997,2417.3505382979997,2417.3505382979997,2417.3505382979997,2417.3505382979997,2417.3505382979997,2417.3505382979997,2419.3855624059997,2419.3855624059997,2419.3855624059997,2419.3855624059997,,,,,,,,,,,,,,,,,,,,,,,,,,,,,,,,,,,,,,,14,005,2022-09-23_10h39.20.146,test2,2022.2.4,59.95660089407777,
0,0,0,0,48,0,48,0,2419.3855624059997,2419.3855624059997,2419.3855624059997,2419.3855624059997,2419.3855624059997,2419.3855624059997,2419.3855624059997,1,-1,azul,0,['N_A'],2421.788069238,2421.788069238,2421.788069238,2421.788069238,2423.824267379,2423.824267379,2423.824267379,2423.824267379,2423.824267379,2423.824267379,2423.824267379,2423.824267379,2425.8599629799996,2425.8599629799996,2425.8599629799996,2425.8599629799996,,,,,,,,,,,,,,,,,,,,,,,,,,,,,,,,,,,,,,,14,005,2022-09-23_10h39.20.146,test2,2022.2.4,59.95660089407777,
0,0,0,0,49,0,49,0,2425.8599629799996,2425.8599629799996,2425.8599629799996,2425.8599629799996,2425.8599629799996,2425.8599629799996,2425.8599629799996,-1,-1,azul,1,['N_A'],2427.244414489,2427.244414489,2427.244414489,2427.244414489,2429.2797614339997,2429.2797614339997,2429.2797614339997,2429.2797614339997,2429.2797614339997,2429.2797614339997,2429.2797614339997,2429.2797614339997,2431.315117051,2431.315117051,2431.315117051,2431.315117051,,,,,,,,,,,,,,,,,,,,,,,,,,,,,,,,,,,,,,,14,005,2022-09-23_10h39.20.146,test2,2022.2.4,59.95660089407777,
0,0,0,0,50,0,50,0,2431.315117051,2431.315117051,2431.315117051,2431.315117051,2431.315117051,2431.315117051,2431.315117051,1,-1,rojo,1,['N_A'],2434.569363407,2434.569363407,2434.569363407,2434.569363407,2436.6047148019998,2436.6047148019998,2436.6047148019998,2436.6047148019998,2436.6047148019998,2436.6047148019998,2436.6047148019998,2436.6047148019998,2438.640097534,2438.640097534,2438.640097534,2438.640097534,,,,,,,,,,,,,,,,,,,,,,,,,,,,,,,,,,,,,,,14,005,2022-09-23_10h39.20.146,test2,2022.2.4,59.95660089407777,
0,0,0,0,51,0,51,0,2438.640097534,2438.640097534,2438.640097534,2438.640097534,2438.640097534,2438.640097534,2438.640097534,1,-1,rojo,1,['N_A'],2440.25882886,2440.25882886,2440.25882886,2440.25882886,2442.2944561169998,2442.2944561169998,2442.2944561169998,2442.2944561169998,2442.2944561169998,2442.2944561169998,2442.2944561169998,2442.2944561169998,2444.3288792129997,2444.3288792129997,2444.3288792129997,2444.3288792129997,,,,,,,,,,,,,,,,,,,,,,,,,,,,,,,,,,,,,,,14,005,2022-09-23_10h39.20.146,test2,2022.2.4,59.95660089407777,
0,0,0,0,52,0,52,0,2444.3288792129997,2444.3288792129997,2444.3288792129997,2444.3288792129997,2444.3288792129997,2444.3288792129997,2444.3288792129997,1,-1,rojo,0,['N_B'],2446.131652357,2446.131652357,2446.131652357,2446.131652357,2448.167572938,2448.167572938,2448.167572938,2448.167572938,2448.167572938,2448.167572938,2448.167572938,2448.167572938,2450.203287635,2450.203287635,2450.203287635,2450.203287635,,,,,,,,,,,,,,,,,,,,,,,,,,,,,,,,,,,,,,,14,005,2022-09-23_10h39.20.146,test2,2022.2.4,59.95660089407777,
0,0,0,0,53,0,53,0,2450.203287635,2450.203287635,2450.203287635,2450.203287635,2450.203287635,2450.203287635,2450.203287635,1,1,azul,1,['N_B'],2451.588598168,2451.588598168,2451.588598168,2451.588598168,2453.6245262459997,2453.6245262459997,2453.6245262459997,2453.6245262459997,2453.6245262459997,2453.6245262459997,2453.6245262459997,2453.6245262459997,2455.658805817,2455.658805817,2455.658805817,2455.658805817,,,,,,,,,,,,,,,,,,,,,,,,,,,,,,,,,,,,,,,14,005,2022-09-23_10h39.20.146,test2,2022.2.4,59.95660089407777,
0,0,0,0,54,0,54,0,2455.658805817,2455.658805817,2455.658805817,2455.658805817,2455.658805817,2455.658805817,2455.658805817,1,-1,azul,1,['N_B'],2457.077244363,2457.077244363,2457.077244363,2457.077244363,2459.1127916699998,2459.1127916699998,2459.1127916699998,2459.1127916699998,2459.1127916699998,2459.1127916699998,2459.1127916699998,2459.1127916699998,2461.148668816,2461.148668816,2461.148668816,2461.148668816,,,,,,,,,,,,,,,,,,,,,,,,,,,,,,,,,,,,,,,14,005,2022-09-23_10h39.20.146,test2,2022.2.4,59.95660089407777,
0,0,0,0,55,0,55,0,2461.148668816,2461.148668816,2461.148668816,2461.148668816,2461.148668816,2461.148668816,2461.148668816,1,-1,azul,1,['N_B'],2462.500274783,2462.500274783,2462.500274783,2462.500274783,2464.535743508,2464.535743508,2464.535743508,2464.535743508,2464.535743508,2464.535743508,2464.535743508,2464.535743508,2466.57101539,2466.57101539,2466.57101539,2466.57101539,,,,,,,,,,,,,,,,,,,,,,,,,,,,,,,,,,,,,,,14,005,2022-09-23_10h39.20.146,test2,2022.2.4,59.95660089407777,
0,0,0,0,56,0,56,0,2466.57101539,2466.57101539,2466.57101539,2466.57101539,2466.57101539,2466.57101539,2466.57101539,1,-1,azul,0,['N_A'],2468.6735141699996,2468.6735141699996,2468.6735141699996,2468.6735141699996,2470.709317335,2470.709317335,2470.709317335,2470.709317335,2470.709317335,2470.709317335,2470.709317335,2470.709317335,2472.7447984789997,2472.7447984789997,2472.7447984789997,2472.7447984789997,,,,,,,,,,,,,,,,,,,,,,,,,,,,,,,,,,,,,,,14,005,2022-09-23_10h39.20.146,test2,2022.2.4,59.95660089407777,
0,0,0,0,57,0,57,0,2472.7447984789997,2472.7447984789997,2472.7447984789997,2472.7447984789997,2472.7447984789997,2472.7447984789997,2472.7447984789997,1,1,rojo,1,['N_A'],2474.145635824,2474.145635824,2474.145635824,2474.145635824,2476.182084356,2476.182084356,2476.182084356,2476.182084356,2476.182084356,2476.182084356,2476.182084356,2476.182084356,2478.217566891,2478.217566891,2478.217566891,2478.217566891,,,,,,,,,,,,,,,,,,,,,,,,,,,,,,,,,,,,,,,14,005,2022-09-23_10h39.20.146,test2,2022.2.4,59.95660089407777,
0,0,0,0,58,0,58,0,2478.217566891,2478.217566891,2478.217566891,2478.217566891,2478.217566891,2478.217566891,2478.217566891,-1,-1,azul,0,['N_B'],2479.669208371,2479.669208371,2479.669208371,2479.669208371,2481.7051039069997,2481.7051039069997,2481.7051039069997,2481.7051039069997,2481.7051039069997,2481.7051039069997,2481.7051039069997,2481.7051039069997,2483.739578705,2483.739578705,2483.739578705,2483.739578705,,,,,,,,,,,,,,,,,,,,,,,,,,,,,,,,,,,,,,,14,005,2022-09-23_10h39.20.146,test2,2022.2.4,59.95660089407777,
0,0,0,0,59,0,59,0,2483.739578705,2483.739578705,2483.739578705,2483.739578705,2483.739578705,2483.739578705,2483.739578705,-1,1,rojo,1,['N_B'],2485.1249873919996,2485.1249873919996,2485.1249873919996,2485.1249873919996,2487.161218541,2487.161218541,2487.161218541,2487.161218541,2487.161218541,2487.161218541,2487.161218541,2487.161218541,2489.1958562309997,2489.1958562309997,2489.1958562309997,2489.1958562309997,,,,,,,,,,,,,,,,,,,,,,,,,,,,,,,,,,,,,,,14,005,2022-09-23_10h39.20.146,test2,2022.2.4,59.95660089407777,
0,0,0,0,60,0,60,0,2489.1958562309997,2489.1958562309997,2489.1958562309997,2489.1958562309997,2489.1958562309997,2489.1958562309997,2489.1958562309997,1,-1,azul,1,['N_B'],2492.833618195,2492.833618195,2492.833618195,2492.833618195,2494.8690275619997,2494.8690275619997,2494.8690275619997,2494.8690275619997,2494.8690275619997,2494.8690275619997,2494.8690275619997,2494.8690275619997,2496.904522887,2496.904522887,2496.904522887,2496.904522887,,,,,,,,,,,,,,,,,,,,,,,,,,,,,,,,,,,,,,,14,005,2022-09-23_10h39.20.146,test2,2022.2.4,59.95660089407777,
0,0,0,0,61,0,61,0,2496.904522887,2496.904522887,2496.904522887,2496.904522887,2496.904522887,2496.904522887,2496.904522887,1,-1,azul,1,['N_B'],2498.706992329,2498.706992329,2498.706992329,2498.706992329,2500.7422702229997,2500.7422702229997,2500.7422702229997,2500.7422702229997,2500.7422702229997,2500.7422702229997,2500.7422702229997,2500.7422702229997,2502.777129215,2502.777129215,2502.777129215,2502.777129215,,,,,,,,,,,,,,,,,,,,,,,,,,,,,,,,,,,,,,,14,005,2022-09-23_10h39.20.146,test2,2022.2.4,59.95660089407777,
0,0,0,0,62,0,62,0,2502.777129215,2502.777129215,2502.777129215,2502.777129215,2502.777129215,2502.777129215,2502.777129215,1,-1,azul,0,['N_A'],2504.379875063,2504.379875063,2504.379875063,2504.379875063,2506.414955236,2506.414955236,2506.414955236,2506.414955236,2506.414955236,2506.414955236,2506.414955236,2506.414955236,2508.4505438009996,2508.4505438009996,2508.4505438009996,2508.4505438009996,,,,,,,,,,,,,,,,,,,,,,,,,,,,,,,,,,,,,,,14,005,2022-09-23_10h39.20.146,test2,2022.2.4,59.95660089407777,
0,0,0,0,63,0,63,0,2508.4505438009996,2508.4505438009996,2508.4505438009996,2508.4505438009996,2508.4505438009996,2508.4505438009996,2508.4505438009996,-1,-1,azul,1,['N_A'],2510.002260762,2510.002260762,2510.002260762,2510.002260762,2512.038624806,2512.038624806,2512.038624806,2512.038624806,2512.038624806,2512.038624806,2512.038624806,2512.038624806,2514.0734096349997,2514.0734096349997,2514.0734096349997,2514.0734096349997,,,,,,,,,,,,,,,,,,,,,,,,,,,,,,,,,,,,,,,14,005,2022-09-23_10h39.20.146,test2,2022.2.4,59.95660089407777,
0,0,0,0,64,0,64,0,2514.0734096349997,2514.0734096349997,2514.0734096349997,2514.0734096349997,2514.0734096349997,2514.0734096349997,2514.0734096349997,-1,-1,azul,1,['N_A'],2515.542301034,2515.542301034,2515.542301034,2515.542301034,2517.577737003,2517.577737003,2517.577737003,2517.577737003,2517.577737003,2517.577737003,2517.577737003,2517.577737003,2519.613049565,2519.613049565,2519.613049565,2519.613049565,,,,,,,,,,,,,,,,,,,,,,,,,,,,,,,,,,,,,,,14,005,2022-09-23_10h39.20.146,test2,2022.2.4,59.95660089407777,
0,0,0,0,65,0,65,0,2519.613049565,2519.613049565,2519.613049565,2519.613049565,2519.613049565,2519.613049565,2519.613049565,1,1,rojo,0,['N_B'],2522.26647595,2522.26647595,2522.26647595,2522.26647595,2524.302252267,2524.302252267,2524.302252267,2524.302252267,2524.302252267,2524.302252267,2524.302252267,2524.302252267,2526.336792758,2526.336792758,2526.336792758,2526.336792758,,,,,,,,,,,,,,,,,,,,,,,,,,,,,,,,,,,,,,,14,005,2022-09-23_10h39.20.146,test2,2022.2.4,59.95660089407777,
0,0,0,0,66,0,66,0,2526.336792758,2526.336792758,2526.336792758,2526.336792758,2526.336792758,2526.336792758,2526.336792758,1,-1,azul,1,['N_B'],2527.721884693,2527.721884693,2527.721884693,2527.721884693,2529.758126912,2529.758126912,2529.758126912,2529.758126912,2529.758126912,2529.758126912,2529.758126912,2529.758126912,2531.7929154529998,2531.7929154529998,2531.7929154529998,2531.7929154529998,,,,,,,,,,,,,,,,,,,,,,,,,,,,,,,,,,,,,,,14,005,2022-09-23_10h39.20.146,test2,2022.2.4,59.95660089407777,
0,0,0,0,67,0,67,0,2531.7929154529998,2531.7929154529998,2531.7929154529998,2531.7929154529998,2531.7929154529998,2531.7929154529998,2531.7929154529998,1,1,azul,1,['N_B'],2533.2110447349996,2533.2110447349996,2533.2110447349996,2533.2110447349996,2535.247533702,2535.247533702,2535.247533702,2535.247533702,2535.247533702,2535.247533702,2535.247533702,2535.247533702,2537.281918457,2537.281918457,2537.281918457,2537.281918457,,,,,,,,,,,,,,,,,,,,,,,,,,,,,,,,,,,,,,,14,005,2022-09-23_10h39.20.146,test2,2022.2.4,59.95660089407777,
0,0,0,0,68,0,68,0,2537.281918457,2537.281918457,2537.281918457,2537.281918457,2537.281918457,2537.281918457,2537.281918457,1,-1,azul,0,['N_A'],2538.7002663189996,2538.7002663189996,2538.7002663189996,2538.7002663189996,2540.736806028,2540.736806028,2540.736806028,2540.736806028,2540.736806028,2540.736806028,2540.736806028,2540.736806028,2542.772251632,2542.772251632,2542.772251632,2542.772251632,,,,,,,,,,,,,,,,,,,,,,,,,,,,,,,,,,,,,,,14,005,2022-09-23_10h39.20.146,test2,2022.2.4,59.95660089407777,
0,0,0,0,69,0,69,0,2542.772251632,2542.772251632,2542.772251632,2542.772251632,2542.772251632,2542.772251632,2542.772251632,-1,-1,azul,1,['N_A'],2544.356611487,2544.356611487,2544.356611487,2544.356611487,2546.3929599959997,2546.3929599959997,2546.3929599959997,2546.3929599959997,2546.3929599959997,2546.3929599959997,2546.3929599959997,2546.3929599959997,2548.428601919,2548.428601919,2548.428601919,2548.428601919,,,,,,,,,,,,,,,,,,,,,,,,,,,,,,,,,,,,,,,14,005,2022-09-23_10h39.20.146,test2,2022.2.4,59.95660089407777,
0,0,0,0,70,0,70,0,2548.428601919,2548.428601919,2548.428601919,2548.428601919,2548.428601919,2548.428601919,2548.428601919,1,1,rojo,1,['N_A'],2550.580212206,2550.580212206,2550.580212206,2550.580212206,2552.6164647339997,2552.6164647339997,2552.6164647339997,2552.6164647339997,2552.6164647339997,2552.6164647339997,2552.6164647339997,2552.6164647339997,2554.651989361,2554.651989361,2554.651989361,2554.651989361,,,,,,,,,,,,,,,,,,,,,,,,,,,,,,,,,,,,,,,14,005,2022-09-23_10h39.20.146,test2,2022.2.4,59.95660089407777,
0,0,0,0,71,0,71,0,2554.651989361,2554.651989361,2554.651989361,2554.651989361,2554.651989361,2554.651989361,2554.651989361,1,-1,rojo,1,['N_A'],2556.020767961,2556.020767961,2556.020767961,2556.020767961,2558.055213588,2558.055213588,2558.055213588,2558.055213588,2558.055213588,2558.055213588,2558.055213588,2558.055213588,2560.0907338869997,2560.0907338869997,2560.0907338869997,2560.0907338869997,,,,,,,,,,,,,,,,,,,,,,,,,,,,,,,,,,,,,,,14,005,2022-09-23_10h39.20.146,test2,2022.2.4,59.95660089407777,
0,0,0,0,72,0,72,0,2560.0907338869997,2560.0907338869997,2560.0907338869997,2560.0907338869997,2560.0907338869997,2560.0907338869997,2560.0907338869997,1,-1,rojo,1,['N_A'],2563.177444094,2563.177444094,2563.177444094,2563.177444094,2565.213820866,2565.213820866,2565.213820866,2565.213820866,2565.213820866,2565.213820866,2565.213820866,2565.213820866,2567.249271206,2567.249271206,2567.249271206,2567.249271206,,,,,,,,,,,,,,,,,,,,,,,,,,,,,,,,,,,,,,,14,005,2022-09-23_10h39.20.146,test2,2022.2.4,59.95660089407777,
0,0,0,0,73,0,73,0,2567.249271206,2567.249271206,2567.249271206,2567.249271206,2567.249271206,2567.249271206,2567.249271206,1,1,rojo,0,['N_B'],2570.2858095019997,2570.2858095019997,2570.2858095019997,2570.2858095019997,2572.303956658,2572.303956658,2572.303956658,2572.303956658,2572.303956658,2572.303956658,2572.303956658,2572.303956658,2574.340203813,2574.340203813,2574.340203813,2574.340203813,,,,,,,,,,,,,,,,,,,,,,,,,,,,,,,,,,,,,,,14,005,2022-09-23_10h39.20.146,test2,2022.2.4,59.95660089407777,
0,0,0,0,74,0,74,0,2574.340203813,2574.340203813,2574.340203813,2574.340203813,2574.340203813,2574.340203813,2574.340203813,1,1,azul,0,['N_A'],2576.125548856,2576.125548856,2576.125548856,2576.125548856,2578.1439064779997,2578.1439064779997,2578.1439064779997,2578.1439064779997,2578.1439064779997,2578.1439064779997,2578.1439064779997,2578.1439064779997,2580.179537436,2580.179537436,2580.179537436,2580.179537436,,,,,,,,,,,,,,,,,,,,,,,,,,,,,,,,,,,,,,,14,005,2022-09-23_10h39.20.146,test2,2022.2.4,59.95660089407777,
0,0,0,0,75,0,75,0,2580.179537436,2580.179537436,2580.179537436,2580.179537436,2580.179537436,2580.179537436,2580.179537436,1,1,rojo,0,['N_B'],2582.182191597,2582.182191597,2582.182191597,2582.182191597,2584.218217478,2584.218217478,2584.218217478,2584.218217478,2584.218217478,2584.218217478,2584.218217478,2584.218217478,2586.253450145,2586.253450145,2586.253450145,2586.253450145,,,,,,,,,,,,,,,,,,,,,,,,,,,,,,,,,,,,,,,14,005,2022-09-23_10h39.20.146,test2,2022.2.4,59.95660089407777,
0,0,0,0,76,0,76,0,2586.253450145,2586.253450145,2586.253450145,2586.253450145,2586.253450145,2586.253450145,2586.253450145,1,-1,azul,1,['N_B'],2587.888261789,2587.888261789,2587.888261789,2587.888261789,2589.923619118,2589.923619118,2589.923619118,2589.923619118,2589.923619118,2589.923619118,2589.923619118,2589.923619118,2591.959217487,2591.959217487,2591.959217487,2591.959217487,,,,,,,,,,,,,,,,,,,,,,,,,,,,,,,,,,,,,,,14,005,2022-09-23_10h39.20.146,test2,2022.2.4,59.95660089407777,
0,0,0,0,77,0,77,0,2591.959217487,2591.959217487,2591.959217487,2591.959217487,2591.959217487,2591.959217487,2591.959217487,-1,1,rojo,0,['N_A'],2594.029043343,2594.029043343,2594.029043343,2594.029043343,2596.0465851619997,2596.0465851619997,2596.0465851619997,2596.0465851619997,2596.0465851619997,2596.0465851619997,2596.0465851619997,2596.0465851619997,2598.083095695,2598.083095695,2598.083095695,2598.083095695,,,,,,,,,,,,,,,,,,,,,,,,,,,,,,,,,,,,,,,14,005,2022-09-23_10h39.20.146,test2,2022.2.4,59.95660089407777,
0,0,0,0,78,0,78,0,2598.083095695,2598.083095695,2598.083095695,2598.083095695,2598.083095695,2598.083095695,2598.083095695,-1,1,azul,0,['N_B'],2600.636256812,2600.636256812,2600.636256812,2600.636256812,2602.671269352,2602.671269352,2602.671269352,2602.671269352,2602.671269352,2602.671269352,2602.671269352,2602.671269352,2604.706851252,2604.706851252,2604.706851252,2604.706851252,,,,,,,,,,,,,,,,,,,,,,,,,,,,,,,,,,,,,,,14,005,2022-09-23_10h39.20.146,test2,2022.2.4,59.95660089407777,
0,0,0,0,79,0,79,0,2604.706851252,2604.706851252,2604.706851252,2604.706851252,2604.706851252,2604.706851252,2604.706851252,1,-1,azul,1,['N_B'],2606.3586541249997,2606.3586541249997,2606.3586541249997,2606.3586541249997,2608.39458313,2608.39458313,2608.39458313,2608.39458313,2608.39458313,2608.39458313,2608.39458313,2608.39458313,2610.429949585,2610.429949585,2610.429949585,2610.429949585,,,,,,,,,,,,,,,,,,,,,,,,,,,,,,,,,,,,,,,14,005,2022-09-23_10h39.20.146,test2,2022.2.4,59.95660089407777,
0,0,0,0,80,0,80,0,2610.429949585,2610.429949585,2610.429949585,2610.429949585,2610.429949585,2610.429949585,2610.429949585,1,-1,azul,1,['N_B'],2612.181539595,2612.181539595,2612.181539595,2612.181539595,2614.2172493089997,2614.2172493089997,2614.2172493089997,2614.2172493089997,2614.2172493089997,2614.2172493089997,2614.2172493089997,2614.2172493089997,2616.2527651809996,2616.2527651809996,2616.2527651809996,2616.2527651809996,,,,,,,,,,,,,,,,,,,,,,,,,,,,,,,,,,,,,,,14,005,2022-09-23_10h39.20.146,test2,2022.2.4,59.95660089407777,
0,0,0,0,81,0,81,0,2616.2527651809996,2616.2527651809996,2616.2527651809996,2616.2527651809996,2616.2527651809996,2616.2527651809996,2616.2527651809996,1,-1,azul,0,['N_A'],2618.4719016609997,2618.4719016609997,2618.4719016609997,2618.4719016609997,2620.507950405,2620.507950405,2620.507950405,2620.507950405,2620.507950405,2620.507950405,2620.507950405,2620.507950405,2622.543606531,2622.543606531,2622.543606531,2622.543606531,,,,,,,,,,,,,,,,,,,,,,,,,,,,,,,,,,,,,,,14,005,2022-09-23_10h39.20.146,test2,2022.2.4,59.95660089407777,
0,0,0,0,82,0,82,0,2622.543606531,2622.543606531,2622.543606531,2622.543606531,2622.543606531,2622.543606531,2622.543606531,-1,-1,azul,0,['N_B'],2624.762556027,2624.762556027,2624.762556027,2624.762556027,2626.797758012,2626.797758012,2626.797758012,2626.797758012,2626.797758012,2626.797758012,2626.797758012,2626.797758012,2628.833836037,2628.833836037,2628.833836037,2628.833836037,,,,,,,,,,,,,,,,,,,,,,,,,,,,,,,,,,,,,,,14,005,2022-09-23_10h39.20.146,test2,2022.2.4,59.95660089407777,
0,0,0,0,83,0,83,0,2628.833836037,2628.833836037,2628.833836037,2628.833836037,2628.833836037,2628.833836037,2628.833836037,1,-1,azul,0,['N_A'],2632.237104074,2632.237104074,2632.237104074,2632.237104074,2634.2729007089997,2634.2729007089997,2634.2729007089997,2634.2729007089997,2634.2729007089997,2634.2729007089997,2634.2729007089997,2634.2729007089997,2636.308451439,2636.308451439,2636.308451439,2636.308451439,,,,,,,,,,,,,,,,,,,,,,,,,,,,,,,,,,,,,,,14,005,2022-09-23_10h39.20.146,test2,2022.2.4,59.95660089407777,
0,0,0,0,84,0,84,0,2636.308451439,2636.308451439,2636.308451439,2636.308451439,2636.308451439,2636.308451439,2636.308451439,1,-1,rojo,1,['N_A'],2639.061152189,2639.061152189,2639.061152189,2639.061152189,2641.096827343,2641.096827343,2641.096827343,2641.096827343,2641.096827343,2641.096827343,2641.096827343,2641.096827343,2643.133174534,2643.133174534,2643.133174534,2643.133174534,,,,,,,,,,,,,,,,,,,,,,,,,,,,,,,,,,,,,,,14,005,2022-09-23_10h39.20.146,test2,2022.2.4,59.95660089407777,
0,0,0,0,85,0,85,0,2643.133174534,2643.133174534,2643.133174534,2643.133174534,2643.133174534,2643.133174534,2643.133174534,1,1,rojo,1,['N_A'],2644.6015427959996,2644.6015427959996,2644.6015427959996,2644.6015427959996,2646.6368850599997,2646.6368850599997,2646.6368850599997,2646.6368850599997,2646.6368850599997,2646.6368850599997,2646.6368850599997,2646.6368850599997,2648.672509099,2648.672509099,2648.672509099,2648.672509099,,,,,,,,,,,,,,,,,,,,,,,,,,,,,,,,,,,,,,,14,005,2022-09-23_10h39.20.146,test2,2022.2.4,59.95660089407777,
0,0,0,0,86,0,86,0,2648.672509099,2648.672509099,2648.672509099,2648.672509099,2648.672509099,2648.672509099,2648.672509099,-1,-1,azul,1,['N_A'],2650.107594968,2650.107594968,2650.107594968,2650.107594968,2652.1433718999997,2652.1433718999997,2652.1433718999997,2652.1433718999997,2652.1433718999997,2652.1433718999997,2652.1433718999997,2652.1433718999997,2654.1777121769996,2654.1777121769996,2654.1777121769996,2654.1777121769996,,,,,,,,,,,,,,,,,,,,,,,,,,,,,,,,,,,,,,,14,005,2022-09-23_10h39.20.146,test2,2022.2.4,59.95660089407777,
0,0,0,0,87,0,87,0,2654.1777121769996,2654.1777121769996,2654.1777121769996,2654.1777121769996,2654.1777121769996,2654.1777121769996,2654.1777121769996,1,1,rojo,1,['N_A'],2656.2636293729997,2656.2636293729997,2656.2636293729997,2656.2636293729997,2658.299496582,2658.299496582,2658.299496582,2658.299496582,2658.299496582,2658.299496582,2658.299496582,2658.299496582,2660.335039135,2660.335039135,2660.335039135,2660.335039135,,,,,,,,,,,,,,,,,,,,,,,,,,,,,,,,,,,,,,,14,005,2022-09-23_10h39.20.146,test2,2022.2.4,59.95660089407777,
0,0,0,0,88,0,88,0,2660.335039135,2660.335039135,2660.335039135,2660.335039135,2660.335039135,2660.335039135,2660.335039135,-1,-1,azul,1,['N_A'],2662.320021579,2662.320021579,2662.320021579,2662.320021579,2664.354790112,2664.354790112,2664.354790112,2664.354790112,2664.354790112,2664.354790112,2664.354790112,2664.354790112,2666.3913066259997,2666.3913066259997,2666.3913066259997,2666.3913066259997,,,,,,,,,,,,,,,,,,,,,,,,,,,,,,,,,,,,,,,14,005,2022-09-23_10h39.20.146,test2,2022.2.4,59.95660089407777,
0,0,0,0,89,0,89,0,2666.3913066259997,2666.3913066259997,2666.3913066259997,2666.3913066259997,2666.3913066259997,2666.3913066259997,2666.3913066259997,1,-1,rojo,1,['N_A'],2667.909971146,2667.909971146,2667.909971146,2667.909971146,2669.945554307,2669.945554307,2669.945554307,2669.945554307,2669.945554307,2669.945554307,2669.945554307,2669.945554307,2671.981368618,2671.981368618,2671.981368618,2671.981368618,,,,,,,,,,,,,,,,,,,,,,,,,,,,,,,,,,,,,,,14,005,2022-09-23_10h39.20.146,test2,2022.2.4,59.95660089407777,
0,0,0,0,90,0,90,0,2671.981368618,2671.981368618,2671.981368618,2671.981368618,2671.981368618,2671.981368618,2671.981368618,1,1,rojo,0,['N_B'],2674.8167844669997,2674.8167844669997,2674.8167844669997,2674.8167844669997,2676.835535281,2676.835535281,2676.835535281,2676.835535281,2676.835535281,2676.835535281,2676.835535281,2676.835535281,2678.872346848,2678.872346848,2678.872346848,2678.872346848,,,,,,,,,,,,,,,,,,,,,,,,,,,,,,,,,,,,,,,14,005,2022-09-23_10h39.20.146,test2,2022.2.4,59.95660089407777,
0,0,0,0,91,0,91,0,2678.872346848,2678.872346848,2678.872346848,2678.872346848,2678.872346848,2678.872346848,2678.872346848,-1,1,rojo,1,['N_B'],2680.857679915,2680.857679915,2680.857679915,2680.857679915,2682.893689042,2682.893689042,2682.893689042,2682.893689042,2682.893689042,2682.893689042,2682.893689042,2682.893689042,2684.9286229719996,2684.9286229719996,2684.9286229719996,2684.9286229719996,,,,,,,,,,,,,,,,,,,,,,,,,,,,,,,,,,,,,,,14,005,2022-09-23_10h39.20.146,test2,2022.2.4,59.95660089407777,
0,0,0,0,92,0,92,0,2684.9286229719996,2684.9286229719996,2684.9286229719996,2684.9286229719996,2684.9286229719996,2684.9286229719996,2684.9286229719996,-1,-1,rojo,1,['N_B'],2686.380917982,2686.380917982,2686.380917982,2686.380917982,2688.416678089,2688.416678089,2688.416678089,2688.416678089,2688.416678089,2688.416678089,2688.416678089,2688.416678089,2690.4514304639997,2690.4514304639997,2690.4514304639997,2690.4514304639997,,,,,,,,,,,,,,,,,,,,,,,,,,,,,,,,,,,,,,,14,005,2022-09-23_10h39.20.146,test2,2022.2.4,59.95660089407777,
0,0,0,0,93,0,93,0,2690.4514304639997,2690.4514304639997,2690.4514304639997,2690.4514304639997,2690.4514304639997,2690.4514304639997,2690.4514304639997,-1,1,rojo,0,['N_A'],2691.92024993,2691.92024993,2691.92024993,2691.92024993,2693.938881351,2693.938881351,2693.938881351,2693.938881351,2693.938881351,2693.938881351,2693.938881351,2693.938881351,2695.9742451069997,2695.9742451069997,2695.9742451069997,2695.9742451069997,,,,,,,,,,,,,,,,,,,,,,,,,,,,,,,,,,,,,,,14,005,2022-09-23_10h39.20.146,test2,2022.2.4,59.95660089407777,
0,0,0,0,94,0,94,0,2695.9742451069997,2695.9742451069997,2695.9742451069997,2695.9742451069997,2695.9742451069997,2695.9742451069997,2695.9742451069997,1,1,rojo,1,['N_A'],2697.3253933859996,2697.3253933859996,2697.3253933859996,2697.3253933859996,2699.3614073,2699.3614073,2699.3614073,2699.3614073,2699.3614073,2699.3614073,2699.3614073,2699.3614073,2701.397350378,2701.397350378,2701.397350378,2701.397350378,,,,,,,,,,,,,,,,,,,,,,,,,,,,,,,,,,,,,,,14,005,2022-09-23_10h39.20.146,test2,2022.2.4,59.95660089407777,
0,0,0,0,95,0,95,0,2701.397350378,2701.397350378,2701.397350378,2701.397350378,2701.397350378,2701.397350378,2701.397350378,-1,-1,azul,1,['N_A'],2702.764954198,2702.764954198,2702.764954198,2702.764954198,2704.8009046489997,2704.8009046489997,2704.8009046489997,2704.8009046489997,2704.8009046489997,2704.8009046489997,2704.8009046489997,2704.8009046489997,2706.836365226,2706.836365226,2706.836365226,2706.836365226,,,,,,,,,,,,,,,,,,,,,,,,,,,,,,,,,,,,,,,14,005,2022-09-23_10h39.20.146,test2,2022.2.4,59.95660089407777,
0,0,0,0,96,0,96,0,2706.836365226,2706.836365226,2706.836365226,2706.836365226,2706.836365226,2706.836365226,2706.836365226,-1,-1,azul,0,['N_B'],2709.639057897,2709.639057897,2709.639057897,2709.639057897,2711.6747254859997,2711.6747254859997,2711.6747254859997,2711.6747254859997,2711.6747254859997,2711.6747254859997,2711.6747254859997,2711.6747254859997,2713.7108221949998,2713.7108221949998,2713.7108221949998,2713.7108221949998,,,,,,,,,,,,,,,,,,,,,,,,,,,,,,,,,,,,,,,14,005,2022-09-23_10h39.20.146,test2,2022.2.4,59.95660089407777,
0,0,0,0,97,0,97,0,2713.7108221949998,2713.7108221949998,2713.7108221949998,2713.7108221949998,2713.7108221949998,2713.7108221949998,2713.7108221949998,1,1,azul,1,['N_B'],2715.61294697,2715.61294697,2715.61294697,2715.61294697,2717.648251953,2717.648251953,2717.648251953,2717.648251953,2717.648251953,2717.648251953,2717.648251953,2717.648251953,2719.6832886049997,2719.6832886049997,2719.6832886049997,2719.6832886049997,,,,,,,,,,,,,,,,,,,,,,,,,,,,,,,,,,,,,,,14,005,2022-09-23_10h39.20.146,test2,2022.2.4,59.95660089407777,
0,0,0,0,98,0,98,0,2719.6832886049997,2719.6832886049997,2719.6832886049997,2719.6832886049997,2719.6832886049997,2719.6832886049997,2719.6832886049997,1,-1,azul,0,['N_A'],2721.135639439,2721.135639439,2721.135639439,2721.135639439,2723.171086668,2723.171086668,2723.171086668,2723.171086668,2723.171086668,2723.171086668,2723.171086668,2723.171086668,2725.206797003,2725.206797003,2725.206797003,2725.206797003,,,,,,,,,,,,,,,,,,,,,,,,,,,,,,,,,,,,,,,14,005,2022-09-23_10h39.20.146,test2,2022.2.4,59.95660089407777,
0,0,0,0,99,0,99,0,2725.206797003,2725.206797003,2725.206797003,2725.206797003,2725.206797003,2725.206797003,2725.206797003,1,-1,rojo,1,['N_A'],2727.3586397569998,2727.3586397569998,2727.3586397569998,2727.3586397569998,2729.394574732,2729.394574732,2729.394574732,2729.394574732,2729.394574732,2729.394574732,2729.394574732,2729.394574732,2731.4299888359997,2731.4299888359997,2731.4299888359997,2731.4299888359997,,,,,,,,,,,,,,,,,,,,,,,,,,,,,,,,,,,,,,,14,005,2022-09-23_10h39.20.146,test2,2022.2.4,59.95660089407777,
0,0,0,0,100,0,100,0,2731.4299888359997,2731.4299888359997,2731.4299888359997,2731.4299888359997,2731.4299888359997,2731.4299888359997,2731.4299888359997,-1,1,azul,1,['N_A'],2733.015090554,2733.015090554,2733.015090554,2733.015090554,2735.0511013339997,2735.0511013339997,2735.0511013339997,2735.0511013339997,2735.0511013339997,2735.0511013339997,2735.0511013339997,2735.0511013339997,2737.086574215,2737.086574215,2737.086574215,2737.086574215,,,,,,,,,,,,,,,,,,,,,,,,,,,,,,,,,,,,,,,14,005,2022-09-23_10h39.20.146,test2,2022.2.4,59.95660089407777,
0,0,0,0,101,0,101,0,2737.086574215,2737.086574215,2737.086574215,2737.086574215,2737.086574215,2737.086574215,2737.086574215,1,-1,rojo,1,['N_A'],2738.671175388,2738.671175388,2738.671175388,2738.671175388,2740.706696964,2740.706696964,2740.706696964,2740.706696964,2740.706696964,2740.706696964,2740.706696964,2740.706696964,2742.742356762,2742.742356762,2742.742356762,2742.742356762,,,,,,,,,,,,,,,,,,,,,,,,,,,,,,,,,,,,,,,14,005,2022-09-23_10h39.20.146,test2,2022.2.4,59.95660089407777,
0,0,0,0,102,0,102,0,2742.742356762,2742.742356762,2742.742356762,2742.742356762,2742.742356762,2742.742356762,2742.742356762,1,-1,rojo,0,['N_B'],2744.477893296,2744.477893296,2744.477893296,2744.477893296,2746.513297684,2746.513297684,2746.513297684,2746.513297684,2746.513297684,2746.513297684,2746.513297684,2746.513297684,2748.5486904209997,2748.5486904209997,2748.5486904209997,2748.5486904209997,,,,,,,,,,,,,,,,,,,,,,,,,,,,,,,,,,,,,,,14,005,2022-09-23_10h39.20.146,test2,2022.2.4,59.95660089407777,
0,0,0,0,103,0,103,0,2748.5486904209997,2748.5486904209997,2748.5486904209997,2748.5486904209997,2748.5486904209997,2748.5486904209997,2748.5486904209997,1,-1,azul,0,['N_A'],2750.317424509,2750.317424509,2750.317424509,2750.317424509,2752.353879036,2752.353879036,2752.353879036,2752.353879036,2752.353879036,2752.353879036,2752.353879036,2752.353879036,2754.388938739,2754.388938739,2754.388938739,2754.388938739,,,,,,,,,,,,,,,,,,,,,,,,,,,,,,,,,,,,,,,14,005,2022-09-23_10h39.20.146,test2,2022.2.4,59.95660089407777,
0,0,0,0,104,0,104,0,2754.388938739,2754.388938739,2754.388938739,2754.388938739,2754.388938739,2754.388938739,2754.388938739,1,1,rojo,1,['N_A'],2755.923313472,2755.923313472,2755.923313472,2755.923313472,2757.942106636,2757.942106636,2757.942106636,2757.942106636,2757.942106636,2757.942106636,2757.942106636,2757.942106636,2759.978695818,2759.978695818,2759.978695818,2759.978695818,,,,,,,,,,,,,,,,,,,,,,,,,,,,,,,,,,,,,,,14,005,2022-09-23_10h39.20.146,test2,2022.2.4,59.95660089407777,
0,0,0,0,105,0,105,0,2759.978695818,2759.978695818,2759.978695818,2759.978695818,2759.978695818,2759.978695818,2759.978695818,1,1,rojo,0,['N_B'],2761.3800905059998,2761.3800905059998,2761.3800905059998,2761.3800905059998,2763.398171893,2763.398171893,2763.398171893,2763.398171893,2763.398171893,2763.398171893,2763.398171893,2763.398171893,2765.43407971,2765.43407971,2765.43407971,2765.43407971,,,,,,,,,,,,,,,,,,,,,,,,,,,,,,,,,,,,,,,14,005,2022-09-23_10h39.20.146,test2,2022.2.4,59.95660089407777,
0,0,0,0,106,0,106,0,2765.43407971,2765.43407971,2765.43407971,2765.43407971,2765.43407971,2765.43407971,2765.43407971,1,1,azul,0,['N_A'],2767.20330072,2767.20330072,2767.20330072,2767.20330072,2769.23807631,2769.23807631,2769.23807631,2769.23807631,2769.23807631,2769.23807631,2769.23807631,2769.23807631,2771.274126814,2771.274126814,2771.274126814,2771.274126814,,,,,,,,,,,,,,,,,,,,,,,,,,,,,,,,,,,,,,,14,005,2022-09-23_10h39.20.146,test2,2022.2.4,59.95660089407777,
0,0,0,0,107,0,107,0,2771.274126814,2771.274126814,2771.274126814,2771.274126814,2771.274126814,2771.274126814,2771.274126814,1,-1,rojo,1,['N_A'],2772.942230803,2772.942230803,2772.942230803,2772.942230803,2774.978713383,2774.978713383,2774.978713383,2774.978713383,2774.978713383,2774.978713383,2774.978713383,2774.978713383,2777.013262787,2777.013262787,2777.013262787,2777.013262787,,,,,,,,,,,,,,,,,,,,,,,,,,,,,,,,,,,,,,,14,005,2022-09-23_10h39.20.146,test2,2022.2.4,59.95660089407777,
0,0,0,0,108,0,108,0,2777.013262787,2777.013262787,2777.013262787,2777.013262787,2777.013262787,2777.013262787,2777.013262787,-1,-1,azul,0,['N_B'],2778.815920871,2778.815920871,2778.815920871,2778.815920871,2780.851426365,2780.851426365,2780.851426365,2780.851426365,2780.851426365,2780.851426365,2780.851426365,2780.851426365,2782.886902013,2782.886902013,2782.886902013,2782.886902013,,,,,,,,,,,,,,,,,,,,,,,,,,,,,,,,,,,,,,,14,005,2022-09-23_10h39.20.146,test2,2022.2.4,59.95660089407777,
0,0,0,0,109,0,109,0,2782.886902013,2782.886902013,2782.886902013,2782.886902013,2782.886902013,2782.886902013,2782.886902013,1,1,azul,1,['N_B'],2785.189300381,2785.189300381,2785.189300381,2785.189300381,2787.22494529,2787.22494529,2787.22494529,2787.22494529,2787.22494529,2787.22494529,2787.22494529,2787.22494529,2789.259525865,2789.259525865,2789.259525865,2789.259525865,,,,,,,,,,,,,,,,,,,,,,,,,,,,,,,,,,,,,,,14,005,2022-09-23_10h39.20.146,test2,2022.2.4,59.95660089407777,
0,0,0,0,110,0,110,0,2789.259525865,2789.259525865,2789.259525865,2789.259525865,2789.259525865,2789.259525865,2789.259525865,1,-1,azul,0,['N_A'],2791.4131152719997,2791.4131152719997,2791.4131152719997,2791.4131152719997,2793.448649075,2793.448649075,2793.448649075,2793.448649075,2793.448649075,2793.448649075,2793.448649075,2793.448649075,2795.484377365,2795.484377365,2795.484377365,2795.484377365,,,,,,,,,,,,,,,,,,,,,,,,,,,,,,,,,,,,,,,14,005,2022-09-23_10h39.20.146,test2,2022.2.4,59.95660089407777,
0,0,0,0,111,0,111,0,2795.484377365,2795.484377365,2795.484377365,2795.484377365,2795.484377365,2795.484377365,2795.484377365,1,-1,rojo,1,['N_A'],2797.035782459,2797.035782459,2797.035782459,2797.035782459,2799.072005917,2799.072005917,2799.072005917,2799.072005917,2799.072005917,2799.072005917,2799.072005917,2799.072005917,2801.106986888,2801.106986888,2801.106986888,2801.106986888,,,,,,,,,,,,,,,,,,,,,,,,,,,,,,,,,,,,,,,14,005,2022-09-23_10h39.20.146,test2,2022.2.4,59.95660089407777,
0,0,0,0,112,0,112,0,2801.106986888,2801.106986888,2801.106986888,2801.106986888,2801.106986888,2801.106986888,2801.106986888,-1,-1,azul,1,['N_A'],2802.7416916509997,2802.7416916509997,2802.7416916509997,2802.7416916509997,2804.7777238579997,2804.7777238579997,2804.7777238579997,2804.7777238579997,2804.7777238579997,2804.7777238579997,2804.7777238579997,2804.7777238579997,2806.813986006,2806.813986006,2806.813986006,2806.813986006,,,,,,,,,,,,,,,,,,,,,,,,,,,,,,,,,,,,,,,14,005,2022-09-23_10h39.20.146,test2,2022.2.4,59.95660089407777,
0,0,0,0,113,0,113,0,2806.813986006,2806.813986006,2806.813986006,2806.813986006,2806.813986006,2806.813986006,2806.813986006,1,-1,rojo,0,['N_B'],2808.565043263,2808.565043263,2808.565043263,2808.565043263,2810.6008197389997,2810.6008197389997,2810.6008197389997,2810.6008197389997,2810.6008197389997,2810.6008197389997,2810.6008197389997,2810.6008197389997,2812.636197258,2812.636197258,2812.636197258,2812.636197258,,,,,,,,,,,,,,,,,,,,,,,,,,,,,,,,,,,,,,,14,005,2022-09-23_10h39.20.146,test2,2022.2.4,59.95660089407777,
0,0,0,0,114,0,114,0,2812.636197258,2812.636197258,2812.636197258,2812.636197258,2812.636197258,2812.636197258,2812.636197258,1,-1,azul,1,['N_B'],2814.08839018,2814.08839018,2814.08839018,2814.08839018,2816.1237758879997,2816.1237758879997,2816.1237758879997,2816.1237758879997,2816.1237758879997,2816.1237758879997,2816.1237758879997,2816.1237758879997,2818.158972703,2818.158972703,2818.158972703,2818.158972703,,,,,,,,,,,,,,,,,,,,,,,,,,,,,,,,,,,,,,,14,005,2022-09-23_10h39.20.146,test2,2022.2.4,59.95660089407777,
0,0,0,0,115,0,115,0,2818.158972703,2818.158972703,2818.158972703,2818.158972703,2818.158972703,2818.158972703,2818.158972703,-1,-1,rojo,1,['N_B'],2819.8278113839997,2819.8278113839997,2819.8278113839997,2819.8278113839997,2821.862990747,2821.862990747,2821.862990747,2821.862990747,2821.862990747,2821.862990747,2821.862990747,2821.862990747,2823.8990425399998,2823.8990425399998,2823.8990425399998,2823.8990425399998,,,,,,,,,,,,,,,,,,,,,,,,,,,,,,,,,,,,,,,14,005,2022-09-23_10h39.20.146,test2,2022.2.4,59.95660089407777,
0,0,0,0,116,0,116,0,2823.8990425399998,2823.8990425399998,2823.8990425399998,2823.8990425399998,2823.8990425399998,2823.8990425399998,2823.8990425399998,-1,1,rojo,1,['N_B'],2825.4501904139997,2825.4501904139997,2825.4501904139997,2825.4501904139997,2827.486292282,2827.486292282,2827.486292282,2827.486292282,2827.486292282,2827.486292282,2827.486292282,2827.486292282,2829.521484806,2829.521484806,2829.521484806,2829.521484806,,,,,,,,,,,,,,,,,,,,,,,,,,,,,,,,,,,,,,,14,005,2022-09-23_10h39.20.146,test2,2022.2.4,59.95660089407777,
0,0,0,0,117,0,117,0,2829.521484806,2829.521484806,2829.521484806,2829.521484806,2829.521484806,2829.521484806,2829.521484806,1,-1,azul,0,['N_A'],2831.2735259429996,2831.2735259429996,2831.2735259429996,2831.2735259429996,2833.308960643,2833.308960643,2833.308960643,2833.308960643,2833.308960643,2833.308960643,2833.308960643,2833.308960643,2835.3452858819996,2835.3452858819996,2835.3452858819996,2835.3452858819996,,,,,,,,,,,,,,,,,,,,,,,,,,,,,,,,,,,,,,,14,005,2022-09-23_10h39.20.146,test2,2022.2.4,59.95660089407777,
0,0,0,0,118,0,118,0,2835.3452858819996,2835.3452858819996,2835.3452858819996,2835.3452858819996,2835.3452858819996,2835.3452858819996,2835.3452858819996,1,-1,rojo,1,['N_A'],2837.029475243,2837.029475243,2837.029475243,2837.029475243,2839.0653897019997,2839.0653897019997,2839.0653897019997,2839.0653897019997,2839.0653897019997,2839.0653897019997,2839.0653897019997,2839.0653897019997,2841.100986959,2841.100986959,2841.100986959,2841.100986959,,,,,,,,,,,,,,,,,,,,,,,,,,,,,,,,,,,,,,,14,005,2022-09-23_10h39.20.146,test2,2022.2.4,59.95660089407777,
0,0,0,0,119,0,119,0,2841.100986959,2841.100986959,2841.100986959,2841.100986959,2841.100986959,2841.100986959,2841.100986959,-1,1,azul,0,['N_B'],2843.387198868,2843.387198868,2843.387198868,2843.387198868,2845.422452883,2845.422452883,2845.422452883,2845.422452883,2845.422452883,2845.422452883,2845.422452883,2845.422452883,2847.458176004,2847.458176004,2847.458176004,2847.458176004,,,,,,,,,,,,,,,,,,,,,,,,,,,,,,,,,,,,,,,14,005,2022-09-23_10h39.20.146,test2,2022.2.4,59.95660089407777,
0,0,0,0,120,0,120,0,2847.458176004,2847.458176004,2847.458176004,2847.458176004,2847.458176004,2847.458176004,2847.458176004,1,-1,azul,1,['N_B'],2849.059972488,2849.059972488,2849.059972488,2849.059972488,2851.0958818189997,2851.0958818189997,2851.0958818189997,2851.0958818189997,2851.0958818189997,2851.0958818189997,2851.0958818189997,2851.0958818189997,2853.1308419489997,2853.1308419489997,2853.1308419489997,2853.1308419489997,,,,,,,,,,,,,,,,,,,,,,,,,,,,,,,,,,,,,,,14,005,2022-09-23_10h39.20.146,test2,2022.2.4,59.95660089407777,
0,0,0,0,121,0,121,0,2853.1308419489997,2853.1308419489997,2853.1308419489997,2853.1308419489997,2853.1308419489997,2853.1308419489997,2853.1308419489997,-1,1,rojo,1,['N_B'],2857.218606655,2857.218606655,2857.218606655,2857.218606655,2859.237239342,2859.237239342,2859.237239342,2859.237239342,2859.237239342,2859.237239342,2859.237239342,2859.237239342,2861.2736826269997,2861.2736826269997,2861.2736826269997,2861.2736826269997,,,,,,,,,,,,,,,,,,,,,,,,,,,,,,,,,,,,,,,14,005,2022-09-23_10h39.20.146,test2,2022.2.4,59.95660089407777,
0,0,0,0,122,0,122,0,2861.2736826269997,2861.2736826269997,2861.2736826269997,2861.2736826269997,2861.2736826269997,2861.2736826269997,2861.2736826269997,-1,1,rojo,1,['N_B'],2862.92486144,2862.92486144,2862.92486144,2862.92486144,2864.960531625,2864.960531625,2864.960531625,2864.960531625,2864.960531625,2864.960531625,2864.960531625,2864.960531625,2866.996569426,2866.996569426,2866.996569426,2866.996569426,,,,,,,,,,,,,,,,,,,,,,,,,,,,,,,,,,,,,,,14,005,2022-09-23_10h39.20.146,test2,2022.2.4,59.95660089407777,
0,0,0,0,123,0,123,0,2866.996569426,2866.996569426,2866.996569426,2866.996569426,2866.996569426,2866.996569426,2866.996569426,1,-1,azul,1,['N_B'],2868.81513538,2868.81513538,2868.81513538,2868.81513538,2870.85088788,2870.85088788,2870.85088788,2870.85088788,2870.85088788,2870.85088788,2870.85088788,2870.85088788,2872.8858526989998,2872.8858526989998,2872.8858526989998,2872.8858526989998,,,,,,,,,,,,,,,,,,,,,,,,,,,,,,,,,,,,,,,14,005,2022-09-23_10h39.20.146,test2,2022.2.4,59.95660089407777,
0,0,0,0,124,0,124,0,2872.8858526989998,2872.8858526989998,2872.8858526989998,2872.8858526989998,2872.8858526989998,2872.8858526989998,2872.8858526989998,-1,-1,rojo,0,['N_A'],2875.4225838419998,2875.4225838419998,2875.4225838419998,2875.4225838419998,2877.457746431,2877.457746431,2877.457746431,2877.457746431,2877.457746431,2877.457746431,2877.457746431,2877.457746431,2879.4933932649997,2879.4933932649997,2879.4933932649997,2879.4933932649997,,,,,,,,,,,,,,,,,,,,,,,,,,,,,,,,,,,,,,,14,005,2022-09-23_10h39.20.146,test2,2022.2.4,59.95660089407777,
0,0,0,0,125,0,125,0,2879.4933932649997,2879.4933932649997,2879.4933932649997,2879.4933932649997,2879.4933932649997,2879.4933932649997,2879.4933932649997,1,1,rojo,1,['N_A'],2881.295660126,2881.295660126,2881.295660126,2881.295660126,2883.3313873439997,2883.3313873439997,2883.3313873439997,2883.3313873439997,2883.3313873439997,2883.3313873439997,2883.3313873439997,2883.3313873439997,2885.366739096,2885.366739096,2885.366739096,2885.366739096,,,,,,,,,,,,,,,,,,,,,,,,,,,,,,,,,,,,,,,14,005,2022-09-23_10h39.20.146,test2,2022.2.4,59.95660089407777,
0,0,0,0,126,0,126,0,2885.366739096,2885.366739096,2885.366739096,2885.366739096,2885.366739096,2885.366739096,2885.366739096,1,-1,rojo,1,['N_A'],2886.785019954,2886.785019954,2886.785019954,2886.785019954,2888.820655897,2888.820655897,2888.820655897,2888.820655897,2888.820655897,2888.820655897,2888.820655897,2888.820655897,2890.856191518,2890.856191518,2890.856191518,2890.856191518,,,,,,,,,,,,,,,,,,,,,,,,,,,,,,,,,,,,,,,14,005,2022-09-23_10h39.20.146,test2,2022.2.4,59.95660089407777,
0,0,0,0,127,0,127,0,2890.856191518,2890.856191518,2890.856191518,2890.856191518,2890.856191518,2890.856191518,2890.856191518,1,1,rojo,0,['N_B'],2892.2740611619997,2892.2740611619997,2892.2740611619997,2892.2740611619997,2894.31002676,2894.31002676,2894.31002676,2894.31002676,2894.31002676,2894.31002676,2894.31002676,2894.31002676,2896.3453655569997,2896.3453655569997,2896.3453655569997,2896.3453655569997,,,,,,,,,,,,,,,,,,,,,,,,,,,,,,,,,,,,,,,14,005,2022-09-23_10h39.20.146,test2,2022.2.4,59.95660089407777,
0,0,0,0,128,0,128,0,2896.3453655569997,2896.3453655569997,2896.3453655569997,2896.3453655569997,2896.3453655569997,2896.3453655569997,2896.3453655569997,1,-1,azul,1,['N_B'],2897.362947061,2897.362947061,2897.362947061,2897.362947061,2899.398651568,2899.398651568,2899.398651568,2899.398651568,2899.398651568,2899.398651568,2899.398651568,2899.398651568,2901.434330578,2901.434330578,2901.434330578,2901.434330578,,,,,,,,,,,,,,,,,,,,,,,,,,,,,,,,,,,,,,,14,005,2022-09-23_10h39.20.146,test2,2022.2.4,59.95660089407777,
0,0,0,0,129,0,129,0,2901.434330578,2901.434330578,2901.434330578,2901.434330578,2901.434330578,2901.434330578,2901.434330578,1,-1,azul,1,['N_B'],2902.9355976469997,2902.9355976469997,2902.9355976469997,2902.9355976469997,2904.97156744,2904.97156744,2904.97156744,2904.97156744,2904.97156744,2904.97156744,2904.97156744,2904.97156744,2907.006604155,2907.006604155,2907.006604155,2907.006604155,,,,,,,,,,,,,,,,,,,,,,,,,,,,,,,,,,,,,,,14,005,2022-09-23_10h39.20.146,test2,2022.2.4,59.95660089407777,
0,0,0,0,130,0,130,0,2907.006604155,2907.006604155,2907.006604155,2907.006604155,2907.006604155,2907.006604155,2907.006604155,1,-1,azul,1,['N_B'],2908.325020378,2908.325020378,2908.325020378,2908.325020378,2910.361328118,2910.361328118,2910.361328118,2910.361328118,2910.361328118,2910.361328118,2910.361328118,2910.361328118,2912.396601246,2912.396601246,2912.396601246,2912.396601246,,,,,,,,,,,,,,,,,,,,,,,,,,,,,,,,,,,,,,,14,005,2022-09-23_10h39.20.146,test2,2022.2.4,59.95660089407777,
0,0,0,0,131,0,131,0,2912.396601246,2912.396601246,2912.396601246,2912.396601246,2912.396601246,2912.396601246,2912.396601246,-1,1,rojo,1,['N_B'],2913.964603554,2913.964603554,2913.964603554,2913.964603554,2916.0004368289997,2916.0004368289997,2916.0004368289997,2916.0004368289997,2916.0004368289997,2916.0004368289997,2916.0004368289997,2916.0004368289997,2918.0360990219997,2918.0360990219997,2918.0360990219997,2918.0360990219997,,,,,,,,,,,,,,,,,,,,,,,,,,,,,,,,,,,,,,,14,005,2022-09-23_10h39.20.146,test2,2022.2.4,59.95660089407777,
0,0,0,0,132,0,132,0,2918.0360990219997,2918.0360990219997,2918.0360990219997,2918.0360990219997,2918.0360990219997,2918.0360990219997,2918.0360990219997,1,-1,azul,0,['N_A'],2921.356324173,2921.356324173,2921.356324173,2921.356324173,2923.392091614,2923.392091614,2923.392091614,2923.392091614,2923.392091614,2923.392091614,2923.392091614,2923.392091614,2925.427500673,2925.427500673,2925.427500673,2925.427500673,,,,,,,,,,,,,,,,,,,,,,,,,,,,,,,,,,,,,,,14,005,2022-09-23_10h39.20.146,test2,2022.2.4,59.95660089407777,
0,0,0,0,133,0,133,0,2925.427500673,2925.427500673,2925.427500673,2925.427500673,2925.427500673,2925.427500673,2925.427500673,-1,-1,azul,1,['N_A'],2926.979127235,2926.979127235,2926.979127235,2926.979127235,2929.014783534,2929.014783534,2929.014783534,2929.014783534,2929.014783534,2929.014783534,2929.014783534,2929.014783534,2931.0503541139997,2931.0503541139997,2931.0503541139997,2931.0503541139997,,,,,,,,,,,,,,,,,,,,,,,,,,,,,,,,,,,,,,,14,005,2022-09-23_10h39.20.146,test2,2022.2.4,59.95660089407777,
0,0,0,0,134,0,134,0,2931.0503541139997,2931.0503541139997,2931.0503541139997,2931.0503541139997,2931.0503541139997,2931.0503541139997,2931.0503541139997,1,-1,rojo,0,['N_B'],2933.035398358,2933.035398358,2933.035398358,2933.035398358,2935.0716074889997,2935.0716074889997,2935.0716074889997,2935.0716074889997,2935.0716074889997,2935.0716074889997,2935.0716074889997,2935.0716074889997,2937.107335236,2937.107335236,2937.107335236,2937.107335236,,,,,,,,,,,,,,,,,,,,,,,,,,,,,,,,,,,,,,,14,005,2022-09-23_10h39.20.146,test2,2022.2.4,59.95660089407777,
0,0,0,0,135,0,135,0,2937.107335236,2937.107335236,2937.107335236,2937.107335236,2937.107335236,2937.107335236,2937.107335236,1,-1,azul,1,['N_B'],2939.30917769,2939.30917769,2939.30917769,2939.30917769,2941.345197575,2941.345197575,2941.345197575,2941.345197575,2941.345197575,2941.345197575,2941.345197575,2941.345197575,2943.380943996,2943.380943996,2943.380943996,2943.380943996,,,,,,,,,,,,,,,,,,,,,,,,,,,,,,,,,,,,,,,14,005,2022-09-23_10h39.20.146,test2,2022.2.4,59.95660089407777,
0,0,0,0,136,0,136,0,2943.380943996,2943.380943996,2943.380943996,2943.380943996,2943.380943996,2943.380943996,2943.380943996,1,-1,azul,0,['N_A'],2945.1990700379997,2945.1990700379997,2945.1990700379997,2945.1990700379997,2947.235740308,2947.235740308,2947.235740308,2947.235740308,2947.235740308,2947.235740308,2947.235740308,2947.235740308,2949.270836709,2949.270836709,2949.270836709,2949.270836709,,,,,,,,,,,,,,,,,,,,,,,,,,,,,,,,,,,,,,,14,005,2022-09-23_10h39.20.146,test2,2022.2.4,59.95660089407777,
0,0,0,0,137,0,137,0,2949.270836709,2949.270836709,2949.270836709,2949.270836709,2949.270836709,2949.270836709,2949.270836709,-1,-1,azul,0,['N_B'],2951.5232059339996,2951.5232059339996,2951.5232059339996,2951.5232059339996,2953.558979591,2953.558979591,2953.558979591,2953.558979591,2953.558979591,2953.558979591,2953.558979591,2953.558979591,2955.594576125,2955.594576125,2955.594576125,2955.594576125,,,,,,,,,,,,,,,,,,,,,,,,,,,,,,,,,,,,,,,14,005,2022-09-23_10h39.20.146,test2,2022.2.4,59.95660089407777,
0,0,0,0,138,0,138,0,2955.594576125,2955.594576125,2955.594576125,2955.594576125,2955.594576125,2955.594576125,2955.594576125,-1,1,rojo,1,['N_B'],2957.212743388,2957.212743388,2957.212743388,2957.212743388,2959.2309159439997,2959.2309159439997,2959.2309159439997,2959.2309159439997,2959.2309159439997,2959.2309159439997,2959.2309159439997,2959.2309159439997,2961.267168652,2961.267168652,2961.267168652,2961.267168652,,,,,,,,,,,,,,,,,,,,,,,,,,,,,,,,,,,,,,,14,005,2022-09-23_10h39.20.146,test2,2022.2.4,59.95660089407777,
0,0,0,0,139,0,139,0,2961.267168652,2961.267168652,2961.267168652,2961.267168652,2961.267168652,2961.267168652,2961.267168652,-1,1,rojo,0,['N_A'],2966.355946891,2966.355946891,2966.355946891,2966.355946891,2968.391308829,2968.391308829,2968.391308829,2968.391308829,2968.391308829,2968.391308829,2968.391308829,2968.391308829,2970.4269257819997,2970.4269257819997,2970.4269257819997,2970.4269257819997,,,,,,,,,,,,,,,,,,,,,,,,,,,,,,,,,,,,,,,14,005,2022-09-23_10h39.20.146,test2,2022.2.4,59.95660089407777,
0,0,0,0,140,0,140,0,2970.4269257819997,2970.4269257819997,2970.4269257819997,2970.4269257819997,2970.4269257819997,2970.4269257819997,2970.4269257819997,1,-1,rojo,0,['N_B'],2972.7461271039997,2972.7461271039997,2972.7461271039997,2972.7461271039997,2974.7815388229997,2974.7815388229997,2974.7815388229997,2974.7815388229997,2974.7815388229997,2974.7815388229997,2974.7815388229997,2974.7815388229997,2976.816903852,2976.816903852,2976.816903852,2976.816903852,,,,,,,,,,,,,,,,,,,,,,,,,,,,,,,,,,,,,,,14,005,2022-09-23_10h39.20.146,test2,2022.2.4,59.95660089407777,
0,0,0,0,141,0,141,0,2976.816903852,2976.816903852,2976.816903852,2976.816903852,2976.816903852,2976.816903852,2976.816903852,1,-1,azul,1,['N_B'],2981.405274977,2981.405274977,2981.405274977,2981.405274977,2983.4409908869998,2983.4409908869998,2983.4409908869998,2983.4409908869998,2983.4409908869998,2983.4409908869998,2983.4409908869998,2983.4409908869998,2985.477513984,2985.477513984,2985.477513984,2985.477513984,,,,,,,,,,,,,,,,,,,,,,,,,,,,,,,,,,,,,,,14,005,2022-09-23_10h39.20.146,test2,2022.2.4,59.95660089407777,
0,0,0,0,142,0,142,0,2985.477513984,2985.477513984,2985.477513984,2985.477513984,2985.477513984,2985.477513984,2985.477513984,-1,-1,rojo,1,['N_B'],2987.245013112,2987.245013112,2987.245013112,2987.245013112,2989.281317223,2989.281317223,2989.281317223,2989.281317223,2989.281317223,2989.281317223,2989.281317223,2989.281317223,2991.317232856,2991.317232856,2991.317232856,2991.317232856,,,,,,,,,,,,,,,,,,,,,,,,,,,,,,,,,,,,,,,14,005,2022-09-23_10h39.20.146,test2,2022.2.4,59.95660089407777,
0,0,0,0,143,0,143,0,2991.317232856,2991.317232856,2991.317232856,2991.317232856,2991.317232856,2991.317232856,2991.317232856,1,1,azul,0,['N_A'],2994.387455144,2994.387455144,2994.387455144,2994.387455144,2996.4228469659997,2996.4228469659997,2996.4228469659997,2996.4228469659997,2996.4228469659997,2996.4228469659997,2996.4228469659997,2996.4228469659997,2998.4576282989997,2998.4576282989997,2998.4576282989997,2998.4576282989997,,,,,,,,,,,,,,,,,,,,,,,,,,,,,,,,,,,,,,,14,005,2022-09-23_10h39.20.146,test2,2022.2.4,59.95660089407777,
0,0,0,0,144,0,144,0,2998.4576282989997,2998.4576282989997,2998.4576282989997,2998.4576282989997,2998.4576282989997,2998.4576282989997,2998.4576282989997,1,-1,rojo,1,['N_A'],3000.0937122339997,3000.0937122339997,3000.0937122339997,3000.0937122339997,3002.1287465339997,3002.1287465339997,3002.1287465339997,3002.1287465339997,3002.1287465339997,3002.1287465339997,3002.1287465339997,3002.1287465339997,3004.16474842,3004.16474842,3004.16474842,3004.16474842,,,,,,,,,,,,,,,,,,,,,,,,,,,,,,,,,,,,,,,14,005,2022-09-23_10h39.20.146,test2,2022.2.4,59.95660089407777,
0,0,0,0,145,0,145,0,3004.16474842,3004.16474842,3004.16474842,3004.16474842,3004.16474842,3004.16474842,3004.16474842,1,1,rojo,1,['N_A'],3006.149780681,3006.149780681,3006.149780681,3006.149780681,3008.1851185349997,3008.1851185349997,3008.1851185349997,3008.1851185349997,3008.1851185349997,3008.1851185349997,3008.1851185349997,3008.1851185349997,3010.221419812,3010.221419812,3010.221419812,3010.221419812,,,,,,,,,,,,,,,,,,,,,,,,,,,,,,,,,,,,,,,14,005,2022-09-23_10h39.20.146,test2,2022.2.4,59.95660089407777,
0,0,0,0,146,0,146,0,3010.221419812,3010.221419812,3010.221419812,3010.221419812,3010.221419812,3010.221419812,3010.221419812,-1,-1,azul,1,['N_A'],3013.641145698,3013.641145698,3013.641145698,3013.641145698,3015.677606319,3015.677606319,3015.677606319,3015.677606319,3015.677606319,3015.677606319,3015.677606319,3015.677606319,3017.7124125259998,3017.7124125259998,3017.7124125259998,3017.7124125259998,,,,,,,,,,,,,,,,,,,,,,,,,,,,,,,,,,,,,,,14,005,2022-09-23_10h39.20.146,test2,2022.2.4,59.95660089407777,
0,0,0,0,147,0,147,0,3017.7124125259998,3017.7124125259998,3017.7124125259998,3017.7124125259998,3017.7124125259998,3017.7124125259998,3017.7124125259998,1,-1,rojo,0,['N_B'],3019.5975222869997,3019.5975222869997,3019.5975222869997,3019.5975222869997,3021.6338853879997,3021.6338853879997,3021.6338853879997,3021.6338853879997,3021.6338853879997,3021.6338853879997,3021.6338853879997,3021.6338853879997,3023.669589101,3023.669589101,3023.669589101,3023.669589101,,,,,,,,,,,,,,,,,,,,,,,,,,,,,,,,,,,,,,,14,005,2022-09-23_10h39.20.146,test2,2022.2.4,59.95660089407777,
0,0,0,0,148,0,148,0,3023.669589101,3023.669589101,3023.669589101,3023.669589101,3023.669589101,3023.669589101,3023.669589101,-1,-1,rojo,1,['N_B'],3025.1540696909997,3025.1540696909997,3025.1540696909997,3025.1540696909997,3027.1904658519998,3027.1904658519998,3027.1904658519998,3027.1904658519998,3027.1904658519998,3027.1904658519998,3027.1904658519998,3027.1904658519998,3029.2254859279997,3029.2254859279997,3029.2254859279997,3029.2254859279997,,,,,,,,,,,,,,,,,,,,,,,,,,,,,,,,,,,,,,,14,005,2022-09-23_10h39.20.146,test2,2022.2.4,59.95660089407777,
0,0,0,0,149,0,149,0,3029.2254859279997,3029.2254859279997,3029.2254859279997,3029.2254859279997,3029.2254859279997,3029.2254859279997,3029.2254859279997,-1,-1,rojo,1,['N_B'],3031.094669492,3031.094669492,3031.094669492,3031.094669492,3033.130132413,3033.130132413,3033.130132413,3033.130132413,3033.130132413,3033.130132413,3033.130132413,3033.130132413,3035.165636676,3035.165636676,3035.165636676,3035.165636676,,,,,,,,,,,,,,,,,,,,,,,,,,,,,,,,,,,,,,,14,005,2022-09-23_10h39.20.146,test2,2022.2.4,59.95660089407777,
0,0,0,0,150,0,150,0,3035.165636676,3035.165636676,3035.165636676,3035.165636676,3035.165636676,3035.165636676,3035.165636676,1,-1,azul,0,['N_A'],3036.73355029,3036.73355029,3036.73355029,3036.73355029,3038.7691898129997,3038.7691898129997,3038.7691898129997,3038.7691898129997,3038.7691898129997,3038.7691898129997,3038.7691898129997,3038.7691898129997,3040.8050895399997,3040.8050895399997,3040.8050895399997,3040.8050895399997,,,,,,,,,,,,,,,,,,,,,,,,,,,,,,,,,,,,,,,14,005,2022-09-23_10h39.20.146,test2,2022.2.4,59.95660089407777,
0,0,0,0,151,0,151,0,3040.8050895399997,3040.8050895399997,3040.8050895399997,3040.8050895399997,3040.8050895399997,3040.8050895399997,3040.8050895399997,1,-1,rojo,0,['N_B'],3042.623922844,3042.623922844,3042.623922844,3042.623922844,3044.659607407,3044.659607407,3044.659607407,3044.659607407,3044.659607407,3044.659607407,3044.659607407,3044.659607407,3046.6943645849997,3046.6943645849997,3046.6943645849997,3046.6943645849997,,,,,,,,,,,,,,,,,,,,,,,,,,,,,,,,,,,,,,,14,005,2022-09-23_10h39.20.146,test2,2022.2.4,59.95660089407777,
0,0,0,0,152,0,152,0,3046.6943645849997,3046.6943645849997,3046.6943645849997,3046.6943645849997,3046.6943645849997,3046.6943645849997,3046.6943645849997,1,1,azul,1,['N_B'],3048.179953198,3048.179953198,3048.179953198,3048.179953198,3050.215126772,3050.215126772,3050.215126772,3050.215126772,3050.215126772,3050.215126772,3050.215126772,3050.215126772,3052.250532394,3052.250532394,3052.250532394,3052.250532394,,,,,,,,,,,,,,,,,,,,,,,,,,,,,,,,,,,,,,,14,005,2022-09-23_10h39.20.146,test2,2022.2.4,59.95660089407777,
0,0,0,0,153,0,153,0,3052.250532394,3052.250532394,3052.250532394,3052.250532394,3052.250532394,3052.250532394,3052.250532394,1,-1,azul,0,['N_A'],3053.886452443,3053.886452443,3053.886452443,3053.886452443,3055.921238425,3055.921238425,3055.921238425,3055.921238425,3055.921238425,3055.921238425,3055.921238425,3055.921238425,3057.957454553,3057.957454553,3057.957454553,3057.957454553,,,,,,,,,,,,,,,,,,,,,,,,,,,,,,,,,,,,,,,14,005,2022-09-23_10h39.20.146,test2,2022.2.4,59.95660089407777,
0,0,0,0,154,0,154,0,3057.957454553,3057.957454553,3057.957454553,3057.957454553,3057.957454553,3057.957454553,3057.957454553,1,-1,rojo,1,['N_A'],3059.625827811,3059.625827811,3059.625827811,3059.625827811,3061.660721079,3061.660721079,3061.660721079,3061.660721079,3061.660721079,3061.660721079,3061.660721079,3061.660721079,3063.695922895,3063.695922895,3063.695922895,3063.695922895,,,,,,,,,,,,,,,,,,,,,,,,,,,,,,,,,,,,,,,14,005,2022-09-23_10h39.20.146,test2,2022.2.4,59.95660089407777,
0,0,0,0,155,0,155,0,3063.695922895,3063.695922895,3063.695922895,3063.695922895,3063.695922895,3063.695922895,3063.695922895,1,1,rojo,1,['N_A'],3065.5485158389997,3065.5485158389997,3065.5485158389997,3065.5485158389997,3067.5663508989996,3067.5663508989996,3067.5663508989996,3067.5663508989996,3067.5663508989996,3067.5663508989996,3067.5663508989996,3067.5663508989996,3069.6032940739997,3069.6032940739997,3069.6032940739997,3069.6032940739997,,,,,,,,,,,,,,,,,,,,,,,,,,,,,,,,,,,,,,,14,005,2022-09-23_10h39.20.146,test2,2022.2.4,59.95660089407777,
0,0,0,0,156,0,156,0,3069.6032940739997,3069.6032940739997,3069.6032940739997,3069.6032940739997,3069.6032940739997,3069.6032940739997,3069.6032940739997,1,1,rojo,1,['N_A'],3071.021265038,3071.021265038,3071.021265038,3071.021265038,3073.040339492,3073.040339492,3073.040339492,3073.040339492,3073.040339492,3073.040339492,3073.040339492,3073.040339492,3075.076119416,3075.076119416,3075.076119416,3075.076119416,,,,,,,,,,,,,,,,,,,,,,,,,,,,,,,,,,,,,,,14,005,2022-09-23_10h39.20.146,test2,2022.2.4,59.95660089407777,
0,0,0,0,157,0,157,0,3075.076119416,3075.076119416,3075.076119416,3075.076119416,3075.076119416,3075.076119416,3075.076119416,1,1,rojo,1,['N_A'],3077.1786302289997,3077.1786302289997,3077.1786302289997,3077.1786302289997,3079.213861494,3079.213861494,3079.213861494,3079.213861494,3079.213861494,3079.213861494,3079.213861494,3079.213861494,3081.2493065159997,3081.2493065159997,3081.2493065159997,3081.2493065159997,,,,,,,,,,,,,,,,,,,,,,,,,,,,,,,,,,,,,,,14,005,2022-09-23_10h39.20.146,test2,2022.2.4,59.95660089407777,
0,0,0,0,158,0,158,0,3081.2493065159997,3081.2493065159997,3081.2493065159997,3081.2493065159997,3081.2493065159997,3081.2493065159997,3081.2493065159997,-1,-1,azul,0,['N_B'],3085.237163501,3085.237163501,3085.237163501,3085.237163501,3087.272766171,3087.272766171,3087.272766171,3087.272766171,3087.272766171,3087.272766171,3087.272766171,3087.272766171,3089.3086006199997,3089.3086006199997,3089.3086006199997,3089.3086006199997,,,,,,,,,,,,,,,,,,,,,,,,,,,,,,,,,,,,,,,14,005,2022-09-23_10h39.20.146,test2,2022.2.4,59.95660089407777,
0,0,0,0,159,0,159,0,3089.3086006199997,3089.3086006199997,3089.3086006199997,3089.3086006199997,3089.3086006199997,3089.3086006199997,3089.3086006199997,1,-1,azul,1,['N_B'],3090.9431148619997,3090.9431148619997,3090.9431148619997,3090.9431148619997,3092.9797052999998,3092.9797052999998,3092.9797052999998,3092.9797052999998,3092.9797052999998,3092.9797052999998,3092.9797052999998,3092.9797052999998,3095.014148405,3095.014148405,3095.014148405,3095.014148405,,,,,,,,,,,,,,,,,,,,,,,,,,,,,,,,,,,,,,,14,005,2022-09-23_10h39.20.146,test2,2022.2.4,59.95660089407777,
0,0,0,0,160,0,160,0,3095.014148405,3095.014148405,3095.014148405,3095.014148405,3095.014148405,3095.014148405,3095.014148405,-1,-1,rojo,0,['N_A'],3096.499406696,3096.499406696,3096.499406696,3096.499406696,3098.5356736219996,3098.5356736219996,3098.5356736219996,3098.5356736219996,3098.5356736219996,3098.5356736219996,3098.5356736219996,3098.5356736219996,3100.57092753,3100.57092753,3100.57092753,3100.57092753,,,,,,,,,,,,,,,,,,,,,,,,,,,,,,,,,,,,,,,14,005,2022-09-23_10h39.20.146,test2,2022.2.4,59.95660089407777,
0,0,0,0,161,0,161,0,3100.57092753,3100.57092753,3100.57092753,3100.57092753,3100.57092753,3100.57092753,3100.57092753,1,-1,rojo,1,['N_A'],3102.055283484,3102.055283484,3102.055283484,3102.055283484,3104.0917976729997,3104.0917976729997,3104.0917976729997,3104.0917976729997,3104.0917976729997,3104.0917976729997,3104.0917976729997,3104.0917976729997,3106.126496565,3106.126496565,3106.126496565,3106.126496565,,,,,,,,,,,,,,,,,,,,,,,,,,,,,,,,,,,,,,,14,005,2022-09-23_10h39.20.146,test2,2022.2.4,59.95660089407777,
0,0,0,0,162,0,162,0,3106.126496565,3106.126496565,3106.126496565,3106.126496565,3106.126496565,3106.126496565,3106.126496565,1,-1,rojo,0,['N_B'],3107.661723407,3107.661723407,3107.661723407,3107.661723407,3109.697492663,3109.697492663,3109.697492663,3109.697492663,3109.697492663,3109.697492663,3109.697492663,3109.697492663,3111.7329853439996,3111.7329853439996,3111.7329853439996,3111.7329853439996,,,,,,,,,,,,,,,,,,,,,,,,,,,,,,,,,,,,,,,14,005,2022-09-23_10h39.20.146,test2,2022.2.4,59.95660089407777,
0,0,0,0,163,0,163,0,3111.7329853439996,3111.7329853439996,3111.7329853439996,3111.7329853439996,3111.7329853439996,3111.7329853439996,3111.7329853439996,1,-1,azul,0,['N_A'],3113.31850812,3113.31850812,3113.31850812,3113.31850812,3115.353622071,3115.353622071,3115.353622071,3115.353622071,3115.353622071,3115.353622071,3115.353622071,3115.353622071,3117.38878668,3117.38878668,3117.38878668,3117.38878668,,,,,,,,,,,,,,,,,,,,,,,,,,,,,,,,,,,,,,,14,005,2022-09-23_10h39.20.146,test2,2022.2.4,59.95660089407777,
0,0,0,0,164,0,164,0,3117.38878668,3117.38878668,3117.38878668,3117.38878668,3117.38878668,3117.38878668,3117.38878668,1,-1,rojo,1,['N_A'],3118.941016242,3118.941016242,3118.941016242,3118.941016242,3120.976839735,3120.976839735,3120.976839735,3120.976839735,3120.976839735,3120.976839735,3120.976839735,3120.976839735,3123.012101635,3123.012101635,3123.012101635,3123.012101635,,,,,,,,,,,,,,,,,,,,,,,,,,,,,,,,,,,,,,,14,005,2022-09-23_10h39.20.146,test2,2022.2.4,59.95660089407777,
0,0,0,0,165,0,165,0,3123.012101635,3123.012101635,3123.012101635,3123.012101635,3123.012101635,3123.012101635,3123.012101635,1,-1,rojo,0,['N_B'],3126.048423143,3126.048423143,3126.048423143,3126.048423143,3128.0845878739997,3128.0845878739997,3128.0845878739997,3128.0845878739997,3128.0845878739997,3128.0845878739997,3128.0845878739997,3128.0845878739997,3130.12015595,3130.12015595,3130.12015595,3130.12015595,,,,,,,,,,,,,,,,,,,,,,,,,,,,,,,,,,,,,,,14,005,2022-09-23_10h39.20.146,test2,2022.2.4,59.95660089407777,
0,0,0,0,166,0,166,0,3130.12015595,3130.12015595,3130.12015595,3130.12015595,3130.12015595,3130.12015595,3130.12015595,1,-1,azul,0,['N_A'],3132.155386773,3132.155386773,3132.155386773,3132.155386773,3134.191253978,3134.191253978,3134.191253978,3134.191253978,3134.191253978,3134.191253978,3134.191253978,3134.191253978,3136.226755757,3136.226755757,3136.226755757,3136.226755757,,,,,,,,,,,,,,,,,,,,,,,,,,,,,,,,,,,,,,,14,005,2022-09-23_10h39.20.146,test2,2022.2.4,59.95660089407777,
0,0,0,0,167,0,167,0,3136.226755757,3136.226755757,3136.226755757,3136.226755757,3136.226755757,3136.226755757,3136.226755757,1,1,rojo,1,['N_A'],3138.411997752,3138.411997752,3138.411997752,3138.411997752,3140.430544465,3140.430544465,3140.430544465,3140.430544465,3140.430544465,3140.430544465,3140.430544465,3140.430544465,3142.466763464,3142.466763464,3142.466763464,3142.466763464,,,,,,,,,,,,,,,,,,,,,,,,,,,,,,,,,,,,,,,14,005,2022-09-23_10h39.20.146,test2,2022.2.4,59.95660089407777,
0,0,0,0,168,0,168,0,3142.466763464,3142.466763464,3142.466763464,3142.466763464,3142.466763464,3142.466763464,3142.466763464,1,1,rojo,0,['N_B'],3144.952727338,3144.952727338,3144.952727338,3144.952727338,3146.988683385,3146.988683385,3146.988683385,3146.988683385,3146.988683385,3146.988683385,3146.988683385,3146.988683385,3149.024494594,3149.024494594,3149.024494594,3149.024494594,,,,,,,,,,,,,,,,,,,,,,,,,,,,,,,,,,,,,,,14,005,2022-09-23_10h39.20.146,test2,2022.2.4,59.95660089407777,
0,0,0,0,169,0,169,0,3149.024494594,3149.024494594,3149.024494594,3149.024494594,3149.024494594,3149.024494594,3149.024494594,1,-1,azul,0,['N_A'],3151.193721346,3151.193721346,3151.193721346,3151.193721346,3153.2291301349997,3153.2291301349997,3153.2291301349997,3153.2291301349997,3153.2291301349997,3153.2291301349997,3153.2291301349997,3153.2291301349997,3155.264370669,3155.264370669,3155.264370669,3155.264370669,,,,,,,,,,,,,,,,,,,,,,,,,,,,,,,,,,,,,,,14,005,2022-09-23_10h39.20.146,test2,2022.2.4,59.95660089407777,
0,0,0,0,170,0,170,0,3155.264370669,3155.264370669,3155.264370669,3155.264370669,3155.264370669,3155.264370669,3155.264370669,1,1,rojo,0,['N_B'],3156.849863255,3156.849863255,3156.849863255,3156.849863255,3158.867589941,3158.867589941,3158.867589941,3158.867589941,3158.867589941,3158.867589941,3158.867589941,3158.867589941,3160.904082386,3160.904082386,3160.904082386,3160.904082386,,,,,,,,,,,,,,,,,,,,,,,,,,,,,,,,,,,,,,,14,005,2022-09-23_10h39.20.146,test2,2022.2.4,59.95660089407777,
0,0,0,0,171,0,171,0,3160.904082386,3160.904082386,3160.904082386,3160.904082386,3160.904082386,3160.904082386,3160.904082386,1,1,azul,0,['N_A'],3162.321419517,3162.321419517,3162.321419517,3162.321419517,3164.358628177,3164.358628177,3164.358628177,3164.358628177,3164.358628177,3164.358628177,3164.358628177,3164.358628177,3166.3937531369997,3166.3937531369997,3166.3937531369997,3166.3937531369997,,,,,,,,,,,,,,,,,,,,,,,,,,,,,,,,,,,,,,,14,005,2022-09-23_10h39.20.146,test2,2022.2.4,59.95660089407777,
0,0,0,0,172,0,172,0,3166.3937531369997,3166.3937531369997,3166.3937531369997,3166.3937531369997,3166.3937531369997,3166.3937531369997,3166.3937531369997,-1,-1,azul,1,['N_A'],3168.161657567,3168.161657567,3168.161657567,3168.161657567,3170.197483869,3170.197483869,3170.197483869,3170.197483869,3170.197483869,3170.197483869,3170.197483869,3170.197483869,3172.232678982,3172.232678982,3172.232678982,3172.232678982,,,,,,,,,,,,,,,,,,,,,,,,,,,,,,,,,,,,,,,14,005,2022-09-23_10h39.20.146,test2,2022.2.4,59.95660089407777,
0,0,0,0,173,0,173,0,3172.232678982,3172.232678982,3172.232678982,3172.232678982,3172.232678982,3172.232678982,3172.232678982,1,-1,rojo,0,['N_B'],3174.0523566909997,3174.0523566909997,3174.0523566909997,3174.0523566909997,3176.0875561089997,3176.0875561089997,3176.0875561089997,3176.0875561089997,3176.0875561089997,3176.0875561089997,3176.0875561089997,3176.0875561089997,3178.122938826,3178.122938826,3178.122938826,3178.122938826,,,,,,,,,,,,,,,,,,,,,,,,,,,,,,,,,,,,,,,14,005,2022-09-23_10h39.20.146,test2,2022.2.4,59.95660089407777,
0,0,0,0,174,0,174,0,3178.122938826,3178.122938826,3178.122938826,3178.122938826,3178.122938826,3178.122938826,3178.122938826,1,-1,azul,0,['N_A'],3180.1585282789997,3180.1585282789997,3180.1585282789997,3180.1585282789997,3182.1949093589997,3182.1949093589997,3182.1949093589997,3182.1949093589997,3182.1949093589997,3182.1949093589997,3182.1949093589997,3182.1949093589997,3184.229213775,3184.229213775,3184.229213775,3184.229213775,,,,,,,,,,,,,,,,,,,,,,,,,,,,,,,,,,,,,,,14,005,2022-09-23_10h39.20.146,test2,2022.2.4,59.95660089407777,
0,0,0,0,175,0,175,0,3184.229213775,3184.229213775,3184.229213775,3184.229213775,3184.229213775,3184.229213775,3184.229213775,1,1,rojo,0,['N_B'],3186.415115675,3186.415115675,3186.415115675,3186.415115675,3188.4509802989996,3188.4509802989996,3188.4509802989996,3188.4509802989996,3188.4509802989996,3188.4509802989996,3188.4509802989996,3188.4509802989996,3190.4863662899998,3190.4863662899998,3190.4863662899998,3190.4863662899998,,,,,,,,,,,,,,,,,,,,,,,,,,,,,,,,,,,,,,,14,005,2022-09-23_10h39.20.146,test2,2022.2.4,59.95660089407777,
0,0,0,0,176,0,176,0,3190.4863662899998,3190.4863662899998,3190.4863662899998,3190.4863662899998,3190.4863662899998,3190.4863662899998,3190.4863662899998,1,-1,azul,0,['N_A'],3192.1714015479997,3192.1714015479997,3192.1714015479997,3192.1714015479997,3194.2074556469997,3194.2074556469997,3194.2074556469997,3194.2074556469997,3194.2074556469997,3194.2074556469997,3194.2074556469997,3194.2074556469997,3196.2428619009997,3196.2428619009997,3196.2428619009997,3196.2428619009997,,,,,,,,,,,,,,,,,,,,,,,,,,,,,,,,,,,,,,,14,005,2022-09-23_10h39.20.146,test2,2022.2.4,59.95660089407777,
0,0,0,0,177,0,177,0,3196.2428619009997,3196.2428619009997,3196.2428619009997,3196.2428619009997,3196.2428619009997,3196.2428619009997,3196.2428619009997,-1,-1,azul,0,['N_B'],3197.66135437,3197.66135437,3197.66135437,3197.66135437,3199.69713827,3199.69713827,3199.69713827,3199.69713827,3199.69713827,3199.69713827,3199.69713827,3199.69713827,3201.7325757529998,3201.7325757529998,3201.7325757529998,3201.7325757529998,,,,,,,,,,,,,,,,,,,,,,,,,,,,,,,,,,,,,,,14,005,2022-09-23_10h39.20.146,test2,2022.2.4,59.95660089407777,
0,0,0,0,178,0,178,0,3201.7325757529998,3201.7325757529998,3201.7325757529998,3201.7325757529998,3201.7325757529998,3201.7325757529998,3201.7325757529998,-1,1,rojo,1,['N_B'],3203.15049511,3203.15049511,3203.15049511,3203.15049511,3205.1866539019998,3205.1866539019998,3205.1866539019998,3205.1866539019998,3205.1866539019998,3205.1866539019998,3205.1866539019998,3205.1866539019998,3207.2218139829997,3207.2218139829997,3207.2218139829997,3207.2218139829997,,,,,,,,,,,,,,,,,,,,,,,,,,,,,,,,,,,,,,,14,005,2022-09-23_10h39.20.146,test2,2022.2.4,59.95660089407777,
0,0,0,0,179,0,179,0,3207.2218139829997,3207.2218139829997,3207.2218139829997,3207.2218139829997,3207.2218139829997,3207.2218139829997,3207.2218139829997,1,-1,azul,1,['N_B'],3208.806858045,3208.806858045,3208.806858045,3208.806858045,3210.8420749069996,3210.8420749069996,3210.8420749069996,3210.8420749069996,3210.8420749069996,3210.8420749069996,3210.8420749069996,3210.8420749069996,3212.87829562,3212.87829562,3212.87829562,3212.87829562,,,,,,,,,,,,,,,,,,,,,,,,,,,,,,,,,,,,,,,14,005,2022-09-23_10h39.20.146,test2,2022.2.4,59.95660089407777,
0,0,0,0,180,0,180,0,3212.87829562,3212.87829562,3212.87829562,3212.87829562,3212.87829562,3212.87829562,3212.87829562,1,-1,azul,0,['N_A'],3214.880490658,3214.880490658,3214.880490658,3214.880490658,3216.915800581,3216.915800581,3216.915800581,3216.915800581,3216.915800581,3216.915800581,3216.915800581,3216.915800581,3218.9515610549997,3218.9515610549997,3218.9515610549997,3218.9515610549997,,,,,,,,,,,,,,,,,,,,,,,,,,,,,,,,,,,,,,,14,005,2022-09-23_10h39.20.146,test2,2022.2.4,59.95660089407777,
0,0,0,0,181,0,181,0,3218.9515610549997,3218.9515610549997,3218.9515610549997,3218.9515610549997,3218.9515610549997,3218.9515610549997,3218.9515610549997,1,-1,rojo,1,['N_A'],3220.4367193589997,3220.4367193589997,3220.4367193589997,3220.4367193589997,3222.472280486,3222.472280486,3222.472280486,3222.472280486,3222.472280486,3222.472280486,3222.472280486,3222.472280486,3224.5074392779998,3224.5074392779998,3224.5074392779998,3224.5074392779998,,,,,,,,,,,,,,,,,,,,,,,,,,,,,,,,,,,,,,,14,005,2022-09-23_10h39.20.146,test2,2022.2.4,59.95660089407777,
0,0,0,0,182,0,182,0,3224.5074392779998,3224.5074392779998,3224.5074392779998,3224.5074392779998,3224.5074392779998,3224.5074392779998,3224.5074392779998,1,1,rojo,1,['N_A'],3225.9590506649997,3225.9590506649997,3225.9590506649997,3225.9590506649997,3227.994774918,3227.994774918,3227.994774918,3227.994774918,3227.994774918,3227.994774918,3227.994774918,3227.994774918,3230.029726363,3230.029726363,3230.029726363,3230.029726363,,,,,,,,,,,,,,,,,,,,,,,,,,,,,,,,,,,,,,,14,005,2022-09-23_10h39.20.146,test2,2022.2.4,59.95660089407777,
0,0,0,0,183,0,183,0,3230.029726363,3230.029726363,3230.029726363,3230.029726363,3230.029726363,3230.029726363,3230.029726363,1,-1,rojo,1,['N_A'],3232.1161634339996,3232.1161634339996,3232.1161634339996,3232.1161634339996,3234.151506314,3234.151506314,3234.151506314,3234.151506314,3234.151506314,3234.151506314,3234.151506314,3234.151506314,3236.187156121,3236.187156121,3236.187156121,3236.187156121,,,,,,,,,,,,,,,,,,,,,,,,,,,,,,,,,,,,,,,14,005,2022-09-23_10h39.20.146,test2,2022.2.4,59.95660089407777,
0,0,0,0,184,0,184,0,3236.187156121,3236.187156121,3236.187156121,3236.187156121,3236.187156121,3236.187156121,3236.187156121,1,1,rojo,1,['N_A'],3238.406266685,3238.406266685,3238.406266685,3238.406266685,3240.424340453,3240.424340453,3240.424340453,3240.424340453,3240.424340453,3240.424340453,3240.424340453,3240.424340453,3242.460729859,3242.460729859,3242.460729859,3242.460729859,,,,,,,,,,,,,,,,,,,,,,,,,,,,,,,,,,,,,,,14,005,2022-09-23_10h39.20.146,test2,2022.2.4,59.95660089407777,
0,0,0,0,185,0,185,0,3242.460729859,3242.460729859,3242.460729859,3242.460729859,3242.460729859,3242.460729859,3242.460729859,1,1,rojo,1,['N_A'],3244.1963760129997,3244.1963760129997,3244.1963760129997,3244.1963760129997,3246.231148566,3246.231148566,3246.231148566,3246.231148566,3246.231148566,3246.231148566,3246.231148566,3246.231148566,3248.2673609179997,3248.2673609179997,3248.2673609179997,3248.2673609179997,,,,,,,,,,,,,,,,,,,,,,,,,,,,,,,,,,,,,,,14,005,2022-09-23_10h39.20.146,test2,2022.2.4,59.95660089407777,
0,0,0,0,186,0,186,0,3248.2673609179997,3248.2673609179997,3248.2673609179997,3248.2673609179997,3248.2673609179997,3248.2673609179997,3248.2673609179997,1,-1,rojo,1,['N_A'],3249.869250593,3249.869250593,3249.869250593,3249.869250593,3251.904993876,3251.904993876,3251.904993876,3251.904993876,3251.904993876,3251.904993876,3251.904993876,3251.904993876,3253.940340113,3253.940340113,3253.940340113,3253.940340113,,,,,,,,,,,,,,,,,,,,,,,,,,,,,,,,,,,,,,,14,005,2022-09-23_10h39.20.146,test2,2022.2.4,59.95660089407777,
0,0,0,0,187,0,187,0,3253.940340113,3253.940340113,3253.940340113,3253.940340113,3253.940340113,3253.940340113,3253.940340113,-1,-1,azul,0,['N_B'],3256.2928670789997,3256.2928670789997,3256.2928670789997,3256.2928670789997,3258.328842168,3258.328842168,3258.328842168,3258.328842168,3258.328842168,3258.328842168,3258.328842168,3258.328842168,3260.3633466799997,3260.3633466799997,3260.3633466799997,3260.3633466799997,,,,,,,,,,,,,,,,,,,,,,,,,,,,,,,,,,,,,,,14,005,2022-09-23_10h39.20.146,test2,2022.2.4,59.95660089407777,
0,0,0,0,188,0,188,0,3260.3633466799997,3260.3633466799997,3260.3633466799997,3260.3633466799997,3260.3633466799997,3260.3633466799997,3260.3633466799997,1,-1,azul,1,['N_B'],3262.1663517929996,3262.1663517929996,3262.1663517929996,3262.1663517929996,3264.2016257,3264.2016257,3264.2016257,3264.2016257,3264.2016257,3264.2016257,3264.2016257,3264.2016257,3266.2370306529997,3266.2370306529997,3266.2370306529997,3266.2370306529997,,,,,,,,,,,,,,,,,,,,,,,,,,,,,,,,,,,,,,,14,005,2022-09-23_10h39.20.146,test2,2022.2.4,59.95660089407777,
0,0,0,0,189,0,189,0,3266.2370306529997,3266.2370306529997,3266.2370306529997,3266.2370306529997,3266.2370306529997,3266.2370306529997,3266.2370306529997,-1,1,rojo,1,['N_B'],3267.905843001,3267.905843001,3267.905843001,3267.905843001,3269.941089157,3269.941089157,3269.941089157,3269.941089157,3269.941089157,3269.941089157,3269.941089157,3269.941089157,3271.976671998,3271.976671998,3271.976671998,3271.976671998,,,,,,,,,,,,,,,,,,,,,,,,,,,,,,,,,,,,,,,14,005,2022-09-23_10h39.20.146,test2,2022.2.4,59.95660089407777,
0,0,0,0,190,0,190,0,3271.976671998,3271.976671998,3271.976671998,3271.976671998,3271.976671998,3271.976671998,3271.976671998,1,-1,azul,1,['N_B'],3273.811660291,3273.811660291,3273.811660291,3273.811660291,3275.8479902999998,3275.8479902999998,3275.8479902999998,3275.8479902999998,3275.8479902999998,3275.8479902999998,3275.8479902999998,3275.8479902999998,3277.883222617,3277.883222617,3277.883222617,3277.883222617,,,,,,,,,,,,,,,,,,,,,,,,,,,,,,,,,,,,,,,14,005,2022-09-23_10h39.20.146,test2,2022.2.4,59.95660089407777,
