trials_2.thisRepN,trials_2.thisTrialN,trials_2.thisN,trials_2.thisIndex,trials.thisRepN,trials.thisTrialN,trials.thisN,trials.thisIndex,Instrucción2.started,N_A_4.started,N_B_4.started,Exitos_3.started,Dias_3.started,Stimuli_1.started,Stimuli_2.started,Transitions,Rewards,Mode,Stay,Neighbour,Stimuli_3.started,Modo.started,Dias2.started,Exitos2.started,Stimuli_3.stopped,Modo.stopped,Dias2.stopped,Exitos2.stopped,Reward.started,Stimuli_reward.started,Exitos3.started,Dias3.started,Reward.stopped,Stimuli_reward.stopped,Exitos3.stopped,Dias3.stopped,Cue_text.started,Stimuli_4.started,Exitos4.started,Dias4.started,Stimuli_3_3.started,Stimuli_2_3.started,Instrucción.started,N_A.started,N_B.started,N_C.started,Exitos_2.started,Dias_2.started,Stimuli_1_3.started,Resp_final_1,Modo2.started,Modo1.started,Pregunta_4.started,Modo3.started,Exitos7.started,Dias6.started,Resp_final_2,Modo1_2.started,Pregunta_3.started,Modo2_2.started,Exitos8.started,Dias7.started,Resp_final_3,Mensaje_Final2.started,Exitos6.started,participant,session,date,expName,psychopyVersion,frameRate,
0,0,0,0,0,0,0,0,42.760243661998175,42.760243661998175,42.760243661998175,42.760243661998175,42.760243661998175,42.760243661998175,42.760243661998175,0,0,0,0,['N_A'],53.87063841699819,53.87063841699819,53.87063841699819,53.87063841699819,55.90758031900077,55.90758031900077,55.90758031900077,55.90758031900077,55.90758031900077,55.90758031900077,55.90758031900077,55.90758031900077,57.94232641099916,57.94232641099916,57.94232641099916,57.94232641099916,,,,,,,,,,,,,,,,,,,,,,,,,,,,,,14,007,2022-09-23_15h46.22.951,test2,2022.2.4,59.3644164190562,
0,0,0,0,1,0,1,0,57.94232641099916,57.94232641099916,57.94232641099916,57.94232641099916,57.94232641099916,57.94232641099916,57.94232641099916,-1,-1,azul,1,['N_A'],67.26919461300167,67.26919461300167,67.26919461300167,67.26919461300167,69.3049827470004,69.3049827470004,69.3049827470004,69.3049827470004,69.3049827470004,69.3049827470004,69.3049827470004,69.3049827470004,71.34096022899939,71.34096022899939,71.34096022899939,71.34096022899939,,,,,,,,,,,,,,,,,,,,,,,,,,,,,,14,007,2022-09-23_15h46.22.951,test2,2022.2.4,59.3644164190562,
0,0,0,0,2,0,2,0,71.34096022899939,71.34096022899939,71.34096022899939,71.34096022899939,71.34096022899939,71.34096022899939,71.34096022899939,1,-1,rojo,0,['N_B'],76.74725632900117,76.74725632900117,76.74725632900117,76.74725632900117,78.78209354799947,78.78209354799947,78.78209354799947,78.78209354799947,78.78209354799947,78.78209354799947,78.78209354799947,78.78209354799947,80.81778436599961,80.81778436599961,80.81778436599961,80.81778436599961,,,,,,,,,,,,,,,,,,,,,,,,,,,,,,14,007,2022-09-23_15h46.22.951,test2,2022.2.4,59.3644164190562,
0,0,0,0,3,0,3,0,80.81778436599961,80.81778436599961,80.81778436599961,80.81778436599961,80.81778436599961,80.81778436599961,80.81778436599961,1,1,azul,1,['N_B'],84.63825872399866,84.63825872399866,84.63825872399866,84.63825872399866,86.67431072699947,86.67431072699947,86.67431072699947,86.67431072699947,86.67431072699947,86.67431072699947,86.67431072699947,86.67431072699947,88.71005589800006,88.71005589800006,88.71005589800006,88.71005589800006,,,,,,,,,,,,,,,,,,,,,,,,,,,,,,14,007,2022-09-23_15h46.22.951,test2,2022.2.4,59.3644164190562,
0,0,0,0,4,0,4,0,88.71005589800006,88.71005589800006,88.71005589800006,88.71005589800006,88.71005589800006,88.71005589800006,88.71005589800006,1,-1,azul,1,['N_B'],93.7826166979994,93.7826166979994,93.7826166979994,93.7826166979994,95.81766754100136,95.81766754100136,95.81766754100136,95.81766754100136,95.81766754100136,95.81766754100136,95.81766754100136,95.81766754100136,97.85352306900131,97.85352306900131,97.85352306900131,97.85352306900131,,,,,,,,,,,,,,,,,,,,,,,,,,,,,,14,007,2022-09-23_15h46.22.951,test2,2022.2.4,59.3644164190562,
0,0,0,0,5,0,5,0,97.85352306900131,97.85352306900131,97.85352306900131,97.85352306900131,97.85352306900131,97.85352306900131,97.85352306900131,1,-1,azul,0,['N_A'],100.3391327119989,100.3391327119989,100.3391327119989,100.3391327119989,102.3749909900016,102.3749909900016,102.3749909900016,102.3749909900016,102.3749909900016,102.3749909900016,102.3749909900016,102.3749909900016,104.41035726899827,104.41035726899827,104.41035726899827,104.41035726899827,,,,,,,,,,,,,,,,,,,,,,,,,,,,,,14,007,2022-09-23_15h46.22.951,test2,2022.2.4,59.3644164190562,
0,0,0,0,6,0,6,0,104.41035726899827,104.41035726899827,104.41035726899827,104.41035726899827,104.41035726899827,104.41035726899827,104.41035726899827,1,1,rojo,1,['N_A'],110.51683857400167,110.51683857400167,110.51683857400167,110.51683857400167,112.55339911100054,112.55339911100054,112.55339911100054,112.55339911100054,112.55339911100054,112.55339911100054,112.55339911100054,112.55339911100054,114.58825529700152,114.58825529700152,114.58825529700152,114.58825529700152,,,,,,,,,,,,,,,,,,,,,,,,,,,,,,14,007,2022-09-23_15h46.22.951,test2,2022.2.4,59.3644164190562,
0,0,0,0,7,0,7,0,114.58825529700152,114.58825529700152,114.58825529700152,114.58825529700152,114.58825529700152,114.58825529700152,114.58825529700152,1,-1,rojo,1,['N_A'],119.00948442499975,119.00948442499975,119.00948442499975,119.00948442499975,121.04605807699954,121.04605807699954,121.04605807699954,121.04605807699954,121.04605807699954,121.04605807699954,121.04605807699954,121.04605807699954,123.0806561599984,123.0806561599984,123.0806561599984,123.0806561599984,,,,,,,,,,,,,,,,,,,,,,,,,,,,,,14,007,2022-09-23_15h46.22.951,test2,2022.2.4,59.3644164190562,
0,0,0,0,8,0,8,0,123.0806561599984,123.0806561599984,123.0806561599984,123.0806561599984,123.0806561599984,123.0806561599984,123.0806561599984,1,-1,rojo,0,['N_B'],131.37339534199964,131.37339534199964,131.37339534199964,131.37339534199964,133.40935392700158,133.40935392700158,133.40935392700158,133.40935392700158,133.40935392700158,133.40935392700158,133.40935392700158,133.40935392700158,135.44455249199927,135.44455249199927,135.44455249199927,135.44455249199927,,,,,,,,,,,,,,,,,,,,,,,,,,,,,,14,007,2022-09-23_15h46.22.951,test2,2022.2.4,59.3644164190562,
0,0,0,0,9,0,9,0,135.44455249199927,135.44455249199927,135.44455249199927,135.44455249199927,135.44455249199927,135.44455249199927,135.44455249199927,1,1,azul,1,['N_B'],140.31716811800106,140.31716811800106,140.31716811800106,140.31716811800106,142.35249831099827,142.35249831099827,142.35249831099827,142.35249831099827,142.35249831099827,142.35249831099827,142.35249831099827,142.35249831099827,144.38783172999865,144.38783172999865,144.38783172999865,144.38783172999865,,,,,,,,,,,,,,,,,,,,,,,,,,,,,,14,007,2022-09-23_15h46.22.951,test2,2022.2.4,59.3644164190562,
0,0,0,0,10,0,10,0,144.38783172999865,144.38783172999865,144.38783172999865,144.38783172999865,144.38783172999865,144.38783172999865,144.38783172999865,1,-1,azul,1,['N_B'],146.14028550900002,146.14028550900002,146.14028550900002,146.14028550900002,148.17607080400012,148.17607080400012,148.17607080400012,148.17607080400012,148.17607080400012,148.17607080400012,148.17607080400012,148.17607080400012,150.2108898860006,150.2108898860006,150.2108898860006,150.2108898860006,,,,,,,,,,,,,,,,,,,,,,,,,,,,,,14,007,2022-09-23_15h46.22.951,test2,2022.2.4,59.3644164190562,
0,0,0,0,11,0,11,0,150.2108898860006,150.2108898860006,150.2108898860006,150.2108898860006,150.2108898860006,150.2108898860006,150.2108898860006,1,1,azul,1,['N_B'],156.65171481700054,156.65171481700054,156.65171481700054,156.65171481700054,158.68696879600066,158.68696879600066,158.68696879600066,158.68696879600066,158.68696879600066,158.68696879600066,158.68696879600066,158.68696879600066,160.72249056599867,160.72249056599867,160.72249056599867,160.72249056599867,,,,,,,,,,,,,,,,,,,,,,,,,,,,,,14,007,2022-09-23_15h46.22.951,test2,2022.2.4,59.3644164190562,
0,0,0,0,12,0,12,0,160.72249056599867,160.72249056599867,160.72249056599867,160.72249056599867,160.72249056599867,160.72249056599867,160.72249056599867,1,-1,azul,1,['N_B'],164.9269707250005,164.9269707250005,164.9269707250005,164.9269707250005,166.96298482599923,166.96298482599923,166.96298482599923,166.96298482599923,166.96298482599923,166.96298482599923,166.96298482599923,166.96298482599923,168.998305223,168.998305223,168.998305223,168.998305223,,,,,,,,,,,,,,,,,,,,,,,,,,,,,,14,007,2022-09-23_15h46.22.951,test2,2022.2.4,59.3644164190562,
0,0,0,0,13,0,13,0,168.998305223,168.998305223,168.998305223,168.998305223,168.998305223,168.998305223,168.998305223,-1,-1,rojo,0,['N_A'],171.8179282100009,171.8179282100009,171.8179282100009,171.8179282100009,173.8543734089999,173.8543734089999,173.8543734089999,173.8543734089999,173.8543734089999,173.8543734089999,173.8543734089999,173.8543734089999,175.88991268200152,175.88991268200152,175.88991268200152,175.88991268200152,,,,,,,,,,,,,,,,,,,,,,,,,,,,,,14,007,2022-09-23_15h46.22.951,test2,2022.2.4,59.3644164190562,
0,0,0,0,14,0,14,0,175.88991268200152,175.88991268200152,175.88991268200152,175.88991268200152,175.88991268200152,175.88991268200152,175.88991268200152,1,-1,rojo,1,['N_A'],179.61002696299875,179.61002696299875,179.61002696299875,179.61002696299875,181.64626892499837,181.64626892499837,181.64626892499837,181.64626892499837,181.64626892499837,181.64626892499837,181.64626892499837,181.64626892499837,183.681943141999,183.681943141999,183.681943141999,183.681943141999,,,,,,,,,,,,,,,,,,,,,,,,,,,,,,14,007,2022-09-23_15h46.22.951,test2,2022.2.4,59.3644164190562,
0,0,0,0,15,0,15,0,183.681943141999,183.681943141999,183.681943141999,183.681943141999,183.681943141999,183.681943141999,183.681943141999,-1,1,azul,1,['N_A'],194.74333155800014,194.74333155800014,194.74333155800014,194.74333155800014,196.77923153900156,196.77923153900156,196.77923153900156,196.77923153900156,196.77923153900156,196.77923153900156,196.77923153900156,196.77923153900156,198.8148169239994,198.8148169239994,198.8148169239994,198.8148169239994,,,,,,,,,,,,,,,,,,,,,,,,,,,,,,14,007,2022-09-23_15h46.22.951,test2,2022.2.4,59.3644164190562,
0,0,0,0,16,0,16,0,198.8148169239994,198.8148169239994,198.8148169239994,198.8148169239994,198.8148169239994,198.8148169239994,198.8148169239994,-1,-1,azul,0,['N_B'],201.03410311800144,201.03410311800144,201.03410311800144,201.03410311800144,203.0693629590005,203.0693629590005,203.0693629590005,203.0693629590005,203.0693629590005,203.0693629590005,203.0693629590005,203.0693629590005,205.10475182199843,205.10475182199843,205.10475182199843,205.10475182199843,,,,,,,,,,,,,,,,,,,,,,,,,,,,,,14,007,2022-09-23_15h46.22.951,test2,2022.2.4,59.3644164190562,
0,0,0,0,17,0,17,0,205.10475182199843,205.10475182199843,205.10475182199843,205.10475182199843,205.10475182199843,205.10475182199843,205.10475182199843,1,-1,azul,0,['N_A'],207.65751953100153,207.65751953100153,207.65751953100153,207.65751953100153,209.69333723300042,209.69333723300042,209.69333723300042,209.69333723300042,209.69333723300042,209.69333723300042,209.69333723300042,209.69333723300042,211.7294698249989,211.7294698249989,211.7294698249989,211.7294698249989,,,,,,,,,,,,,,,,,,,,,,,,,,,,,,14,007,2022-09-23_15h46.22.951,test2,2022.2.4,59.3644164190562,
0,0,0,0,18,0,18,0,211.7294698249989,211.7294698249989,211.7294698249989,211.7294698249989,211.7294698249989,211.7294698249989,211.7294698249989,-1,1,azul,0,['N_B'],234.9048339819983,234.9048339819983,234.9048339819983,234.9048339819983,236.924234565,236.924234565,236.924234565,236.924234565,236.924234565,236.924234565,236.924234565,236.924234565,238.95878841099875,238.95878841099875,238.95878841099875,238.95878841099875,,,,,,,,,,,,,,,,,,,,,,,,,,,,,,14,007,2022-09-23_15h46.22.951,test2,2022.2.4,59.3644164190562,
0,0,0,0,19,0,19,0,238.95878841099875,238.95878841099875,238.95878841099875,238.95878841099875,238.95878841099875,238.95878841099875,238.95878841099875,1,1,azul,0,['N_A'],241.2110731269986,241.2110731269986,241.2110731269986,241.2110731269986,243.24703776600109,243.24703776600109,243.24703776600109,243.24703776600109,243.24703776600109,243.24703776600109,243.24703776600109,243.24703776600109,245.28341490500134,245.28341490500134,245.28341490500134,245.28341490500134,,,,,,,,,,,,,,,,,,,,,,,,,,,,,,14,007,2022-09-23_15h46.22.951,test2,2022.2.4,59.3644164190562,
0,0,0,0,20,0,20,0,245.28341490500134,245.28341490500134,245.28341490500134,245.28341490500134,245.28341490500134,245.28341490500134,245.28341490500134,1,-1,rojo,1,['N_A'],247.66825362299824,247.66825362299824,247.66825362299824,247.66825362299824,249.70452357900103,249.70452357900103,249.70452357900103,249.70452357900103,249.70452357900103,249.70452357900103,249.70452357900103,249.70452357900103,251.73944770699927,251.73944770699927,251.73944770699927,251.73944770699927,,,,,,,,,,,,,,,,,,,,,,,,,,,,,,14,007,2022-09-23_15h46.22.951,test2,2022.2.4,59.3644164190562,
0,0,0,0,21,0,21,0,251.73944770699927,251.73944770699927,251.73944770699927,251.73944770699927,251.73944770699927,251.73944770699927,251.73944770699927,-1,1,azul,1,['N_A'],254.12553710199973,254.12553710199973,254.12553710199973,254.12553710199973,256.14474061599867,256.14474061599867,256.14474061599867,256.14474061599867,256.14474061599867,256.14474061599867,256.14474061599867,256.14474061599867,258.1801028630016,258.1801028630016,258.1801028630016,258.1801028630016,,,,,,,,,,,,,,,,,,,,,,,,,,,,,,14,007,2022-09-23_15h46.22.951,test2,2022.2.4,59.3644164190562,
0,0,0,0,22,0,22,0,258.1801028630016,258.1801028630016,258.1801028630016,258.1801028630016,258.1801028630016,258.1801028630016,258.1801028630016,-1,1,azul,1,['N_A'],260.39969909499814,260.39969909499814,260.39969909499814,260.39969909499814,262.43505986999844,262.43505986999844,262.43505986999844,262.43505986999844,262.43505986999844,262.43505986999844,262.43505986999844,262.43505986999844,264.4700008759992,264.4700008759992,264.4700008759992,264.4700008759992,,,,,,,,,,,,,,,,,,,,,,,,,,,,,,14,007,2022-09-23_15h46.22.951,test2,2022.2.4,59.3644164190562,
0,0,0,0,23,0,23,0,264.4700008759992,264.4700008759992,264.4700008759992,264.4700008759992,264.4700008759992,264.4700008759992,264.4700008759992,1,-1,rojo,0,['N_B'],267.05648017800013,267.05648017800013,267.05648017800013,267.05648017800013,269.0922251690008,269.0922251690008,269.0922251690008,269.0922251690008,269.0922251690008,269.0922251690008,269.0922251690008,269.0922251690008,271.1283296890015,271.1283296890015,271.1283296890015,271.1283296890015,,,,,,,,,,,,,,,,,,,,,,,,,,,,,,14,007,2022-09-23_15h46.22.951,test2,2022.2.4,59.3644164190562,
0,0,0,0,24,0,24,0,271.1283296890015,271.1283296890015,271.1283296890015,271.1283296890015,271.1283296890015,271.1283296890015,271.1283296890015,1,1,azul,1,['N_B'],274.1813658170013,274.1813658170013,274.1813658170013,274.1813658170013,276.20059192699955,276.20059192699955,276.20059192699955,276.20059192699955,276.20059192699955,276.20059192699955,276.20059192699955,276.20059192699955,278.23528154500127,278.23528154500127,278.23528154500127,278.23528154500127,,,,,,,,,,,,,,,,,,,,,,,,,,,,,,14,007,2022-09-23_15h46.22.951,test2,2022.2.4,59.3644164190562,
0,0,0,0,25,0,25,0,278.23528154500127,278.23528154500127,278.23528154500127,278.23528154500127,278.23528154500127,278.23528154500127,278.23528154500127,1,1,azul,1,['N_B'],282.05671108799834,282.05671108799834,282.05671108799834,282.05671108799834,284.0926833700014,284.0926833700014,284.0926833700014,284.0926833700014,284.0926833700014,284.0926833700014,284.0926833700014,284.0926833700014,286.1271683149989,286.1271683149989,286.1271683149989,286.1271683149989,,,,,,,,,,,,,,,,,,,,,,,,,,,,,,14,007,2022-09-23_15h46.22.951,test2,2022.2.4,59.3644164190562,
0,0,0,0,26,0,26,0,286.1271683149989,286.1271683149989,286.1271683149989,286.1271683149989,286.1271683149989,286.1271683149989,286.1271683149989,-1,-1,rojo,0,['N_A'],288.5973099720013,288.5973099720013,288.5973099720013,288.5973099720013,290.6332065810002,290.6332065810002,290.6332065810002,290.6332065810002,290.6332065810002,290.6332065810002,290.6332065810002,290.6332065810002,292.6680416699983,292.6680416699983,292.6680416699983,292.6680416699983,,,,,,,,,,,,,,,,,,,,,,,,,,,,,,14,007,2022-09-23_15h46.22.951,test2,2022.2.4,59.3644164190562,
0,0,0,0,27,0,27,0,292.6680416699983,292.6680416699983,292.6680416699983,292.6680416699983,292.6680416699983,292.6680416699983,292.6680416699983,1,1,rojo,1,['N_A'],298.37506323199887,298.37506323199887,298.37506323199887,298.37506323199887,300.4099507999981,300.4099507999981,300.4099507999981,300.4099507999981,300.4099507999981,300.4099507999981,300.4099507999981,300.4099507999981,302.44564078299845,302.44564078299845,302.44564078299845,302.44564078299845,,,,,,,,,,,,,,,,,,,,,,,,,,,,,,14,007,2022-09-23_15h46.22.951,test2,2022.2.4,59.3644164190562,
0,0,0,0,28,0,28,0,302.44564078299845,302.44564078299845,302.44564078299845,302.44564078299845,302.44564078299845,302.44564078299845,302.44564078299845,1,-1,rojo,0,['N_B'],304.7814813800014,304.7814813800014,304.7814813800014,304.7814813800014,306.81758101299965,306.81758101299965,306.81758101299965,306.81758101299965,306.81758101299965,306.81758101299965,306.81758101299965,306.81758101299965,308.852508801001,308.852508801001,308.852508801001,308.852508801001,,,,,,,,,,,,,,,,,,,,,,,,,,,,,,14,007,2022-09-23_15h46.22.951,test2,2022.2.4,59.3644164190562,
0,0,0,0,29,0,29,0,308.852508801001,308.852508801001,308.852508801001,308.852508801001,308.852508801001,308.852508801001,308.852508801001,-1,-1,rojo,1,['N_B'],311.42188761000034,311.42188761000034,311.42188761000034,311.42188761000034,313.45818790299927,313.45818790299927,313.45818790299927,313.45818790299927,313.45818790299927,313.45818790299927,313.45818790299927,313.45818790299927,315.4939863489981,315.4939863489981,315.4939863489981,315.4939863489981,,,,,,,,,,,,,,,,,,,,,,,,,,,,,,14,007,2022-09-23_15h46.22.951,test2,2022.2.4,59.3644164190562,
0,0,0,0,30,0,30,0,315.4939863489981,315.4939863489981,315.4939863489981,315.4939863489981,315.4939863489981,315.4939863489981,315.4939863489981,1,1,azul,1,['N_B'],317.478666609999,317.478666609999,317.478666609999,317.478666609999,319.51446246700107,319.51446246700107,319.51446246700107,319.51446246700107,319.51446246700107,319.51446246700107,319.51446246700107,319.51446246700107,321.550418574001,321.550418574001,321.550418574001,321.550418574001,,,,,,,,,,,,,,,,,,,,,,,,,,,,,,14,007,2022-09-23_15h46.22.951,test2,2022.2.4,59.3644164190562,
0,0,0,0,31,0,31,0,321.550418574001,321.550418574001,321.550418574001,321.550418574001,321.550418574001,321.550418574001,321.550418574001,1,-1,azul,1,['N_B'],324.3198906810012,324.3198906810012,324.3198906810012,324.3198906810012,326.3559964590004,326.3559964590004,326.3559964590004,326.3559964590004,326.3559964590004,326.3559964590004,326.3559964590004,326.3559964590004,328.3904471090009,328.3904471090009,328.3904471090009,328.3904471090009,,,,,,,,,,,,,,,,,,,,,,,,,,,,,,14,007,2022-09-23_15h46.22.951,test2,2022.2.4,59.3644164190562,
0,0,0,0,32,0,32,0,328.3904471090009,328.3904471090009,328.3904471090009,328.3904471090009,328.3904471090009,328.3904471090009,328.3904471090009,-1,-1,rojo,1,['N_B'],331.2937257909998,331.2937257909998,331.2937257909998,331.2937257909998,333.330557629999,333.330557629999,333.330557629999,333.330557629999,333.330557629999,333.330557629999,333.330557629999,333.330557629999,335.3658549369993,335.3658549369993,335.3658549369993,335.3658549369993,,,,,,,,,,,,,,,,,,,,,,,,,,,,,,14,007,2022-09-23_15h46.22.951,test2,2022.2.4,59.3644164190562,
0,0,0,0,33,0,33,0,335.3658549369993,335.3658549369993,335.3658549369993,335.3658549369993,335.3658549369993,335.3658549369993,335.3658549369993,1,-1,azul,0,['N_A'],338.08555778700065,338.08555778700065,338.08555778700065,338.08555778700065,340.12103823100006,340.12103823100006,340.12103823100006,340.12103823100006,340.12103823100006,340.12103823100006,340.12103823100006,340.12103823100006,342.156307610001,342.156307610001,342.156307610001,342.156307610001,,,,,,,,,,,,,,,,,,,,,,,,,,,,,,14,007,2022-09-23_15h46.22.951,test2,2022.2.4,59.3644164190562,
0,0,0,0,34,0,34,0,342.156307610001,342.156307610001,342.156307610001,342.156307610001,342.156307610001,342.156307610001,342.156307610001,1,-1,rojo,1,['N_A'],345.8774261609997,345.8774261609997,345.8774261609997,345.8774261609997,347.912638066,347.912638066,347.912638066,347.912638066,347.912638066,347.912638066,347.912638066,347.912638066,349.9480968080006,349.9480968080006,349.9480968080006,349.9480968080006,,,,,,,,,,,,,,,,,,,,,,,,,,,,,,14,007,2022-09-23_15h46.22.951,test2,2022.2.4,59.3644164190562,
0,0,0,0,35,0,35,0,349.9480968080006,349.9480968080006,349.9480968080006,349.9480968080006,349.9480968080006,349.9480968080006,349.9480968080006,1,-1,rojo,1,['N_A'],353.7023305669991,353.7023305669991,353.7023305669991,353.7023305669991,355.7385900249992,355.7385900249992,355.7385900249992,355.7385900249992,355.7385900249992,355.7385900249992,355.7385900249992,355.7385900249992,357.7731312650012,357.7731312650012,357.7731312650012,357.7731312650012,,,,,,,,,,,,,,,,,,,,,,,,,,,,,,14,007,2022-09-23_15h46.22.951,test2,2022.2.4,59.3644164190562,
0,0,0,0,36,0,36,0,357.7731312650012,357.7731312650012,357.7731312650012,357.7731312650012,357.7731312650012,357.7731312650012,357.7731312650012,-1,-1,azul,0,['N_B'],360.0922997610014,360.0922997610014,360.0922997610014,360.0922997610014,362.12819856700116,362.12819856700116,362.12819856700116,362.12819856700116,362.12819856700116,362.12819856700116,362.12819856700116,362.12819856700116,364.1642741839987,364.1642741839987,364.1642741839987,364.1642741839987,,,,,,,,,,,,,,,,,,,,,,,,,,,,,,14,007,2022-09-23_15h46.22.951,test2,2022.2.4,59.3644164190562,
0,0,0,0,37,0,37,0,364.1642741839987,364.1642741839987,364.1642741839987,364.1642741839987,364.1642741839987,364.1642741839987,364.1642741839987,1,-1,azul,0,['N_A'],367.1836107549989,367.1836107549989,367.1836107549989,367.1836107549989,369.21924468700126,369.21924468700126,369.21924468700126,369.21924468700126,369.21924468700126,369.21924468700126,369.21924468700126,369.21924468700126,371.2549604959986,371.2549604959986,371.2549604959986,371.2549604959986,,,,,,,,,,,,,,,,,,,,,,,,,,,,,,14,007,2022-09-23_15h46.22.951,test2,2022.2.4,59.3644164190562,
0,0,0,0,38,0,38,0,371.2549604959986,371.2549604959986,371.2549604959986,371.2549604959986,371.2549604959986,371.2549604959986,371.2549604959986,1,-1,rojo,1,['N_A'],373.5414819630005,373.5414819630005,373.5414819630005,373.5414819630005,375.5766721380005,375.5766721380005,375.5766721380005,375.5766721380005,375.5766721380005,375.5766721380005,375.5766721380005,375.5766721380005,377.61201507400074,377.61201507400074,377.61201507400074,377.61201507400074,,,,,,,,,,,,,,,,,,,,,,,,,,,,,,14,007,2022-09-23_15h46.22.951,test2,2022.2.4,59.3644164190562,
0,0,0,0,39,0,39,0,377.61201507400074,377.61201507400074,377.61201507400074,377.61201507400074,377.61201507400074,377.61201507400074,377.61201507400074,1,-1,rojo,0,['N_B'],380.0652652629997,380.0652652629997,380.0652652629997,380.0652652629997,382.1001842300011,382.1001842300011,382.1001842300011,382.1001842300011,382.1001842300011,382.1001842300011,382.1001842300011,382.1001842300011,384.1365100159983,384.1365100159983,384.1365100159983,384.1365100159983,,,,,,,,,,,,,,,,,,,,,,,,,,,,,,14,007,2022-09-23_15h46.22.951,test2,2022.2.4,59.3644164190562,
0,0,0,0,40,0,40,0,384.1365100159983,384.1365100159983,384.1365100159983,384.1365100159983,384.1365100159983,384.1365100159983,384.1365100159983,1,-1,azul,1,['N_B'],385.9548027820001,385.9548027820001,385.9548027820001,385.9548027820001,387.99044124800093,387.99044124800093,387.99044124800093,387.99044124800093,387.99044124800093,387.99044124800093,387.99044124800093,387.99044124800093,390.02540227999816,390.02540227999816,390.02540227999816,390.02540227999816,,,,,,,,,,,,,,,,,,,,,,,,,,,,,,14,007,2022-09-23_15h46.22.951,test2,2022.2.4,59.3644164190562,
0,0,0,0,41,0,41,0,390.02540227999816,390.02540227999816,390.02540227999816,390.02540227999816,390.02540227999816,390.02540227999816,390.02540227999816,-1,-1,rojo,1,['N_B'],391.461135249001,391.461135249001,391.461135249001,391.461135249001,393.4962463920001,393.4962463920001,393.4962463920001,393.4962463920001,393.4962463920001,393.4962463920001,393.4962463920001,393.4962463920001,395.53177226200023,395.53177226200023,395.53177226200023,395.53177226200023,,,,,,,,,,,,,,,,,,,,,,,,,,,,,,14,007,2022-09-23_15h46.22.951,test2,2022.2.4,59.3644164190562,
0,0,0,0,42,0,42,0,395.53177226200023,395.53177226200023,395.53177226200023,395.53177226200023,395.53177226200023,395.53177226200023,395.53177226200023,1,1,azul,1,['N_B'],397.3668523319993,397.3668523319993,397.3668523319993,397.3668523319993,399.38667218500086,399.38667218500086,399.38667218500086,399.38667218500086,399.38667218500086,399.38667218500086,399.38667218500086,399.38667218500086,401.4216375240012,401.4216375240012,401.4216375240012,401.4216375240012,,,,,,,,,,,,,,,,,,,,,,,,,,,,,,14,007,2022-09-23_15h46.22.951,test2,2022.2.4,59.3644164190562,
0,0,0,0,43,0,43,0,401.4216375240012,401.4216375240012,401.4216375240012,401.4216375240012,401.4216375240012,401.4216375240012,401.4216375240012,1,1,azul,1,['N_B'],403.2074037520015,403.2074037520015,403.2074037520015,403.2074037520015,405.2262253969984,405.2262253969984,405.2262253969984,405.2262253969984,405.2262253969984,405.2262253969984,405.2262253969984,405.2262253969984,407.26194461700106,407.26194461700106,407.26194461700106,407.26194461700106,,,,,,,,,,,,,,,,,,,,,,,,,,,,,,14,007,2022-09-23_15h46.22.951,test2,2022.2.4,59.3644164190562,
0,0,0,0,44,0,44,0,407.26194461700106,407.26194461700106,407.26194461700106,407.26194461700106,407.26194461700106,407.26194461700106,407.26194461700106,1,1,azul,1,['N_B'],408.9969613539997,408.9969613539997,408.9969613539997,408.9969613539997,411.0147414869989,411.0147414869989,411.0147414869989,411.0147414869989,411.0147414869989,411.0147414869989,411.0147414869989,411.0147414869989,413.0512084480015,413.0512084480015,413.0512084480015,413.0512084480015,,,,,,,,,,,,,,,,,,,,,,,,,,,,,,14,007,2022-09-23_15h46.22.951,test2,2022.2.4,59.3644164190562,
0,0,0,0,45,0,45,0,413.0512084480015,413.0512084480015,413.0512084480015,413.0512084480015,413.0512084480015,413.0512084480015,413.0512084480015,-1,1,rojo,1,['N_B'],414.93601667200164,414.93601667200164,414.93601667200164,414.93601667200164,416.95500592200005,416.95500592200005,416.95500592200005,416.95500592200005,416.95500592200005,416.95500592200005,416.95500592200005,416.95500592200005,418.9906261339984,418.9906261339984,418.9906261339984,418.9906261339984,,,,,,,,,,,,,,,,,,,,,,,,,,,,,,14,007,2022-09-23_15h46.22.951,test2,2022.2.4,59.3644164190562,
0,0,0,0,46,0,46,0,418.9906261339984,418.9906261339984,418.9906261339984,418.9906261339984,418.9906261339984,418.9906261339984,418.9906261339984,1,1,azul,1,['N_B'],420.5754985129988,420.5754985129988,420.5754985129988,420.5754985129988,422.59534923999854,422.59534923999854,422.59534923999854,422.59534923999854,422.59534923999854,422.59534923999854,422.59534923999854,422.59534923999854,424.63022008499865,424.63022008499865,424.63022008499865,424.63022008499865,,,,,,,,,,,,,,,,,,,,,,,,,,,,,,14,007,2022-09-23_15h46.22.951,test2,2022.2.4,59.3644164190562,
0,0,0,0,47,0,47,0,424.63022008499865,424.63022008499865,424.63022008499865,424.63022008499865,424.63022008499865,424.63022008499865,424.63022008499865,1,1,azul,1,['N_B'],426.4489735199986,426.4489735199986,426.4489735199986,426.4489735199986,428.46785817900127,428.46785817900127,428.46785817900127,428.46785817900127,428.46785817900127,428.46785817900127,428.46785817900127,428.46785817900127,430.5041199669995,430.5041199669995,430.5041199669995,430.5041199669995,,,,,,,,,,,,,,,,,,,,,,,,,,,,,,14,007,2022-09-23_15h46.22.951,test2,2022.2.4,59.3644164190562,
0,0,0,0,48,0,48,0,430.5041199669995,430.5041199669995,430.5041199669995,430.5041199669995,430.5041199669995,430.5041199669995,430.5041199669995,1,1,azul,1,['N_B'],432.0387274730001,432.0387274730001,432.0387274730001,432.0387274730001,434.05697931899886,434.05697931899886,434.05697931899886,434.05697931899886,434.05697931899886,434.05697931899886,434.05697931899886,434.05697931899886,436.09264238300057,436.09264238300057,436.09264238300057,436.09264238300057,,,,,,,,,,,,,,,,,,,,,,,,,,,,,,14,007,2022-09-23_15h46.22.951,test2,2022.2.4,59.3644164190562,
0,0,0,0,49,0,49,0,436.09264238300057,436.09264238300057,436.09264238300057,436.09264238300057,436.09264238300057,436.09264238300057,436.09264238300057,1,1,azul,1,['N_B'],438.12894397200034,438.12894397200034,438.12894397200034,438.12894397200034,440.14790487499886,440.14790487499886,440.14790487499886,440.14790487499886,440.14790487499886,440.14790487499886,440.14790487499886,440.14790487499886,442.183674807,442.183674807,442.183674807,442.183674807,,,,,,,,,,,,,,,,,,,,,,,,,,,,,,14,007,2022-09-23_15h46.22.951,test2,2022.2.4,59.3644164190562,
0,0,0,0,50,0,50,0,442.183674807,442.183674807,442.183674807,442.183674807,442.183674807,442.183674807,442.183674807,1,1,azul,1,['N_B'],443.90194727699964,443.90194727699964,443.90194727699964,443.90194727699964,445.9211490990001,445.9211490990001,445.9211490990001,445.9211490990001,445.9211490990001,445.9211490990001,445.9211490990001,445.9211490990001,447.95595124099964,447.95595124099964,447.95595124099964,447.95595124099964,,,,,,,,,,,,,,,,,,,,,,,,,,,,,,14,007,2022-09-23_15h46.22.951,test2,2022.2.4,59.3644164190562,
0,0,0,0,51,0,51,0,447.95595124099964,447.95595124099964,447.95595124099964,447.95595124099964,447.95595124099964,447.95595124099964,447.95595124099964,-1,1,rojo,1,['N_B'],449.37432705100036,449.37432705100036,449.37432705100036,449.37432705100036,451.41034374899937,451.41034374899937,451.41034374899937,451.41034374899937,451.41034374899937,451.41034374899937,451.41034374899937,451.41034374899937,453.4462536109986,453.4462536109986,453.4462536109986,453.4462536109986,,,,,,,,,,,,,,,,,,,,,,,,,,,,,,14,007,2022-09-23_15h46.22.951,test2,2022.2.4,59.3644164190562,
0,0,0,0,52,0,52,0,453.4462536109986,453.4462536109986,453.4462536109986,453.4462536109986,453.4462536109986,453.4462536109986,453.4462536109986,-1,-1,rojo,1,['N_B'],455.1811978759997,455.1811978759997,455.1811978759997,455.1811978759997,457.21643164500165,457.21643164500165,457.21643164500165,457.21643164500165,457.21643164500165,457.21643164500165,457.21643164500165,457.21643164500165,459.2523987789991,459.2523987789991,459.2523987789991,459.2523987789991,,,,,,,,,,,,,,,,,,,,,,,,,,,,,,14,007,2022-09-23_15h46.22.951,test2,2022.2.4,59.3644164190562,
0,0,0,0,53,0,53,0,459.2523987789991,459.2523987789991,459.2523987789991,459.2523987789991,459.2523987789991,459.2523987789991,459.2523987789991,-1,-1,rojo,1,['N_B'],460.7033122080011,460.7033122080011,460.7033122080011,460.7033122080011,462.73938767300024,462.73938767300024,462.73938767300024,462.73938767300024,462.73938767300024,462.73938767300024,462.73938767300024,462.73938767300024,464.77453250000144,464.77453250000144,464.77453250000144,464.77453250000144,,,,,,,,,,,,,,,,,,,,,,,,,,,,,,14,007,2022-09-23_15h46.22.951,test2,2022.2.4,59.3644164190562,
0,0,0,0,54,0,54,0,464.77453250000144,464.77453250000144,464.77453250000144,464.77453250000144,464.77453250000144,464.77453250000144,464.77453250000144,1,1,azul,1,['N_B'],466.3764281899985,466.3764281899985,466.3764281899985,466.3764281899985,468.39637358599975,468.39637358599975,468.39637358599975,468.39637358599975,468.39637358599975,468.39637358599975,468.39637358599975,468.39637358599975,470.43075461599983,470.43075461599983,470.43075461599983,470.43075461599983,,,,,,,,,,,,,,,,,,,,,,,,,,,,,,14,007,2022-09-23_15h46.22.951,test2,2022.2.4,59.3644164190562,
0,0,0,0,55,0,55,0,470.43075461599983,470.43075461599983,470.43075461599983,470.43075461599983,470.43075461599983,470.43075461599983,470.43075461599983,1,1,azul,1,['N_B'],472.4998127150011,472.4998127150011,472.4998127150011,472.4998127150011,474.51882078900053,474.51882078900053,474.51882078900053,474.51882078900053,474.51882078900053,474.51882078900053,474.51882078900053,474.51882078900053,476.5544897810014,476.5544897810014,476.5544897810014,476.5544897810014,,,,,,,,,,,,,,,,,,,,,,,,,,,,,,14,007,2022-09-23_15h46.22.951,test2,2022.2.4,59.3644164190562,
0,0,0,0,56,0,56,0,476.5544897810014,476.5544897810014,476.5544897810014,476.5544897810014,476.5544897810014,476.5544897810014,476.5544897810014,1,1,azul,1,['N_B'],478.04006386999936,478.04006386999936,478.04006386999936,478.04006386999936,480.07534185700024,480.07534185700024,480.07534185700024,480.07534185700024,480.07534185700024,480.07534185700024,480.07534185700024,480.07534185700024,482.11028369700034,482.11028369700034,482.11028369700034,482.11028369700034,,,,,,,,,,,,,,,,,,,,,,,,,,,,,,14,007,2022-09-23_15h46.22.951,test2,2022.2.4,59.3644164190562,
0,0,0,0,57,0,57,0,482.11028369700034,482.11028369700034,482.11028369700034,482.11028369700034,482.11028369700034,482.11028369700034,482.11028369700034,-1,-1,rojo,1,['N_B'],483.7291350229989,483.7291350229989,483.7291350229989,483.7291350229989,485.7651689079994,485.7651689079994,485.7651689079994,485.7651689079994,485.7651689079994,485.7651689079994,485.7651689079994,485.7651689079994,487.8009279509988,487.8009279509988,487.8009279509988,487.8009279509988,,,,,,,,,,,,,,,,,,,,,,,,,,,,,,14,007,2022-09-23_15h46.22.951,test2,2022.2.4,59.3644164190562,
0,0,0,0,58,0,58,0,487.8009279509988,487.8009279509988,487.8009279509988,487.8009279509988,487.8009279509988,487.8009279509988,487.8009279509988,1,1,azul,1,['N_B'],489.45200913700137,489.45200913700137,489.45200913700137,489.45200913700137,491.4874570150005,491.4874570150005,491.4874570150005,491.4874570150005,491.4874570150005,491.4874570150005,491.4874570150005,491.4874570150005,493.5229822700003,493.5229822700003,493.5229822700003,493.5229822700003,,,,,,,,,,,,,,,,,,,,,,,,,,,,,,14,007,2022-09-23_15h46.22.951,test2,2022.2.4,59.3644164190562,
0,0,0,0,59,0,59,0,493.5229822700003,493.5229822700003,493.5229822700003,493.5229822700003,493.5229822700003,493.5229822700003,493.5229822700003,-1,-1,rojo,1,['N_B'],495.75867503299924,495.75867503299924,495.75867503299924,495.75867503299924,497.79510423699867,497.79510423699867,497.79510423699867,497.79510423699867,497.79510423699867,497.79510423699867,497.79510423699867,497.79510423699867,499.8304707510015,499.8304707510015,499.8304707510015,499.8304707510015,,,,,,,,,,,,,,,,,,,,,,,,,,,,,,14,007,2022-09-23_15h46.22.951,test2,2022.2.4,59.3644164190562,
0,0,0,0,60,0,60,0,499.8304707510015,499.8304707510015,499.8304707510015,499.8304707510015,499.8304707510015,499.8304707510015,499.8304707510015,1,1,azul,1,['N_B'],501.4820789860005,501.4820789860005,501.4820789860005,501.4820789860005,503.500693289001,503.500693289001,503.500693289001,503.500693289001,503.500693289001,503.500693289001,503.500693289001,503.500693289001,505.53716244099815,505.53716244099815,505.53716244099815,505.53716244099815,,,,,,,,,,,,,,,,,,,,,,,,,,,,,,14,007,2022-09-23_15h46.22.951,test2,2022.2.4,59.3644164190562,
0,0,0,0,61,0,61,0,505.53716244099815,505.53716244099815,505.53716244099815,505.53716244099815,505.53716244099815,505.53716244099815,505.53716244099815,1,1,azul,1,['N_B'],507.6725814930014,507.6725814930014,507.6725814930014,507.6725814930014,509.7079395669989,509.7079395669989,509.7079395669989,509.7079395669989,509.7079395669989,509.7079395669989,509.7079395669989,509.7079395669989,511.74301618999925,511.74301618999925,511.74301618999925,511.74301618999925,,,,,,,,,,,,,,,,,,,,,,,,,,,,,,14,007,2022-09-23_15h46.22.951,test2,2022.2.4,59.3644164190562,
0,0,0,0,62,0,62,0,511.74301618999925,511.74301618999925,511.74301618999925,511.74301618999925,511.74301618999925,511.74301618999925,511.74301618999925,1,-1,azul,1,['N_B'],513.1948214019994,513.1948214019994,513.1948214019994,513.1948214019994,515.2304915760014,515.2304915760014,515.2304915760014,515.2304915760014,515.2304915760014,515.2304915760014,515.2304915760014,515.2304915760014,517.2662974239993,517.2662974239993,517.2662974239993,517.2662974239993,,,,,,,,,,,,,,,,,,,,,,,,,,,,,,14,007,2022-09-23_15h46.22.951,test2,2022.2.4,59.3644164190562,
0,0,0,0,63,0,63,0,517.2662974239993,517.2662974239993,517.2662974239993,517.2662974239993,517.2662974239993,517.2662974239993,517.2662974239993,1,-1,azul,1,['N_B'],518.9516981360011,518.9516981360011,518.9516981360011,518.9516981360011,520.9871331779996,520.9871331779996,520.9871331779996,520.9871331779996,520.9871331779996,520.9871331779996,520.9871331779996,520.9871331779996,523.0222339910015,523.0222339910015,523.0222339910015,523.0222339910015,,,,,,,,,,,,,,,,,,,,,,,,,,,,,,14,007,2022-09-23_15h46.22.951,test2,2022.2.4,59.3644164190562,
0,0,0,0,64,0,64,0,523.0222339910015,523.0222339910015,523.0222339910015,523.0222339910015,523.0222339910015,523.0222339910015,523.0222339910015,1,-1,azul,1,['N_B'],524.4735579710014,524.4735579710014,524.4735579710014,524.4735579710014,526.5103236999985,526.5103236999985,526.5103236999985,526.5103236999985,526.5103236999985,526.5103236999985,526.5103236999985,526.5103236999985,528.5448847550015,528.5448847550015,528.5448847550015,528.5448847550015,,,,,,,,,,,,,,,,,,,,,,,,,,,,,,14,007,2022-09-23_15h46.22.951,test2,2022.2.4,59.3644164190562,
0,0,0,0,65,0,65,0,528.5448847550015,528.5448847550015,528.5448847550015,528.5448847550015,528.5448847550015,528.5448847550015,528.5448847550015,-1,-1,rojo,1,['N_B'],529.9800869039991,529.9800869039991,529.9800869039991,529.9800869039991,532.0162604800007,532.0162604800007,532.0162604800007,532.0162604800007,532.0162604800007,532.0162604800007,532.0162604800007,532.0162604800007,534.0511166369997,534.0511166369997,534.0511166369997,534.0511166369997,,,,,,,,,,,,,,,,,,,,,,,,,,,,,,14,007,2022-09-23_15h46.22.951,test2,2022.2.4,59.3644164190562,
0,0,0,0,66,0,66,0,534.0511166369997,534.0511166369997,534.0511166369997,534.0511166369997,534.0511166369997,534.0511166369997,534.0511166369997,1,1,azul,1,['N_B'],535.4696904020002,535.4696904020002,535.4696904020002,535.4696904020002,537.5049184539985,537.5049184539985,537.5049184539985,537.5049184539985,537.5049184539985,537.5049184539985,537.5049184539985,537.5049184539985,539.5403584350006,539.5403584350006,539.5403584350006,539.5403584350006,,,,,,,,,,,,,,,,,,,,,,,,,,,,,,14,007,2022-09-23_15h46.22.951,test2,2022.2.4,59.3644164190562,
0,0,0,0,67,0,67,0,539.5403584350006,539.5403584350006,539.5403584350006,539.5403584350006,539.5403584350006,539.5403584350006,539.5403584350006,-1,-1,rojo,0,['N_A'],540.9761005279997,540.9761005279997,540.9761005279997,540.9761005279997,543.0111322940011,543.0111322940011,543.0111322940011,543.0111322940011,543.0111322940011,543.0111322940011,543.0111322940011,543.0111322940011,545.0463439799987,545.0463439799987,545.0463439799987,545.0463439799987,,,,,,,,,,,,,,,,,,,,,,,,,,,,,,14,007,2022-09-23_15h46.22.951,test2,2022.2.4,59.3644164190562,
0,0,0,0,68,0,68,0,545.0463439799987,545.0463439799987,545.0463439799987,545.0463439799987,545.0463439799987,545.0463439799987,545.0463439799987,1,-1,rojo,1,['N_A'],546.3813186819989,546.3813186819989,546.3813186819989,546.3813186819989,548.4172896809996,548.4172896809996,548.4172896809996,548.4172896809996,548.4172896809996,548.4172896809996,548.4172896809996,548.4172896809996,550.4532633539984,550.4532633539984,550.4532633539984,550.4532633539984,,,,,,,,,,,,,,,,,,,,,,,,,,,,,,14,007,2022-09-23_15h46.22.951,test2,2022.2.4,59.3644164190562,
0,0,0,0,69,0,69,0,550.4532633539984,550.4532633539984,550.4532633539984,550.4532633539984,550.4532633539984,550.4532633539984,550.4532633539984,-1,-1,azul,1,['N_A'],551.6536565180013,551.6536565180013,551.6536565180013,551.6536565180013,553.6895399439982,553.6895399439982,553.6895399439982,553.6895399439982,553.6895399439982,553.6895399439982,553.6895399439982,553.6895399439982,555.724791865001,555.724791865001,555.724791865001,555.724791865001,,,,,,,,,,,,,,,,,,,,,,,,,,,,,,14,007,2022-09-23_15h46.22.951,test2,2022.2.4,59.3644164190562,
0,0,0,0,70,0,70,0,555.724791865001,555.724791865001,555.724791865001,555.724791865001,555.724791865001,555.724791865001,555.724791865001,1,-1,rojo,0,['N_B'],557.8612542790015,557.8612542790015,557.8612542790015,557.8612542790015,559.896591693001,559.896591693001,559.896591693001,559.896591693001,559.896591693001,559.896591693001,559.896591693001,559.896591693001,561.9324498219994,561.9324498219994,561.9324498219994,561.9324498219994,,,,,,,,,,,,,,,,,,,,,,,,,,,,,,14,007,2022-09-23_15h46.22.951,test2,2022.2.4,59.3644164190562,
0,0,0,0,71,0,71,0,561.9324498219994,561.9324498219994,561.9324498219994,561.9324498219994,561.9324498219994,561.9324498219994,561.9324498219994,1,-1,azul,1,['N_B'],563.3999589680006,563.3999589680006,563.3999589680006,563.3999589680006,565.436706393999,565.436706393999,565.436706393999,565.436706393999,565.436706393999,565.436706393999,565.436706393999,565.436706393999,567.4719456660005,567.4719456660005,567.4719456660005,567.4719456660005,,,,,,,,,,,,,,,,,,,,,,,,,,,,,,14,007,2022-09-23_15h46.22.951,test2,2022.2.4,59.3644164190562,
0,0,0,0,72,0,72,0,567.4719456660005,567.4719456660005,567.4719456660005,567.4719456660005,567.4719456660005,567.4719456660005,567.4719456660005,1,-1,azul,1,['N_B'],568.990211459999,568.990211459999,568.990211459999,568.990211459999,571.0254081660005,571.0254081660005,571.0254081660005,571.0254081660005,571.0254081660005,571.0254081660005,571.0254081660005,571.0254081660005,573.0608340579984,573.0608340579984,573.0608340579984,573.0608340579984,,,,,,,,,,,,,,,,,,,,,,,,,,,,,,14,007,2022-09-23_15h46.22.951,test2,2022.2.4,59.3644164190562,
0,0,0,0,73,0,73,0,573.0608340579984,573.0608340579984,573.0608340579984,573.0608340579984,573.0608340579984,573.0608340579984,573.0608340579984,1,1,azul,1,['N_B'],574.5798500369983,574.5798500369983,574.5798500369983,574.5798500369983,576.615322151998,576.615322151998,576.615322151998,576.615322151998,576.615322151998,576.615322151998,576.615322151998,576.615322151998,578.6501086349981,578.6501086349981,578.6501086349981,578.6501086349981,,,,,,,,,,,,,,,,,,,,,,,,,,,,,,14,007,2022-09-23_15h46.22.951,test2,2022.2.4,59.3644164190562,
0,0,0,0,74,0,74,0,578.6501086349981,578.6501086349981,578.6501086349981,578.6501086349981,578.6501086349981,578.6501086349981,578.6501086349981,-1,-1,rojo,1,['N_B'],580.0016306060006,580.0016306060006,580.0016306060006,580.0016306060006,582.0368674299989,582.0368674299989,582.0368674299989,582.0368674299989,582.0368674299989,582.0368674299989,582.0368674299989,582.0368674299989,584.0734428349988,584.0734428349988,584.0734428349988,584.0734428349988,,,,,,,,,,,,,,,,,,,,,,,,,,,,,,14,007,2022-09-23_15h46.22.951,test2,2022.2.4,59.3644164190562,
0,0,0,0,75,0,75,0,584.0734428349988,584.0734428349988,584.0734428349988,584.0734428349988,584.0734428349988,584.0734428349988,584.0734428349988,-1,-1,rojo,1,['N_B'],585.3912144020014,585.3912144020014,585.3912144020014,585.3912144020014,587.4274966819994,587.4274966819994,587.4274966819994,587.4274966819994,587.4274966819994,587.4274966819994,587.4274966819994,587.4274966819994,589.4630103250001,589.4630103250001,589.4630103250001,589.4630103250001,,,,,,,,,,,,,,,,,,,,,,,,,,,,,,14,007,2022-09-23_15h46.22.951,test2,2022.2.4,59.3644164190562,
0,0,0,0,76,0,76,0,589.4630103250001,589.4630103250001,589.4630103250001,589.4630103250001,589.4630103250001,589.4630103250001,589.4630103250001,1,-1,azul,1,['N_B'],590.7803522740014,590.7803522740014,590.7803522740014,590.7803522740014,592.8157828269996,592.8157828269996,592.8157828269996,592.8157828269996,592.8157828269996,592.8157828269996,592.8157828269996,592.8157828269996,594.8515454489989,594.8515454489989,594.8515454489989,594.8515454489989,,,,,,,,,,,,,,,,,,,,,,,,,,,,,,14,007,2022-09-23_15h46.22.951,test2,2022.2.4,59.3644164190562,
0,0,0,0,77,0,77,0,594.8515454489989,594.8515454489989,594.8515454489989,594.8515454489989,594.8515454489989,594.8515454489989,594.8515454489989,1,1,azul,1,['N_B'],596.6035456080008,596.6035456080008,596.6035456080008,596.6035456080008,598.638718971999,598.638718971999,598.638718971999,598.638718971999,598.638718971999,598.638718971999,598.638718971999,598.638718971999,600.6745574469987,600.6745574469987,600.6745574469987,600.6745574469987,,,,,,,,,,,,,,,,,,,,,,,,,,,,,,14,007,2022-09-23_15h46.22.951,test2,2022.2.4,59.3644164190562,
0,0,0,0,78,0,78,0,600.6745574469987,600.6745574469987,600.6745574469987,600.6745574469987,600.6745574469987,600.6745574469987,600.6745574469987,1,-1,azul,0,['N_A'],603.2281334070012,603.2281334070012,603.2281334070012,603.2281334070012,605.2634504370017,605.2634504370017,605.2634504370017,605.2634504370017,605.2634504370017,605.2634504370017,605.2634504370017,605.2634504370017,607.2985270469999,607.2985270469999,607.2985270469999,607.2985270469999,,,,,,,,,,,,,,,,,,,,,,,,,,,,,,14,007,2022-09-23_15h46.22.951,test2,2022.2.4,59.3644164190562,
0,0,0,0,79,0,79,0,607.2985270469999,607.2985270469999,607.2985270469999,607.2985270469999,607.2985270469999,607.2985270469999,607.2985270469999,1,-1,rojo,1,['N_A'],609.0505280429988,609.0505280429988,609.0505280429988,609.0505280429988,611.0865438560013,611.0865438560013,611.0865438560013,611.0865438560013,611.0865438560013,611.0865438560013,611.0865438560013,611.0865438560013,613.1214538229997,613.1214538229997,613.1214538229997,613.1214538229997,,,,,,,,,,,,,,,,,,,,,,,,,,,,,,14,007,2022-09-23_15h46.22.951,test2,2022.2.4,59.3644164190562,
0,0,0,0,80,0,80,0,613.1214538229997,613.1214538229997,613.1214538229997,613.1214538229997,613.1214538229997,613.1214538229997,613.1214538229997,1,1,rojo,1,['N_A'],614.4401426960012,614.4401426960012,614.4401426960012,614.4401426960012,616.4757002380011,616.4757002380011,616.4757002380011,616.4757002380011,616.4757002380011,616.4757002380011,616.4757002380011,616.4757002380011,618.5115069680014,618.5115069680014,618.5115069680014,618.5115069680014,,,,,,,,,,,,,,,,,,,,,,,,,,,,,,14,007,2022-09-23_15h46.22.951,test2,2022.2.4,59.3644164190562,
0,0,0,0,81,0,81,0,618.5115069680014,618.5115069680014,618.5115069680014,618.5115069680014,618.5115069680014,618.5115069680014,618.5115069680014,1,-1,rojo,1,['N_A'],620.2297324359988,620.2297324359988,620.2297324359988,620.2297324359988,622.2649425770014,622.2649425770014,622.2649425770014,622.2649425770014,622.2649425770014,622.2649425770014,622.2649425770014,622.2649425770014,624.3004854800001,624.3004854800001,624.3004854800001,624.3004854800001,,,,,,,,,,,,,,,,,,,,,,,,,,,,,,14,007,2022-09-23_15h46.22.951,test2,2022.2.4,59.3644164190562,
0,0,0,0,82,0,82,0,624.3004854800001,624.3004854800001,624.3004854800001,624.3004854800001,624.3004854800001,624.3004854800001,624.3004854800001,-1,-1,azul,1,['N_A'],625.9692541470013,625.9692541470013,625.9692541470013,625.9692541470013,628.0052747770005,628.0052747770005,628.0052747770005,628.0052747770005,628.0052747770005,628.0052747770005,628.0052747770005,628.0052747770005,630.040836563001,630.040836563001,630.040836563001,630.040836563001,,,,,,,,,,,,,,,,,,,,,,,,,,,,,,14,007,2022-09-23_15h46.22.951,test2,2022.2.4,59.3644164190562,
0,0,0,0,83,0,83,0,630.040836563001,630.040836563001,630.040836563001,630.040836563001,630.040836563001,630.040836563001,630.040836563001,-1,-1,azul,0,['N_B'],631.492477758,631.492477758,631.492477758,631.492477758,633.5276480660013,633.5276480660013,633.5276480660013,633.5276480660013,633.5276480660013,633.5276480660013,633.5276480660013,633.5276480660013,635.5631416529995,635.5631416529995,635.5631416529995,635.5631416529995,,,,,,,,,,,,,,,,,,,,,,,,,,,,,,14,007,2022-09-23_15h46.22.951,test2,2022.2.4,59.3644164190562,
0,0,0,0,84,0,84,0,635.5631416529995,635.5631416529995,635.5631416529995,635.5631416529995,635.5631416529995,635.5631416529995,635.5631416529995,-1,-1,rojo,1,['N_B'],637.0147444090017,637.0147444090017,637.0147444090017,637.0147444090017,639.0503965279986,639.0503965279986,639.0503965279986,639.0503965279986,639.0503965279986,639.0503965279986,639.0503965279986,639.0503965279986,641.0865479449985,641.0865479449985,641.0865479449985,641.0865479449985,,,,,,,,,,,,,,,,,,,,,,,,,,,,,,14,007,2022-09-23_15h46.22.951,test2,2022.2.4,59.3644164190562,
0,0,0,0,85,0,85,0,641.0865479449985,641.0865479449985,641.0865479449985,641.0865479449985,641.0865479449985,641.0865479449985,641.0865479449985,1,1,azul,1,['N_B'],642.7209756959983,642.7209756959983,642.7209756959983,642.7209756959983,644.7566660280008,644.7566660280008,644.7566660280008,644.7566660280008,644.7566660280008,644.7566660280008,644.7566660280008,644.7566660280008,646.7921230709999,646.7921230709999,646.7921230709999,646.7921230709999,,,,,,,,,,,,,,,,,,,,,,,,,,,,,,14,007,2022-09-23_15h46.22.951,test2,2022.2.4,59.3644164190562,
0,0,0,0,86,0,86,0,646.7921230709999,646.7921230709999,646.7921230709999,646.7921230709999,646.7921230709999,646.7921230709999,646.7921230709999,1,-1,azul,1,['N_B'],648.5105734510016,648.5105734510016,648.5105734510016,648.5105734510016,650.5453702389987,650.5453702389987,650.5453702389987,650.5453702389987,650.5453702389987,650.5453702389987,650.5453702389987,650.5453702389987,652.581908315,652.581908315,652.581908315,652.581908315,,,,,,,,,,,,,,,,,,,,,,,,,,,,,,14,007,2022-09-23_15h46.22.951,test2,2022.2.4,59.3644164190562,
0,0,0,0,87,0,87,0,652.581908315,652.581908315,652.581908315,652.581908315,652.581908315,652.581908315,652.581908315,-1,-1,rojo,1,['N_B'],654.0998488159985,654.0998488159985,654.0998488159985,654.0998488159985,656.1362182309986,656.1362182309986,656.1362182309986,656.1362182309986,656.1362182309986,656.1362182309986,656.1362182309986,656.1362182309986,658.1720124119984,658.1720124119984,658.1720124119984,658.1720124119984,,,,,,,,,,,,,,,,,,,,,,,,,,,,,,14,007,2022-09-23_15h46.22.951,test2,2022.2.4,59.3644164190562,
0,0,0,0,88,0,88,0,658.1720124119984,658.1720124119984,658.1720124119984,658.1720124119984,658.1720124119984,658.1720124119984,658.1720124119984,1,1,azul,1,['N_B'],660.6581143210005,660.6581143210005,660.6581143210005,660.6581143210005,662.6928971530015,662.6928971530015,662.6928971530015,662.6928971530015,662.6928971530015,662.6928971530015,662.6928971530015,662.6928971530015,664.7282206389991,664.7282206389991,664.7282206389991,664.7282206389991,,,,,,,,,,,,,,,,,,,,,,,,,,,,,,14,007,2022-09-23_15h46.22.951,test2,2022.2.4,59.3644164190562,
0,0,0,0,89,0,89,0,664.7282206389991,664.7282206389991,664.7282206389991,664.7282206389991,664.7282206389991,664.7282206389991,664.7282206389991,-1,-1,rojo,1,['N_B'],666.0466330799991,666.0466330799991,666.0466330799991,666.0466330799991,668.082590308999,668.082590308999,668.082590308999,668.082590308999,668.082590308999,668.082590308999,668.082590308999,668.082590308999,670.1184567670007,670.1184567670007,670.1184567670007,670.1184567670007,,,,,,,,,,,,,,,,,,,,,,,,,,,,,,14,007,2022-09-23_15h46.22.951,test2,2022.2.4,59.3644164190562,
0,0,0,0,90,0,90,0,670.1184567670007,670.1184567670007,670.1184567670007,670.1184567670007,670.1184567670007,670.1184567670007,670.1184567670007,1,1,azul,1,['N_B'],672.1034077509994,672.1034077509994,672.1034077509994,672.1034077509994,674.1392669069992,674.1392669069992,674.1392669069992,674.1392669069992,674.1392669069992,674.1392669069992,674.1392669069992,674.1392669069992,676.174595044,676.174595044,676.174595044,676.174595044,,,,,,,,,,,,,,,,,,,,,,,,,,,,,,14,007,2022-09-23_15h46.22.951,test2,2022.2.4,59.3644164190562,
0,0,0,0,91,0,91,0,676.174595044,676.174595044,676.174595044,676.174595044,676.174595044,676.174595044,676.174595044,1,-1,azul,1,['N_B'],680.079143822999,680.079143822999,680.079143822999,680.079143822999,682.1153120649997,682.1153120649997,682.1153120649997,682.1153120649997,682.1153120649997,682.1153120649997,682.1153120649997,682.1153120649997,684.1499783099989,684.1499783099989,684.1499783099989,684.1499783099989,,,,,,,,,,,,,,,,,,,,,,,,,,,,,,14,007,2022-09-23_15h46.22.951,test2,2022.2.4,59.3644164190562,
0,0,0,0,92,0,92,0,684.1499783099989,684.1499783099989,684.1499783099989,684.1499783099989,684.1499783099989,684.1499783099989,684.1499783099989,1,-1,azul,1,['N_B'],685.5015444690016,685.5015444690016,685.5015444690016,685.5015444690016,687.5370913239985,687.5370913239985,687.5370913239985,687.5370913239985,687.5370913239985,687.5370913239985,687.5370913239985,687.5370913239985,689.5728656170013,689.5728656170013,689.5728656170013,689.5728656170013,,,,,,,,,,,,,,,,,,,,,,,,,,,,,,14,007,2022-09-23_15h46.22.951,test2,2022.2.4,59.3644164190562,
0,0,0,0,93,0,93,0,689.5728656170013,689.5728656170013,689.5728656170013,689.5728656170013,689.5728656170013,689.5728656170013,689.5728656170013,1,-1,azul,1,['N_B'],691.2578861530001,691.2578861530001,691.2578861530001,691.2578861530001,693.2936325549981,693.2936325549981,693.2936325549981,693.2936325549981,693.2936325549981,693.2936325549981,693.2936325549981,693.2936325549981,695.3289990729991,695.3289990729991,695.3289990729991,695.3289990729991,,,,,,,,,,,,,,,,,,,,,,,,,,,,,,14,007,2022-09-23_15h46.22.951,test2,2022.2.4,59.3644164190562,
0,0,0,0,94,0,94,0,695.3289990729991,695.3289990729991,695.3289990729991,695.3289990729991,695.3289990729991,695.3289990729991,695.3289990729991,-1,-1,rojo,1,['N_B'],696.7978805910006,696.7978805910006,696.7978805910006,696.7978805910006,698.8326296030009,698.8326296030009,698.8326296030009,698.8326296030009,698.8326296030009,698.8326296030009,698.8326296030009,698.8326296030009,700.8690089020001,700.8690089020001,700.8690089020001,700.8690089020001,,,,,,,,,,,,,,,,,,,,,,,,,,,,,,14,007,2022-09-23_15h46.22.951,test2,2022.2.4,59.3644164190562,
0,0,0,0,95,0,95,0,700.8690089020001,700.8690089020001,700.8690089020001,700.8690089020001,700.8690089020001,700.8690089020001,700.8690089020001,1,1,azul,1,['N_B'],702.5542153920014,702.5542153920014,702.5542153920014,702.5542153920014,704.589579032001,704.589579032001,704.589579032001,704.589579032001,704.589579032001,704.589579032001,704.589579032001,704.589579032001,706.6245496809988,706.6245496809988,706.6245496809988,706.6245496809988,,,,,,,,,,,,,,,,,,,,,,,,,,,,,,14,007,2022-09-23_15h46.22.951,test2,2022.2.4,59.3644164190562,
0,0,0,0,96,0,96,0,706.6245496809988,706.6245496809988,706.6245496809988,706.6245496809988,706.6245496809988,706.6245496809988,706.6245496809988,-1,-1,rojo,1,['N_B'],708.0762292409981,708.0762292409981,708.0762292409981,708.0762292409981,710.1129068940008,710.1129068940008,710.1129068940008,710.1129068940008,710.1129068940008,710.1129068940008,710.1129068940008,710.1129068940008,712.1474119549985,712.1474119549985,712.1474119549985,712.1474119549985,,,,,,,,,,,,,,,,,,,,,,,,,,,,,,14,007,2022-09-23_15h46.22.951,test2,2022.2.4,59.3644164190562,
0,0,0,0,97,0,97,0,712.1474119549985,712.1474119549985,712.1474119549985,712.1474119549985,712.1474119549985,712.1474119549985,712.1474119549985,-1,-1,rojo,1,['N_B'],713.9332511049997,713.9332511049997,713.9332511049997,713.9332511049997,715.9687352979981,715.9687352979981,715.9687352979981,715.9687352979981,715.9687352979981,715.9687352979981,715.9687352979981,715.9687352979981,718.0040767310002,718.0040767310002,718.0040767310002,718.0040767310002,,,,,,,,,,,,,,,,,,,,,,,,,,,,,,14,007,2022-09-23_15h46.22.951,test2,2022.2.4,59.3644164190562,
0,0,0,0,98,0,98,0,718.0040767310002,718.0040767310002,718.0040767310002,718.0040767310002,718.0040767310002,718.0040767310002,718.0040767310002,1,1,azul,0,['N_A'],720.7743456679982,720.7743456679982,720.7743456679982,720.7743456679982,722.8092089799993,722.8092089799993,722.8092089799993,722.8092089799993,722.8092089799993,722.8092089799993,722.8092089799993,722.8092089799993,724.8449299559998,724.8449299559998,724.8449299559998,724.8449299559998,,,,,,,,,,,,,,,,,,,,,,,,,,,,,,14,007,2022-09-23_15h46.22.951,test2,2022.2.4,59.3644164190562,
0,0,0,0,99,0,99,0,724.8449299559998,724.8449299559998,724.8449299559998,724.8449299559998,724.8449299559998,724.8449299559998,724.8449299559998,1,-1,rojo,1,['N_A'],726.2630563539988,726.2630563539988,726.2630563539988,726.2630563539988,728.2988681469997,728.2988681469997,728.2988681469997,728.2988681469997,728.2988681469997,728.2988681469997,728.2988681469997,728.2988681469997,730.3343298400014,730.3343298400014,730.3343298400014,730.3343298400014,,,,,,,,,,,,,,,,,,,,,,,,,,,,,,14,007,2022-09-23_15h46.22.951,test2,2022.2.4,59.3644164190562,
0,0,0,0,100,0,100,0,730.3343298400014,730.3343298400014,730.3343298400014,730.3343298400014,730.3343298400014,730.3343298400014,730.3343298400014,1,-1,rojo,1,['N_A'],731.8196743520002,731.8196743520002,731.8196743520002,731.8196743520002,733.8554327939983,733.8554327939983,733.8554327939983,733.8554327939983,733.8554327939983,733.8554327939983,733.8554327939983,733.8554327939983,735.8904769320015,735.8904769320015,735.8904769320015,735.8904769320015,,,,,,,,,,,,,,,,,,,,,,,,,,,,,,14,007,2022-09-23_15h46.22.951,test2,2022.2.4,59.3644164190562,
0,0,0,0,101,0,101,0,735.8904769320015,735.8904769320015,735.8904769320015,735.8904769320015,735.8904769320015,735.8904769320015,735.8904769320015,1,-1,rojo,1,['N_A'],737.3087118860003,737.3087118860003,737.3087118860003,737.3087118860003,739.344670247001,739.344670247001,739.344670247001,739.344670247001,739.344670247001,739.344670247001,739.344670247001,739.344670247001,741.3805609370011,741.3805609370011,741.3805609370011,741.3805609370011,,,,,,,,,,,,,,,,,,,,,,,,,,,,,,14,007,2022-09-23_15h46.22.951,test2,2022.2.4,59.3644164190562,
0,0,0,0,102,0,102,0,741.3805609370011,741.3805609370011,741.3805609370011,741.3805609370011,741.3805609370011,741.3805609370011,741.3805609370011,1,-1,rojo,0,['N_B'],743.466323966999,743.466323966999,743.466323966999,743.466323966999,745.5017943389994,745.5017943389994,745.5017943389994,745.5017943389994,745.5017943389994,745.5017943389994,745.5017943389994,745.5017943389994,747.5372684580016,747.5372684580016,747.5372684580016,747.5372684580016,,,,,,,,,,,,,,,,,,,,,,,,,,,,,,14,007,2022-09-23_15h46.22.951,test2,2022.2.4,59.3644164190562,
0,0,0,0,103,0,103,0,747.5372684580016,747.5372684580016,747.5372684580016,747.5372684580016,747.5372684580016,747.5372684580016,747.5372684580016,1,-1,azul,1,['N_B'],749.0218267399996,749.0218267399996,749.0218267399996,749.0218267399996,751.0575490850006,751.0575490850006,751.0575490850006,751.0575490850006,751.0575490850006,751.0575490850006,751.0575490850006,751.0575490850006,753.0924481890015,753.0924481890015,753.0924481890015,753.0924481890015,,,,,,,,,,,,,,,,,,,,,,,,,,,,,,14,007,2022-09-23_15h46.22.951,test2,2022.2.4,59.3644164190562,
0,0,0,0,104,0,104,0,753.0924481890015,753.0924481890015,753.0924481890015,753.0924481890015,753.0924481890015,753.0924481890015,753.0924481890015,1,1,azul,1,['N_B'],754.6109150899993,754.6109150899993,754.6109150899993,754.6109150899993,756.6463400269986,756.6463400269986,756.6463400269986,756.6463400269986,756.6463400269986,756.6463400269986,756.6463400269986,756.6463400269986,758.6822404139984,758.6822404139984,758.6822404139984,758.6822404139984,,,,,,,,,,,,,,,,,,,,,,,,,,,,,,14,007,2022-09-23_15h46.22.951,test2,2022.2.4,59.3644164190562,
0,0,0,0,105,0,105,0,758.6822404139984,758.6822404139984,758.6822404139984,758.6822404139984,758.6822404139984,758.6822404139984,758.6822404139984,-1,-1,rojo,1,['N_B'],760.1676049559992,760.1676049559992,760.1676049559992,760.1676049559992,762.2030410380012,762.2030410380012,762.2030410380012,762.2030410380012,762.2030410380012,762.2030410380012,762.2030410380012,762.2030410380012,764.2381113210013,764.2381113210013,764.2381113210013,764.2381113210013,,,,,,,,,,,,,,,,,,,,,,,,,,,,,,14,007,2022-09-23_15h46.22.951,test2,2022.2.4,59.3644164190562,
0,0,0,0,106,0,106,0,764.2381113210013,764.2381113210013,764.2381113210013,764.2381113210013,764.2381113210013,764.2381113210013,764.2381113210013,1,1,azul,1,['N_B'],766.5741752720005,766.5741752720005,766.5741752720005,766.5741752720005,768.5939828749997,768.5939828749997,768.5939828749997,768.5939828749997,768.5939828749997,768.5939828749997,768.5939828749997,768.5939828749997,770.6286345509998,770.6286345509998,770.6286345509998,770.6286345509998,,,,,,,,,,,,,,,,,,,,,,,,,,,,,,14,007,2022-09-23_15h46.22.951,test2,2022.2.4,59.3644164190562,
0,0,0,0,107,0,107,0,770.6286345509998,770.6286345509998,770.6286345509998,770.6286345509998,770.6286345509998,770.6286345509998,770.6286345509998,1,1,azul,1,['N_B'],772.9813600059988,772.9813600059988,772.9813600059988,772.9813600059988,775.0008603240003,775.0008603240003,775.0008603240003,775.0008603240003,775.0008603240003,775.0008603240003,775.0008603240003,775.0008603240003,777.0355451609994,777.0355451609994,777.0355451609994,777.0355451609994,,,,,,,,,,,,,,,,,,,,,,,,,,,,,,14,007,2022-09-23_15h46.22.951,test2,2022.2.4,59.3644164190562,
0,0,0,0,108,0,108,0,777.0355451609994,777.0355451609994,777.0355451609994,777.0355451609994,777.0355451609994,777.0355451609994,777.0355451609994,1,1,azul,1,['N_B'],778.8214913870015,778.8214913870015,778.8214913870015,778.8214913870015,780.8571284070003,780.8571284070003,780.8571284070003,780.8571284070003,780.8571284070003,780.8571284070003,780.8571284070003,780.8571284070003,782.8922293740015,782.8922293740015,782.8922293740015,782.8922293740015,,,,,,,,,,,,,,,,,,,,,,,,,,,,,,14,007,2022-09-23_15h46.22.951,test2,2022.2.4,59.3644164190562,
0,0,0,0,109,0,109,0,782.8922293740015,782.8922293740015,782.8922293740015,782.8922293740015,782.8922293740015,782.8922293740015,782.8922293740015,-1,-1,rojo,1,['N_B'],784.394237896,784.394237896,784.394237896,784.394237896,786.4301374080005,786.4301374080005,786.4301374080005,786.4301374080005,786.4301374080005,786.4301374080005,786.4301374080005,786.4301374080005,788.4649680940001,788.4649680940001,788.4649680940001,788.4649680940001,,,,,,,,,,,,,,,,,,,,,,,,,,,,,,14,007,2022-09-23_15h46.22.951,test2,2022.2.4,59.3644164190562,
0,0,0,0,110,0,110,0,788.4649680940001,788.4649680940001,788.4649680940001,788.4649680940001,788.4649680940001,788.4649680940001,788.4649680940001,1,1,azul,1,['N_B'],790.5173675249989,790.5173675249989,790.5173675249989,790.5173675249989,792.5529195260006,792.5529195260006,792.5529195260006,792.5529195260006,792.5529195260006,792.5529195260006,792.5529195260006,792.5529195260006,794.5885056239986,794.5885056239986,794.5885056239986,794.5885056239986,,,,,,,,,,,,,,,,,,,,,,,,,,,,,,14,007,2022-09-23_15h46.22.951,test2,2022.2.4,59.3644164190562,
0,0,0,0,111,0,111,0,794.5885056239986,794.5885056239986,794.5885056239986,794.5885056239986,794.5885056239986,794.5885056239986,794.5885056239986,1,-1,azul,1,['N_B'],796.0068785530002,796.0068785530002,796.0068785530002,796.0068785530002,798.0429831390011,798.0429831390011,798.0429831390011,798.0429831390011,798.0429831390011,798.0429831390011,798.0429831390011,798.0429831390011,800.0779561280015,800.0779561280015,800.0779561280015,800.0779561280015,,,,,,,,,,,,,,,,,,,,,,,,,,,,,,14,007,2022-09-23_15h46.22.951,test2,2022.2.4,59.3644164190562,
0,0,0,0,112,0,112,0,800.0779561280015,800.0779561280015,800.0779561280015,800.0779561280015,800.0779561280015,800.0779561280015,800.0779561280015,1,-1,azul,1,['N_B'],801.5294091929991,801.5294091929991,801.5294091929991,801.5294091929991,803.5656168039986,803.5656168039986,803.5656168039986,803.5656168039986,803.5656168039986,803.5656168039986,803.5656168039986,803.5656168039986,805.6014316519995,805.6014316519995,805.6014316519995,805.6014316519995,,,,,,,,,,,,,,,,,,,,,,,,,,,,,,14,007,2022-09-23_15h46.22.951,test2,2022.2.4,59.3644164190562,
0,0,0,0,113,0,113,0,805.6014316519995,805.6014316519995,805.6014316519995,805.6014316519995,805.6014316519995,805.6014316519995,805.6014316519995,1,-1,azul,1,['N_B'],807.2522532130006,807.2522532130006,807.2522532130006,807.2522532130006,809.2882489899985,809.2882489899985,809.2882489899985,809.2882489899985,809.2882489899985,809.2882489899985,809.2882489899985,809.2882489899985,811.3242434020012,811.3242434020012,811.3242434020012,811.3242434020012,,,,,,,,,,,,,,,,,,,,,,,,,,,,,,14,007,2022-09-23_15h46.22.951,test2,2022.2.4,59.3644164190562,
0,0,0,0,114,0,114,0,811.3242434020012,811.3242434020012,811.3242434020012,811.3242434020012,811.3242434020012,811.3242434020012,811.3242434020012,1,-1,azul,1,['N_B'],812.8424398119987,812.8424398119987,812.8424398119987,812.8424398119987,814.878283434,814.878283434,814.878283434,814.878283434,814.878283434,814.878283434,814.878283434,814.878283434,816.9128936709985,816.9128936709985,816.9128936709985,816.9128936709985,,,,,,,,,,,,,,,,,,,,,,,,,,,,,,14,007,2022-09-23_15h46.22.951,test2,2022.2.4,59.3644164190562,
0,0,0,0,115,0,115,0,816.9128936709985,816.9128936709985,816.9128936709985,816.9128936709985,816.9128936709985,816.9128936709985,816.9128936709985,1,1,azul,1,['N_B'],818.7654437990004,818.7654437990004,818.7654437990004,818.7654437990004,820.8013593039996,820.8013593039996,820.8013593039996,820.8013593039996,820.8013593039996,820.8013593039996,820.8013593039996,820.8013593039996,822.8370808710006,822.8370808710006,822.8370808710006,822.8370808710006,,,,,,,,,,,,,,,,,,,,,,,,,,,,,,14,007,2022-09-23_15h46.22.951,test2,2022.2.4,59.3644164190562,
0,0,0,0,116,0,116,0,822.8370808710006,822.8370808710006,822.8370808710006,822.8370808710006,822.8370808710006,822.8370808710006,822.8370808710006,1,-1,azul,1,['N_B'],832.1633233029988,832.1633233029988,832.1633233029988,832.1633233029988,834.1994363530011,834.1994363530011,834.1994363530011,834.1994363530011,834.1994363530011,834.1994363530011,834.1994363530011,834.1994363530011,836.2343820219994,836.2343820219994,836.2343820219994,836.2343820219994,,,,,,,,,,,,,,,,,,,,,,,,,,,,,,14,007,2022-09-23_15h46.22.951,test2,2022.2.4,59.3644164190562,
0,0,0,0,117,0,117,0,836.2343820219994,836.2343820219994,836.2343820219994,836.2343820219994,836.2343820219994,836.2343820219994,836.2343820219994,1,-1,azul,0,['N_A'],837.8699952650004,837.8699952650004,837.8699952650004,837.8699952650004,839.9052140030017,839.9052140030017,839.9052140030017,839.9052140030017,839.9052140030017,839.9052140030017,839.9052140030017,839.9052140030017,841.9404979999981,841.9404979999981,841.9404979999981,841.9404979999981,,,,,,,,,,,,,,,,,,,,,,,,,,,,,,14,007,2022-09-23_15h46.22.951,test2,2022.2.4,59.3644164190562,
0,0,0,0,118,0,118,0,841.9404979999981,841.9404979999981,841.9404979999981,841.9404979999981,841.9404979999981,841.9404979999981,841.9404979999981,1,-1,rojo,1,['N_A'],843.3588484880001,843.3588484880001,843.3588484880001,843.3588484880001,845.394764259001,845.394764259001,845.394764259001,845.394764259001,845.394764259001,845.394764259001,845.394764259001,845.394764259001,847.4303865569982,847.4303865569982,847.4303865569982,847.4303865569982,,,,,,,,,,,,,,,,,,,,,,,,,,,,,,14,007,2022-09-23_15h46.22.951,test2,2022.2.4,59.3644164190562,
0,0,0,0,119,0,119,0,847.4303865569982,847.4303865569982,847.4303865569982,847.4303865569982,847.4303865569982,847.4303865569982,847.4303865569982,1,-1,rojo,1,['N_A'],850.4837981219989,850.4837981219989,850.4837981219989,850.4837981219989,852.5197341309995,852.5197341309995,852.5197341309995,852.5197341309995,852.5197341309995,852.5197341309995,852.5197341309995,852.5197341309995,854.554442622999,854.554442622999,854.554442622999,854.554442622999,,,,,,,,,,,,,,,,,,,,,,,,,,,,,,14,007,2022-09-23_15h46.22.951,test2,2022.2.4,59.3644164190562,
0,0,0,0,120,0,120,0,854.554442622999,854.554442622999,854.554442622999,854.554442622999,854.554442622999,854.554442622999,854.554442622999,1,-1,rojo,1,['N_A'],856.2740449850007,856.2740449850007,856.2740449850007,856.2740449850007,858.3095547350003,858.3095547350003,858.3095547350003,858.3095547350003,858.3095547350003,858.3095547350003,858.3095547350003,858.3095547350003,860.3445150169991,860.3445150169991,860.3445150169991,860.3445150169991,,,,,,,,,,,,,,,,,,,,,,,,,,,,,,14,007,2022-09-23_15h46.22.951,test2,2022.2.4,59.3644164190562,
0,0,0,0,121,0,121,0,860.3445150169991,860.3445150169991,860.3445150169991,860.3445150169991,860.3445150169991,860.3445150169991,860.3445150169991,1,-1,rojo,0,['N_B'],862.2963105500003,862.2963105500003,862.2963105500003,862.2963105500003,864.3325110179994,864.3325110179994,864.3325110179994,864.3325110179994,864.3325110179994,864.3325110179994,864.3325110179994,864.3325110179994,866.367656493001,866.367656493001,866.367656493001,866.367656493001,,,,,,,,,,,,,,,,,,,,,,,,,,,,,,14,007,2022-09-23_15h46.22.951,test2,2022.2.4,59.3644164190562,
0,0,0,0,122,0,122,0,866.367656493001,866.367656493001,866.367656493001,866.367656493001,866.367656493001,866.367656493001,866.367656493001,1,-1,azul,1,['N_B'],868.1531188669996,868.1531188669996,868.1531188669996,868.1531188669996,870.1883675059998,870.1883675059998,870.1883675059998,870.1883675059998,870.1883675059998,870.1883675059998,870.1883675059998,870.1883675059998,872.2239064500009,872.2239064500009,872.2239064500009,872.2239064500009,,,,,,,,,,,,,,,,,,,,,,,,,,,,,,14,007,2022-09-23_15h46.22.951,test2,2022.2.4,59.3644164190562,
0,0,0,0,123,0,123,0,872.2239064500009,872.2239064500009,872.2239064500009,872.2239064500009,872.2239064500009,872.2239064500009,872.2239064500009,-1,-1,rojo,1,['N_B'],873.7427767140016,873.7427767140016,873.7427767140016,873.7427767140016,875.7790154990016,875.7790154990016,875.7790154990016,875.7790154990016,875.7790154990016,875.7790154990016,875.7790154990016,875.7790154990016,877.8134773830006,877.8134773830006,877.8134773830006,877.8134773830006,,,,,,,,,,,,,,,,,,,,,,,,,,,,,,14,007,2022-09-23_15h46.22.951,test2,2022.2.4,59.3644164190562,
0,0,0,0,124,0,124,0,877.8134773830006,877.8134773830006,877.8134773830006,877.8134773830006,877.8134773830006,877.8134773830006,877.8134773830006,1,1,azul,1,['N_B'],879.6991835389981,879.6991835389981,879.6991835389981,879.6991835389981,881.7349372459994,881.7349372459994,881.7349372459994,881.7349372459994,881.7349372459994,881.7349372459994,881.7349372459994,881.7349372459994,883.7706261539988,883.7706261539988,883.7706261539988,883.7706261539988,,,,,,,,,,,,,,,,,,,,,,,,,,,,,,14,007,2022-09-23_15h46.22.951,test2,2022.2.4,59.3644164190562,
0,0,0,0,125,0,125,0,883.7706261539988,883.7706261539988,883.7706261539988,883.7706261539988,883.7706261539988,883.7706261539988,883.7706261539988,1,-1,azul,1,['N_B'],885.5556751599997,885.5556751599997,885.5556751599997,885.5556751599997,887.5912441960008,887.5912441960008,887.5912441960008,887.5912441960008,887.5912441960008,887.5912441960008,887.5912441960008,887.5912441960008,889.6267309419982,889.6267309419982,889.6267309419982,889.6267309419982,,,,,,,,,,,,,,,,,,,,,,,,,,,,,,14,007,2022-09-23_15h46.22.951,test2,2022.2.4,59.3644164190562,
0,0,0,0,126,0,126,0,889.6267309419982,889.6267309419982,889.6267309419982,889.6267309419982,889.6267309419982,889.6267309419982,889.6267309419982,1,-1,azul,1,['N_B'],892.5135304509986,892.5135304509986,892.5135304509986,892.5135304509986,894.5478605629996,894.5478605629996,894.5478605629996,894.5478605629996,894.5478605629996,894.5478605629996,894.5478605629996,894.5478605629996,896.5845186579991,896.5845186579991,896.5845186579991,896.5845186579991,,,,,,,,,,,,,,,,,,,,,,,,,,,,,,14,007,2022-09-23_15h46.22.951,test2,2022.2.4,59.3644164190562,
0,0,0,0,127,0,127,0,896.5845186579991,896.5845186579991,896.5845186579991,896.5845186579991,896.5845186579991,896.5845186579991,896.5845186579991,-1,-1,rojo,1,['N_B'],898.1191649669981,898.1191649669981,898.1191649669981,898.1191649669981,900.1552115139984,900.1552115139984,900.1552115139984,900.1552115139984,900.1552115139984,900.1552115139984,900.1552115139984,900.1552115139984,902.1907144039997,902.1907144039997,902.1907144039997,902.1907144039997,,,,,,,,,,,,,,,,,,,,,,,,,,,,,,14,007,2022-09-23_15h46.22.951,test2,2022.2.4,59.3644164190562,
0,0,0,0,128,0,128,0,902.1907144039997,902.1907144039997,902.1907144039997,902.1907144039997,902.1907144039997,902.1907144039997,902.1907144039997,1,-1,azul,1,['N_B'],905.0107658350007,905.0107658350007,905.0107658350007,905.0107658350007,907.0461163370001,907.0461163370001,907.0461163370001,907.0461163370001,907.0461163370001,907.0461163370001,907.0461163370001,907.0461163370001,909.0815432789987,909.0815432789987,909.0815432789987,909.0815432789987,,,,,,,,,,,,,,,,,,,,,,,,,,,,,,14,007,2022-09-23_15h46.22.951,test2,2022.2.4,59.3644164190562,
0,0,0,0,129,0,129,0,909.0815432789987,909.0815432789987,909.0815432789987,909.0815432789987,909.0815432789987,909.0815432789987,909.0815432789987,-1,-1,rojo,1,['N_B'],910.5663200420004,910.5663200420004,910.5663200420004,910.5663200420004,912.6024505680016,912.6024505680016,912.6024505680016,912.6024505680016,912.6024505680016,912.6024505680016,912.6024505680016,912.6024505680016,914.6380356829995,914.6380356829995,914.6380356829995,914.6380356829995,,,,,,,,,,,,,,,,,,,,,,,,,,,,,,14,007,2022-09-23_15h46.22.951,test2,2022.2.4,59.3644164190562,
0,0,0,0,130,0,130,0,914.6380356829995,914.6380356829995,914.6380356829995,914.6380356829995,914.6380356829995,914.6380356829995,914.6380356829995,1,1,azul,1,['N_B'],915.9558960909981,915.9558960909981,915.9558960909981,915.9558960909981,917.975015725,917.975015725,917.975015725,917.975015725,917.975015725,917.975015725,917.975015725,917.975015725,920.0106925749988,920.0106925749988,920.0106925749988,920.0106925749988,,,,,,,,,,,,,,,,,,,,,,,,,,,,,,14,007,2022-09-23_15h46.22.951,test2,2022.2.4,59.3644164190562,
0,0,0,0,131,0,131,0,920.0106925749988,920.0106925749988,920.0106925749988,920.0106925749988,920.0106925749988,920.0106925749988,920.0106925749988,1,1,azul,1,['N_B'],921.7461422120014,921.7461422120014,921.7461422120014,921.7461422120014,923.7637421210002,923.7637421210002,923.7637421210002,923.7637421210002,923.7637421210002,923.7637421210002,923.7637421210002,923.7637421210002,925.8001535060012,925.8001535060012,925.8001535060012,925.8001535060012,,,,,,,,,,,,,,,,,,,,,,,,,,,,,,14,007,2022-09-23_15h46.22.951,test2,2022.2.4,59.3644164190562,
0,0,0,0,132,0,132,0,925.8001535060012,925.8001535060012,925.8001535060012,925.8001535060012,925.8001535060012,925.8001535060012,925.8001535060012,1,1,azul,1,['N_B'],927.4686097709982,927.4686097709982,927.4686097709982,927.4686097709982,929.4873524490013,929.4873524490013,929.4873524490013,929.4873524490013,929.4873524490013,929.4873524490013,929.4873524490013,929.4873524490013,931.5234144020014,931.5234144020014,931.5234144020014,931.5234144020014,,,,,,,,,,,,,,,,,,,,,,,,,,,,,,14,007,2022-09-23_15h46.22.951,test2,2022.2.4,59.3644164190562,
0,0,0,0,133,0,133,0,931.5234144020014,931.5234144020014,931.5234144020014,931.5234144020014,931.5234144020014,931.5234144020014,931.5234144020014,1,1,azul,1,['N_B'],932.9584859410006,932.9584859410006,932.9584859410006,932.9584859410006,934.9940113380017,934.9940113380017,934.9940113380017,934.9940113380017,934.9940113380017,934.9940113380017,934.9940113380017,934.9940113380017,937.0294290609982,937.0294290609982,937.0294290609982,937.0294290609982,,,,,,,,,,,,,,,,,,,,,,,,,,,,,,14,007,2022-09-23_15h46.22.951,test2,2022.2.4,59.3644164190562,
0,0,0,0,134,0,134,0,937.0294290609982,937.0294290609982,937.0294290609982,937.0294290609982,937.0294290609982,937.0294290609982,937.0294290609982,1,-1,azul,1,['N_B'],938.3476149699982,938.3476149699982,938.3476149699982,938.3476149699982,940.3831297650013,940.3831297650013,940.3831297650013,940.3831297650013,940.3831297650013,940.3831297650013,940.3831297650013,940.3831297650013,942.4182965439995,942.4182965439995,942.4182965439995,942.4182965439995,,,,,,,,,,,,,,,,,,,,,,,,,,,,,,14,007,2022-09-23_15h46.22.951,test2,2022.2.4,59.3644164190562,
0,0,0,0,135,0,135,0,942.4182965439995,942.4182965439995,942.4182965439995,942.4182965439995,942.4182965439995,942.4182965439995,942.4182965439995,1,-1,azul,1,['N_B'],943.7369076550003,943.7369076550003,943.7369076550003,943.7369076550003,945.7722637200004,945.7722637200004,945.7722637200004,945.7722637200004,945.7722637200004,945.7722637200004,945.7722637200004,945.7722637200004,947.8080396390014,947.8080396390014,947.8080396390014,947.8080396390014,,,,,,,,,,,,,,,,,,,,,,,,,,,,,,14,007,2022-09-23_15h46.22.951,test2,2022.2.4,59.3644164190562,
0,0,0,0,136,0,136,0,947.8080396390014,947.8080396390014,947.8080396390014,947.8080396390014,947.8080396390014,947.8080396390014,947.8080396390014,-1,-1,rojo,1,['N_B'],949.1588208320009,949.1588208320009,949.1588208320009,949.1588208320009,951.194726740001,951.194726740001,951.194726740001,951.194726740001,951.194726740001,951.194726740001,951.194726740001,951.194726740001,953.2302540799992,953.2302540799992,953.2302540799992,953.2302540799992,,,,,,,,,,,,,,,,,,,,,,,,,,,,,,14,007,2022-09-23_15h46.22.951,test2,2022.2.4,59.3644164190562,
0,0,0,0,137,0,137,0,953.2302540799992,953.2302540799992,953.2302540799992,953.2302540799992,953.2302540799992,953.2302540799992,953.2302540799992,1,-1,azul,1,['N_B'],954.6824945550015,954.6824945550015,954.6824945550015,954.6824945550015,956.7176219310004,956.7176219310004,956.7176219310004,956.7176219310004,956.7176219310004,956.7176219310004,956.7176219310004,956.7176219310004,958.7530876219989,958.7530876219989,958.7530876219989,958.7530876219989,,,,,,,,,,,,,,,,,,,,,,,,,,,,,,14,007,2022-09-23_15h46.22.951,test2,2022.2.4,59.3644164190562,
0,0,0,0,138,0,138,0,958.7530876219989,958.7530876219989,958.7530876219989,958.7530876219989,958.7530876219989,958.7530876219989,958.7530876219989,-1,-1,rojo,1,['N_B'],960.1041710720001,960.1041710720001,960.1041710720001,960.1041710720001,962.1404174489999,962.1404174489999,962.1404174489999,962.1404174489999,962.1404174489999,962.1404174489999,962.1404174489999,962.1404174489999,964.1758083149998,964.1758083149998,964.1758083149998,964.1758083149998,,,,,,,,,,,,,,,,,,,,,,,,,,,,,,14,007,2022-09-23_15h46.22.951,test2,2022.2.4,59.3644164190562,
0,0,0,0,139,0,139,0,964.1758083149998,964.1758083149998,964.1758083149998,964.1758083149998,964.1758083149998,964.1758083149998,964.1758083149998,1,1,azul,1,['N_B'],965.5938014709991,965.5938014709991,965.5938014709991,965.5938014709991,967.6121128690011,967.6121128690011,967.6121128690011,967.6121128690011,967.6121128690011,967.6121128690011,967.6121128690011,967.6121128690011,969.6484420659999,969.6484420659999,969.6484420659999,969.6484420659999,,,,,,,,,,,,,,,,,,,,,,,,,,,,,,14,007,2022-09-23_15h46.22.951,test2,2022.2.4,59.3644164190562,
0,0,0,0,140,0,140,0,969.6484420659999,969.6484420659999,969.6484420659999,969.6484420659999,969.6484420659999,969.6484420659999,969.6484420659999,1,1,azul,1,['N_B'],970.9994477050004,970.9994477050004,970.9994477050004,970.9994477050004,973.0356271859982,973.0356271859982,973.0356271859982,973.0356271859982,973.0356271859982,973.0356271859982,973.0356271859982,973.0356271859982,975.0711158809991,975.0711158809991,975.0711158809991,975.0711158809991,,,,,,,,,,,,,,,,,,,,,,,,,,,,,,14,007,2022-09-23_15h46.22.951,test2,2022.2.4,59.3644164190562,
0,0,0,0,141,0,141,0,975.0711158809991,975.0711158809991,975.0711158809991,975.0711158809991,975.0711158809991,975.0711158809991,975.0711158809991,-1,-1,rojo,1,['N_B'],976.5723083799985,976.5723083799985,976.5723083799985,976.5723083799985,978.6083091790006,978.6083091790006,978.6083091790006,978.6083091790006,978.6083091790006,978.6083091790006,978.6083091790006,978.6083091790006,980.6437423709995,980.6437423709995,980.6437423709995,980.6437423709995,,,,,,,,,,,,,,,,,,,,,,,,,,,,,,14,007,2022-09-23_15h46.22.951,test2,2022.2.4,59.3644164190562,
0,0,0,0,142,0,142,0,980.6437423709995,980.6437423709995,980.6437423709995,980.6437423709995,980.6437423709995,980.6437423709995,980.6437423709995,1,1,azul,1,['N_B'],982.1291501290016,982.1291501290016,982.1291501290016,982.1291501290016,984.1477741750004,984.1477741750004,984.1477741750004,984.1477741750004,984.1477741750004,984.1477741750004,984.1477741750004,984.1477741750004,986.1833797739982,986.1833797739982,986.1833797739982,986.1833797739982,,,,,,,,,,,,,,,,,,,,,,,,,,,,,,14,007,2022-09-23_15h46.22.951,test2,2022.2.4,59.3644164190562,
0,0,0,0,143,0,143,0,986.1833797739982,986.1833797739982,986.1833797739982,986.1833797739982,986.1833797739982,986.1833797739982,986.1833797739982,1,1,azul,1,['N_B'],987.6013640410001,987.6013640410001,987.6013640410001,987.6013640410001,989.6203567950015,989.6203567950015,989.6203567950015,989.6203567950015,989.6203567950015,989.6203567950015,989.6203567950015,989.6203567950015,991.6565155299995,991.6565155299995,991.6565155299995,991.6565155299995,,,,,,,,,,,,,,,,,,,,,,,,,,,,,,14,007,2022-09-23_15h46.22.951,test2,2022.2.4,59.3644164190562,
0,0,0,0,144,0,144,0,991.6565155299995,991.6565155299995,991.6565155299995,991.6565155299995,991.6565155299995,991.6565155299995,991.6565155299995,1,1,azul,1,['N_B'],993.1415276780008,993.1415276780008,993.1415276780008,993.1415276780008,995.1765110719989,995.1765110719989,995.1765110719989,995.1765110719989,995.1765110719989,995.1765110719989,995.1765110719989,995.1765110719989,997.2120745240009,997.2120745240009,997.2120745240009,997.2120745240009,,,,,,,,,,,,,,,,,,,,,,,,,,,,,,14,007,2022-09-23_15h46.22.951,test2,2022.2.4,59.3644164190562,
0,0,0,0,145,0,145,0,997.2120745240009,997.2120745240009,997.2120745240009,997.2120745240009,997.2120745240009,997.2120745240009,997.2120745240009,1,-1,azul,1,['N_B'],998.7972061409982,998.7972061409982,998.7972061409982,998.7972061409982,1000.8330893309994,1000.8330893309994,1000.8330893309994,1000.8330893309994,1000.8330893309994,1000.8330893309994,1000.8330893309994,1000.8330893309994,1002.8685363470013,1002.8685363470013,1002.8685363470013,1002.8685363470013,,,,,,,,,,,,,,,,,,,,,,,,,,,,,,14,007,2022-09-23_15h46.22.951,test2,2022.2.4,59.3644164190562,
0,0,0,0,146,0,146,0,1002.8685363470013,1002.8685363470013,1002.8685363470013,1002.8685363470013,1002.8685363470013,1002.8685363470013,1002.8685363470013,-1,-1,rojo,1,['N_B'],1004.2867680779982,1004.2867680779982,1004.2867680779982,1004.2867680779982,1006.3230146199985,1006.3230146199985,1006.3230146199985,1006.3230146199985,1006.3230146199985,1006.3230146199985,1006.3230146199985,1006.3230146199985,1008.3575369929986,1008.3575369929986,1008.3575369929986,1008.3575369929986,,,,,,,,,,,,,,,,,,,,,,,,,,,,,,14,007,2022-09-23_15h46.22.951,test2,2022.2.4,59.3644164190562,
0,0,0,0,147,0,147,0,1008.3575369929986,1008.3575369929986,1008.3575369929986,1008.3575369929986,1008.3575369929986,1008.3575369929986,1008.3575369929986,1,-1,azul,1,['N_B'],1009.7091739679981,1009.7091739679981,1009.7091739679981,1009.7091739679981,1011.7451513680007,1011.7451513680007,1011.7451513680007,1011.7451513680007,1011.7451513680007,1011.7451513680007,1011.7451513680007,1011.7451513680007,1013.780642882999,1013.780642882999,1013.780642882999,1013.780642882999,,,,,,,,,,,,,,,,,,,,,,,,,,,,,,14,007,2022-09-23_15h46.22.951,test2,2022.2.4,59.3644164190562,
0,0,0,0,148,0,148,0,1013.780642882999,1013.780642882999,1013.780642882999,1013.780642882999,1013.780642882999,1013.780642882999,1013.780642882999,1,-1,azul,1,['N_B'],1015.1652682090007,1015.1652682090007,1015.1652682090007,1015.1652682090007,1017.2012887180008,1017.2012887180008,1017.2012887180008,1017.2012887180008,1017.2012887180008,1017.2012887180008,1017.2012887180008,1017.2012887180008,1019.2363499799994,1019.2363499799994,1019.2363499799994,1019.2363499799994,,,,,,,,,,,,,,,,,,,,,,,,,,,,,,14,007,2022-09-23_15h46.22.951,test2,2022.2.4,59.3644164190562,
0,0,0,0,149,0,149,0,1019.2363499799994,1019.2363499799994,1019.2363499799994,1019.2363499799994,1019.2363499799994,1019.2363499799994,1019.2363499799994,1,-1,azul,1,['N_B'],1020.6042933640001,1020.6042933640001,1020.6042933640001,1020.6042933640001,1022.6395798229987,1022.6395798229987,1022.6395798229987,1022.6395798229987,1022.6395798229987,1022.6395798229987,1022.6395798229987,1022.6395798229987,1024.6756766359995,1024.6756766359995,1024.6756766359995,1024.6756766359995,,,,,,,,,,,,,,,,,,,,,,,,,,,,,,14,007,2022-09-23_15h46.22.951,test2,2022.2.4,59.3644164190562,
0,0,0,0,150,0,150,0,1024.6756766359995,1024.6756766359995,1024.6756766359995,1024.6756766359995,1024.6756766359995,1024.6756766359995,1024.6756766359995,-1,1,rojo,1,['N_B'],1026.3608298119998,1026.3608298119998,1026.3608298119998,1026.3608298119998,1028.3807761679982,1028.3807761679982,1028.3807761679982,1028.3807761679982,1028.3807761679982,1028.3807761679982,1028.3807761679982,1028.3807761679982,1030.4156876680008,1030.4156876680008,1030.4156876680008,1030.4156876680008,,,,,,,,,,,,,,,,,,,,,,,,,,,,,,14,007,2022-09-23_15h46.22.951,test2,2022.2.4,59.3644164190562,
0,0,0,0,151,0,151,0,1030.4156876680008,1030.4156876680008,1030.4156876680008,1030.4156876680008,1030.4156876680008,1030.4156876680008,1030.4156876680008,1,1,azul,1,['N_B'],1031.7671701070012,1031.7671701070012,1031.7671701070012,1031.7671701070012,1033.7861371109993,1033.7861371109993,1033.7861371109993,1033.7861371109993,1033.7861371109993,1033.7861371109993,1033.7861371109993,1033.7861371109993,1035.8215948080015,1035.8215948080015,1035.8215948080015,1035.8215948080015,,,,,,,,,,,,,,,,,,,,,,,,,,,,,,14,007,2022-09-23_15h46.22.951,test2,2022.2.4,59.3644164190562,
0,0,0,0,152,0,152,0,1035.8215948080015,1035.8215948080015,1035.8215948080015,1035.8215948080015,1035.8215948080015,1035.8215948080015,1035.8215948080015,1,1,azul,1,['N_B'],1037.1731610949992,1037.1731610949992,1037.1731610949992,1037.1731610949992,1039.2089303369994,1039.2089303369994,1039.2089303369994,1039.2089303369994,1039.2089303369994,1039.2089303369994,1039.2089303369994,1039.2089303369994,1041.2435338429987,1041.2435338429987,1041.2435338429987,1041.2435338429987,,,,,,,,,,,,,,,,,,,,,,,,,,,,,,14,007,2022-09-23_15h46.22.951,test2,2022.2.4,59.3644164190562,
0,0,0,0,153,0,153,0,1041.2435338429987,1041.2435338429987,1041.2435338429987,1041.2435338429987,1041.2435338429987,1041.2435338429987,1041.2435338429987,1,-1,azul,1,['N_B'],1042.6458202990016,1042.6458202990016,1042.6458202990016,1042.6458202990016,1044.6819189340004,1044.6819189340004,1044.6819189340004,1044.6819189340004,1044.6819189340004,1044.6819189340004,1044.6819189340004,1044.6819189340004,1046.7172243139994,1046.7172243139994,1046.7172243139994,1046.7172243139994,,,,,,,,,,,,,,,,,,,,,,,,,,,,,,14,007,2022-09-23_15h46.22.951,test2,2022.2.4,59.3644164190562,
0,0,0,0,154,0,154,0,1046.7172243139994,1046.7172243139994,1046.7172243139994,1046.7172243139994,1046.7172243139994,1046.7172243139994,1046.7172243139994,-1,1,rojo,1,['N_B'],1048.134705896,1048.134705896,1048.134705896,1048.134705896,1050.1704434910007,1050.1704434910007,1050.1704434910007,1050.1704434910007,1050.1704434910007,1050.1704434910007,1050.1704434910007,1050.1704434910007,1052.2060878930006,1052.2060878930006,1052.2060878930006,1052.2060878930006,,,,,,,,,,,,,,,,,,,,,,,,,,,,,,14,007,2022-09-23_15h46.22.951,test2,2022.2.4,59.3644164190562,
0,0,0,0,155,0,155,0,1052.2060878930006,1052.2060878930006,1052.2060878930006,1052.2060878930006,1052.2060878930006,1052.2060878930006,1052.2060878930006,1,-1,azul,1,['N_B'],1053.7411049919992,1053.7411049919992,1053.7411049919992,1053.7411049919992,1055.7766586800008,1055.7766586800008,1055.7766586800008,1055.7766586800008,1055.7766586800008,1055.7766586800008,1055.7766586800008,1055.7766586800008,1057.8125860710006,1057.8125860710006,1057.8125860710006,1057.8125860710006,,,,,,,,,,,,,,,,,,,,,,,,,,,,,,14,007,2022-09-23_15h46.22.951,test2,2022.2.4,59.3644164190562,
0,0,0,0,156,0,156,0,1057.8125860710006,1057.8125860710006,1057.8125860710006,1057.8125860710006,1057.8125860710006,1057.8125860710006,1057.8125860710006,1,-1,azul,1,['N_B'],1059.1638396959988,1059.1638396959988,1059.1638396959988,1059.1638396959988,1061.1998225279985,1061.1998225279985,1061.1998225279985,1061.1998225279985,1061.1998225279985,1061.1998225279985,1061.1998225279985,1061.1998225279985,1063.2349789439995,1063.2349789439995,1063.2349789439995,1063.2349789439995,,,,,,,,,,,,,,,,,,,,,,,,,,,,,,14,007,2022-09-23_15h46.22.951,test2,2022.2.4,59.3644164190562,
0,0,0,0,157,0,157,0,1063.2349789439995,1063.2349789439995,1063.2349789439995,1063.2349789439995,1063.2349789439995,1063.2349789439995,1063.2349789439995,1,1,azul,1,['N_B'],1064.5864230179996,1064.5864230179996,1064.5864230179996,1064.5864230179996,1066.605186095001,1066.605186095001,1066.605186095001,1066.605186095001,1066.605186095001,1066.605186095001,1066.605186095001,1066.605186095001,1068.641237957001,1068.641237957001,1068.641237957001,1068.641237957001,,,,,,,,,,,,,,,,,,,,,,,,,,,,,,14,007,2022-09-23_15h46.22.951,test2,2022.2.4,59.3644164190562,
0,0,0,0,158,0,158,0,1068.641237957001,1068.641237957001,1068.641237957001,1068.641237957001,1068.641237957001,1068.641237957001,1068.641237957001,1,1,azul,1,['N_B'],1070.0761947230003,1070.0761947230003,1070.0761947230003,1070.0761947230003,1072.1116035450013,1072.1116035450013,1072.1116035450013,1072.1116035450013,1072.1116035450013,1072.1116035450013,1072.1116035450013,1072.1116035450013,1074.1473447679982,1074.1473447679982,1074.1473447679982,1074.1473447679982,,,,,,,,,,,,,,,,,,,,,,,,,,,,,,14,007,2022-09-23_15h46.22.951,test2,2022.2.4,59.3644164190562,
0,0,0,0,159,0,159,0,1074.1473447679982,1074.1473447679982,1074.1473447679982,1074.1473447679982,1074.1473447679982,1074.1473447679982,1074.1473447679982,1,-1,azul,1,['N_B'],1076.2825513160005,1076.2825513160005,1076.2825513160005,1076.2825513160005,1078.3187477400006,1078.3187477400006,1078.3187477400006,1078.3187477400006,1078.3187477400006,1078.3187477400006,1078.3187477400006,1078.3187477400006,1080.3544161129994,1080.3544161129994,1080.3544161129994,1080.3544161129994,,,,,,,,,,,,,,,,,,,,,,,,,,,,,,14,007,2022-09-23_15h46.22.951,test2,2022.2.4,59.3644164190562,
0,0,0,0,160,0,160,0,1080.3544161129994,1080.3544161129994,1080.3544161129994,1080.3544161129994,1080.3544161129994,1080.3544161129994,1080.3544161129994,-1,-1,rojo,1,['N_B'],1081.9729215909992,1081.9729215909992,1081.9729215909992,1081.9729215909992,1084.0076802290005,1084.0076802290005,1084.0076802290005,1084.0076802290005,1084.0076802290005,1084.0076802290005,1084.0076802290005,1084.0076802290005,1086.0439989630013,1086.0439989630013,1086.0439989630013,1086.0439989630013,,,,,,,,,,,,,,,,,,,,,,,,,,,,,,14,007,2022-09-23_15h46.22.951,test2,2022.2.4,59.3644164190562,
0,0,0,0,161,0,161,0,1086.0439989630013,1086.0439989630013,1086.0439989630013,1086.0439989630013,1086.0439989630013,1086.0439989630013,1086.0439989630013,1,1,azul,1,['N_B'],1088.0625705719995,1088.0625705719995,1088.0625705719995,1088.0625705719995,1090.0818200039994,1090.0818200039994,1090.0818200039994,1090.0818200039994,1090.0818200039994,1090.0818200039994,1090.0818200039994,1090.0818200039994,1092.1169127230005,1092.1169127230005,1092.1169127230005,1092.1169127230005,,,,,,,,,,,,,,,,,,,,,,,,,,,,,,14,007,2022-09-23_15h46.22.951,test2,2022.2.4,59.3644164190562,
0,0,0,0,162,0,162,0,1092.1169127230005,1092.1169127230005,1092.1169127230005,1092.1169127230005,1092.1169127230005,1092.1169127230005,1092.1169127230005,1,1,azul,1,['N_B'],1093.835603761001,1093.835603761001,1093.835603761001,1093.835603761001,1095.8550774689993,1095.8550774689993,1095.8550774689993,1095.8550774689993,1095.8550774689993,1095.8550774689993,1095.8550774689993,1095.8550774689993,1097.890387169,1097.890387169,1097.890387169,1097.890387169,,,,,,,,,,,,,,,,,,,,,,,,,,,,,,14,007,2022-09-23_15h46.22.951,test2,2022.2.4,59.3644164190562,
0,0,0,0,163,0,163,0,1097.890387169,1097.890387169,1097.890387169,1097.890387169,1097.890387169,1097.890387169,1097.890387169,1,1,azul,1,['N_B'],1099.6090186329984,1099.6090186329984,1099.6090186329984,1099.6090186329984,1101.6274843810006,1101.6274843810006,1101.6274843810006,1101.6274843810006,1101.6274843810006,1101.6274843810006,1101.6274843810006,1101.6274843810006,1103.6630933350007,1103.6630933350007,1103.6630933350007,1103.6630933350007,,,,,,,,,,,,,,,,,,,,,,,,,,,,,,14,007,2022-09-23_15h46.22.951,test2,2022.2.4,59.3644164190562,
0,0,0,0,164,0,164,0,1103.6630933350007,1103.6630933350007,1103.6630933350007,1103.6630933350007,1103.6630933350007,1103.6630933350007,1103.6630933350007,1,1,azul,1,['N_B'],1105.0149151349997,1105.0149151349997,1105.0149151349997,1105.0149151349997,1107.0329865709991,1107.0329865709991,1107.0329865709991,1107.0329865709991,1107.0329865709991,1107.0329865709991,1107.0329865709991,1107.0329865709991,1109.0690489540011,1109.0690489540011,1109.0690489540011,1109.0690489540011,,,,,,,,,,,,,,,,,,,,,,,,,,,,,,14,007,2022-09-23_15h46.22.951,test2,2022.2.4,59.3644164190562,
0,0,0,0,165,0,165,0,1109.0690489540011,1109.0690489540011,1109.0690489540011,1109.0690489540011,1109.0690489540011,1109.0690489540011,1109.0690489540011,1,1,azul,1,['N_B'],1111.0881799399995,1111.0881799399995,1111.0881799399995,1111.0881799399995,1113.1230476740002,1113.1230476740002,1113.1230476740002,1113.1230476740002,1113.1230476740002,1113.1230476740002,1113.1230476740002,1113.1230476740002,1115.1586686440005,1115.1586686440005,1115.1586686440005,1115.1586686440005,,,,,,,,,,,,,,,,,,,,,,,,,,,,,,14,007,2022-09-23_15h46.22.951,test2,2022.2.4,59.3644164190562,
0,0,0,0,166,0,166,0,1115.1586686440005,1115.1586686440005,1115.1586686440005,1115.1586686440005,1115.1586686440005,1115.1586686440005,1115.1586686440005,1,-1,azul,1,['N_B'],1116.310677129999,1116.310677129999,1116.310677129999,1116.310677129999,1118.3458018830006,1118.3458018830006,1118.3458018830006,1118.3458018830006,1118.3458018830006,1118.3458018830006,1118.3458018830006,1118.3458018830006,1120.3814702120017,1120.3814702120017,1120.3814702120017,1120.3814702120017,,,,,,,,,,,,,,,,,,,,,,,,,,,,,,14,007,2022-09-23_15h46.22.951,test2,2022.2.4,59.3644164190562,
0,0,0,0,167,0,167,0,1120.3814702120017,1120.3814702120017,1120.3814702120017,1120.3814702120017,1120.3814702120017,1120.3814702120017,1120.3814702120017,1,-1,azul,1,['N_B'],1121.7832305440006,1121.7832305440006,1121.7832305440006,1121.7832305440006,1123.818158021999,1123.818158021999,1123.818158021999,1123.818158021999,1123.818158021999,1123.818158021999,1123.818158021999,1123.818158021999,1125.854234712,1125.854234712,1125.854234712,1125.854234712,,,,,,,,,,,,,,,,,,,,,,,,,,,,,,14,007,2022-09-23_15h46.22.951,test2,2022.2.4,59.3644164190562,
0,0,0,0,168,0,168,0,1125.854234712,1125.854234712,1125.854234712,1125.854234712,1125.854234712,1125.854234712,1125.854234712,-1,-1,rojo,1,['N_B'],1127.373128838999,1127.373128838999,1127.373128838999,1127.373128838999,1129.4080327059983,1129.4080327059983,1129.4080327059983,1129.4080327059983,1129.4080327059983,1129.4080327059983,1129.4080327059983,1129.4080327059983,1131.4436975750014,1131.4436975750014,1131.4436975750014,1131.4436975750014,,,,,,,,,,,,,,,,,,,,,,,,,,,,,,14,007,2022-09-23_15h46.22.951,test2,2022.2.4,59.3644164190562,
0,0,0,0,169,0,169,0,1131.4436975750014,1131.4436975750014,1131.4436975750014,1131.4436975750014,1131.4436975750014,1131.4436975750014,1131.4436975750014,1,-1,azul,1,['N_B'],1132.945117448,1132.945117448,1132.945117448,1132.945117448,1134.9809067859987,1134.9809067859987,1134.9809067859987,1134.9809067859987,1134.9809067859987,1134.9809067859987,1134.9809067859987,1134.9809067859987,1137.0160269770004,1137.0160269770004,1137.0160269770004,1137.0160269770004,,,,,,,,,,,,,,,,,,,,,,,,,,,,,,14,007,2022-09-23_15h46.22.951,test2,2022.2.4,59.3644164190562,
0,0,0,0,170,0,170,0,1137.0160269770004,1137.0160269770004,1137.0160269770004,1137.0160269770004,1137.0160269770004,1137.0160269770004,1137.0160269770004,-1,-1,rojo,1,['N_B'],1138.5353725510013,1138.5353725510013,1138.5353725510013,1138.5353725510013,1140.5703735059997,1140.5703735059997,1140.5703735059997,1140.5703735059997,1140.5703735059997,1140.5703735059997,1140.5703735059997,1140.5703735059997,1142.6060412079987,1142.6060412079987,1142.6060412079987,1142.6060412079987,,,,,,,,,,,,,,,,,,,,,,,,,,,,,,14,007,2022-09-23_15h46.22.951,test2,2022.2.4,59.3644164190562,
0,0,0,0,171,0,171,0,1142.6060412079987,1142.6060412079987,1142.6060412079987,1142.6060412079987,1142.6060412079987,1142.6060412079987,1142.6060412079987,1,-1,azul,1,['N_B'],1143.8908212820006,1143.8908212820006,1143.8908212820006,1143.8908212820006,1145.9265182690015,1145.9265182690015,1145.9265182690015,1145.9265182690015,1145.9265182690015,1145.9265182690015,1145.9265182690015,1145.9265182690015,1147.961835486998,1147.961835486998,1147.961835486998,1147.961835486998,,,,,,,,,,,,,,,,,,,,,,,,,,,,,,14,007,2022-09-23_15h46.22.951,test2,2022.2.4,59.3644164190562,
0,0,0,0,172,0,172,0,1147.961835486998,1147.961835486998,1147.961835486998,1147.961835486998,1147.961835486998,1147.961835486998,1147.961835486998,1,1,azul,1,['N_B'],1149.8804833529994,1149.8804833529994,1149.8804833529994,1149.8804833529994,1151.8992929959986,1151.8992929959986,1151.8992929959986,1151.8992929959986,1151.8992929959986,1151.8992929959986,1151.8992929959986,1151.8992929959986,1153.9352142670014,1153.9352142670014,1153.9352142670014,1153.9352142670014,,,,,,,,,,,,,,,,,,,,,,,,,,,,,,14,007,2022-09-23_15h46.22.951,test2,2022.2.4,59.3644164190562,
0,0,0,0,173,0,173,0,1153.9352142670014,1153.9352142670014,1153.9352142670014,1153.9352142670014,1153.9352142670014,1153.9352142670014,1153.9352142670014,1,1,azul,1,['N_B'],1156.921906564001,1156.921906564001,1156.921906564001,1156.921906564001,1158.9400357879986,1158.9400357879986,1158.9400357879986,1158.9400357879986,1158.9400357879986,1158.9400357879986,1158.9400357879986,1158.9400357879986,1160.9764143999982,1160.9764143999982,1160.9764143999982,1160.9764143999982,,,,,,,,,,,,,,,,,,,,,,,,,,,,,,14,007,2022-09-23_15h46.22.951,test2,2022.2.4,59.3644164190562,
0,0,0,0,174,0,174,0,1160.9764143999982,1160.9764143999982,1160.9764143999982,1160.9764143999982,1160.9764143999982,1160.9764143999982,1160.9764143999982,1,1,azul,1,['N_B'],1163.1291021710003,1163.1291021710003,1163.1291021710003,1163.1291021710003,1165.1480509970006,1165.1480509970006,1165.1480509970006,1165.1480509970006,1165.1480509970006,1165.1480509970006,1165.1480509970006,1165.1480509970006,1167.1831296539985,1167.1831296539985,1167.1831296539985,1167.1831296539985,,,,,,,,,,,,,,,,,,,,,,,,,,,,,,14,007,2022-09-23_15h46.22.951,test2,2022.2.4,59.3644164190562,
0,0,0,0,175,0,175,0,1167.1831296539985,1167.1831296539985,1167.1831296539985,1167.1831296539985,1167.1831296539985,1167.1831296539985,1167.1831296539985,1,1,azul,1,['N_B'],1168.7685731660004,1168.7685731660004,1168.7685731660004,1168.7685731660004,1170.8037251430014,1170.8037251430014,1170.8037251430014,1170.8037251430014,1170.8037251430014,1170.8037251430014,1170.8037251430014,1170.8037251430014,1172.8391376679992,1172.8391376679992,1172.8391376679992,1172.8391376679992,,,,,,,,,,,,,,,,,,,,,,,,,,,,,,14,007,2022-09-23_15h46.22.951,test2,2022.2.4,59.3644164190562,
0,0,0,0,176,0,176,0,1172.8391376679992,1172.8391376679992,1172.8391376679992,1172.8391376679992,1172.8391376679992,1172.8391376679992,1172.8391376679992,-1,-1,rojo,1,['N_B'],1174.3074020350014,1174.3074020350014,1174.3074020350014,1174.3074020350014,1176.3435743179998,1176.3435743179998,1176.3435743179998,1176.3435743179998,1176.3435743179998,1176.3435743179998,1176.3435743179998,1176.3435743179998,1178.3787145449987,1178.3787145449987,1178.3787145449987,1178.3787145449987,,,,,,,,,,,,,,,,,,,,,,,,,,,,,,14,007,2022-09-23_15h46.22.951,test2,2022.2.4,59.3644164190562,
0,0,0,0,177,0,177,0,1178.3787145449987,1178.3787145449987,1178.3787145449987,1178.3787145449987,1178.3787145449987,1178.3787145449987,1178.3787145449987,1,-1,azul,1,['N_B'],1179.8304364589985,1179.8304364589985,1179.8304364589985,1179.8304364589985,1181.8662336200014,1181.8662336200014,1181.8662336200014,1181.8662336200014,1181.8662336200014,1181.8662336200014,1181.8662336200014,1181.8662336200014,1183.901522066999,1183.901522066999,1183.901522066999,1183.901522066999,,,,,,,,,,,,,,,,,,,,,,,,,,,,,,14,007,2022-09-23_15h46.22.951,test2,2022.2.4,59.3644164190562,
0,0,0,0,178,0,178,0,1183.901522066999,1183.901522066999,1183.901522066999,1183.901522066999,1183.901522066999,1183.901522066999,1183.901522066999,1,1,azul,1,['N_B'],1185.4202541649993,1185.4202541649993,1185.4202541649993,1185.4202541649993,1187.4385791879995,1187.4385791879995,1187.4385791879995,1187.4385791879995,1187.4385791879995,1187.4385791879995,1187.4385791879995,1187.4385791879995,1189.4743662630008,1189.4743662630008,1189.4743662630008,1189.4743662630008,,,,,,,,,,,,,,,,,,,,,,,,,,,,,,14,007,2022-09-23_15h46.22.951,test2,2022.2.4,59.3644164190562,
0,0,0,0,179,0,179,0,1189.4743662630008,1189.4743662630008,1189.4743662630008,1189.4743662630008,1189.4743662630008,1189.4743662630008,1189.4743662630008,-1,1,rojo,1,['N_B'],1192.5441965349983,1192.5441965349983,1192.5441965349983,1192.5441965349983,1194.579707212999,1194.579707212999,1194.579707212999,1194.579707212999,1194.579707212999,1194.579707212999,1194.579707212999,1194.579707212999,1196.6153337829983,1196.6153337829983,1196.6153337829983,1196.6153337829983,,,,,,,,,,,,,,,,,,,,,,,,,,,,,,14,007,2022-09-23_15h46.22.951,test2,2022.2.4,59.3644164190562,
