trials_2.thisRepN,trials_2.thisTrialN,trials_2.thisN,trials_2.thisIndex,trials.thisRepN,trials.thisTrialN,trials.thisN,trials.thisIndex,Instrucción2.started,N_A_4.started,N_B_4.started,Exitos_3.started,Dias_3.started,Stimuli_1.started,Stimuli_2.started,Transitions,Rewards,Mode,Stay,Neighbour,Stimuli_3.started,Modo.started,Dias2.started,Exitos2.started,Stimuli_3.stopped,Modo.stopped,Dias2.stopped,Exitos2.stopped,Reward.started,Stimuli_reward.started,Exitos3.started,Dias3.started,Reward.stopped,Stimuli_reward.stopped,Exitos3.stopped,Dias3.stopped,Cue_text.started,Stimuli_4.started,Exitos4.started,Dias4.started,Stimuli_3_3.started,Stimuli_2_3.started,Instrucción.started,N_A.started,N_B.started,N_C.started,Exitos_2.started,Dias_2.started,Stimuli_1_3.started,Resp_final_1,Modo2.started,Modo1.started,Pregunta_4.started,Modo3.started,Exitos7.started,Dias6.started,Resp_final_2,Modo1_2.started,Pregunta_3.started,Modo2_2.started,Exitos8.started,Dias7.started,Resp_final_3,Mensaje_Final2.started,Exitos6.started,participant,session,date,expName,psychopyVersion,frameRate,
0,0,0,0,0,0,0,0,27.28442962400004,27.28442962400004,27.28442962400004,27.28442962400004,27.28442962400004,27.28442962400004,27.28442962400004,0,0,0,0,['N_A'],37.07754278500033,37.07754278500033,37.07754278500033,37.07754278500033,39.11232391199974,39.11232391199974,39.11232391199974,39.11232391199974,39.11232391199974,39.11232391199974,39.11232391199974,39.11232391199974,41.148464175999834,41.148464175999834,41.148464175999834,41.148464175999834,,,,,,,,,,,,,,,,,,,,,,,,,,,,,,2,012,2022-09-27_15h32.42.392,test2,2022.2.4,59.98840724019541,
0,0,0,0,1,0,1,0,41.148464175999834,41.148464175999834,41.148464175999834,41.148464175999834,41.148464175999834,41.148464175999834,41.148464175999834,1,-1,rojo,1,['N_A'],47.67241287500019,47.67241287500019,47.67241287500019,47.67241287500019,49.71016700000018,49.71016700000018,49.71016700000018,49.71016700000018,49.71016700000018,49.71016700000018,49.71016700000018,49.71016700000018,51.744122940000125,51.744122940000125,51.744122940000125,51.744122940000125,,,,,,,,,,,,,,,,,,,,,,,,,,,,,,2,012,2022-09-27_15h32.42.392,test2,2022.2.4,59.98840724019541,
0,0,0,0,2,0,2,0,51.744122940000125,51.744122940000125,51.744122940000125,51.744122940000125,51.744122940000125,51.744122940000125,51.744122940000125,-1,1,azul,1,['N_A'],54.76377281399982,54.76377281399982,54.76377281399982,54.76377281399982,56.78336881300038,56.78336881300038,56.78336881300038,56.78336881300038,56.78336881300038,56.78336881300038,56.78336881300038,56.78336881300038,58.81824848100041,58.81824848100041,58.81824848100041,58.81824848100041,,,,,,,,,,,,,,,,,,,,,,,,,,,,,,2,012,2022-09-27_15h32.42.392,test2,2022.2.4,59.98840724019541,
0,0,0,0,3,0,3,0,58.81824848100041,58.81824848100041,58.81824848100041,58.81824848100041,58.81824848100041,58.81824848100041,58.81824848100041,1,1,rojo,1,['N_A'],63.84120182700008,63.84120182700008,63.84120182700008,63.84120182700008,65.85889620699982,65.85889620699982,65.85889620699982,65.85889620699982,65.85889620699982,65.85889620699982,65.85889620699982,65.85889620699982,67.89515482600018,67.89515482600018,67.89515482600018,67.89515482600018,,,,,,,,,,,,,,,,,,,,,,,,,,,,,,2,012,2022-09-27_15h32.42.392,test2,2022.2.4,59.98840724019541,
0,0,0,0,4,0,4,0,67.89515482600018,67.89515482600018,67.89515482600018,67.89515482600018,67.89515482600018,67.89515482600018,67.89515482600018,-1,1,azul,1,['N_A'],77.15478634300052,77.15478634300052,77.15478634300052,77.15478634300052,79.17386091499975,79.17386091499975,79.17386091499975,79.17386091499975,79.17386091499975,79.17386091499975,79.17386091499975,79.17386091499975,81.21009107000009,81.21009107000009,81.21009107000009,81.21009107000009,,,,,,,,,,,,,,,,,,,,,,,,,,,,,,2,012,2022-09-27_15h32.42.392,test2,2022.2.4,59.98840724019541,
0,0,0,0,5,0,5,0,81.21009107000009,81.21009107000009,81.21009107000009,81.21009107000009,81.21009107000009,81.21009107000009,81.21009107000009,1,1,rojo,1,['N_A'],85.71497510600057,85.71497510600057,85.71497510600057,85.71497510600057,87.73315016500055,87.73315016500055,87.73315016500055,87.73315016500055,87.73315016500055,87.73315016500055,87.73315016500055,87.73315016500055,89.76962461000039,89.76962461000039,89.76962461000039,89.76962461000039,,,,,,,,,,,,,,,,,,,,,,,,,,,,,,2,012,2022-09-27_15h32.42.392,test2,2022.2.4,59.98840724019541,
0,0,0,0,6,0,6,0,89.76962461000039,89.76962461000039,89.76962461000039,89.76962461000039,89.76962461000039,89.76962461000039,89.76962461000039,-1,1,azul,1,['N_A'],93.52294206599981,93.52294206599981,93.52294206599981,93.52294206599981,95.54181755599984,95.54181755599984,95.54181755599984,95.54181755599984,95.54181755599984,95.54181755599984,95.54181755599984,95.54181755599984,97.57746374100043,97.57746374100043,97.57746374100043,97.57746374100043,,,,,,,,,,,,,,,,,,,,,,,,,,,,,,2,012,2022-09-27_15h32.42.392,test2,2022.2.4,59.98840724019541,
0,0,0,0,7,0,7,0,97.57746374100043,97.57746374100043,97.57746374100043,97.57746374100043,97.57746374100043,97.57746374100043,97.57746374100043,1,1,rojo,1,['N_A'],101.73263578700062,101.73263578700062,101.73263578700062,101.73263578700062,103.75123257999985,103.75123257999985,103.75123257999985,103.75123257999985,103.75123257999985,103.75123257999985,103.75123257999985,103.75123257999985,105.78734811800041,105.78734811800041,105.78734811800041,105.78734811800041,,,,,,,,,,,,,,,,,,,,,,,,,,,,,,2,012,2022-09-27_15h32.42.392,test2,2022.2.4,59.98840724019541,
0,0,0,0,8,0,8,0,105.78734811800041,105.78734811800041,105.78734811800041,105.78734811800041,105.78734811800041,105.78734811800041,105.78734811800041,1,1,rojo,1,['N_A'],108.63968938100061,108.63968938100061,108.63968938100061,108.63968938100061,110.65948376100005,110.65948376100005,110.65948376100005,110.65948376100005,110.65948376100005,110.65948376100005,110.65948376100005,110.65948376100005,112.6942642820004,112.6942642820004,112.6942642820004,112.6942642820004,,,,,,,,,,,,,,,,,,,,,,,,,,,,,,2,012,2022-09-27_15h32.42.392,test2,2022.2.4,59.98840724019541,
0,0,0,0,9,0,9,0,112.6942642820004,112.6942642820004,112.6942642820004,112.6942642820004,112.6942642820004,112.6942642820004,112.6942642820004,1,1,rojo,1,['N_A'],115.29728587600039,115.29728587600039,115.29728587600039,115.29728587600039,117.33270587700008,117.33270587700008,117.33270587700008,117.33270587700008,117.33270587700008,117.33270587700008,117.33270587700008,117.33270587700008,119.36836847999984,119.36836847999984,119.36836847999984,119.36836847999984,,,,,,,,,,,,,,,,,,,,,,,,,,,,,,2,012,2022-09-27_15h32.42.392,test2,2022.2.4,59.98840724019541,
0,0,0,0,10,0,10,0,119.36836847999984,119.36836847999984,119.36836847999984,119.36836847999984,119.36836847999984,119.36836847999984,119.36836847999984,1,-1,rojo,1,['N_A'],121.1035156779999,121.1035156779999,121.1035156779999,121.1035156779999,123.13985690800018,123.13985690800018,123.13985690800018,123.13985690800018,123.13985690800018,123.13985690800018,123.13985690800018,123.13985690800018,125.17548695300047,125.17548695300047,125.17548695300047,125.17548695300047,,,,,,,,,,,,,,,,,,,,,,,,,,,,,,2,012,2022-09-27_15h32.42.392,test2,2022.2.4,59.98840724019541,
0,0,0,0,11,0,11,0,125.17548695300047,125.17548695300047,125.17548695300047,125.17548695300047,125.17548695300047,125.17548695300047,125.17548695300047,1,-1,rojo,0,['N_B'],127.41122896399975,127.41122896399975,127.41122896399975,127.41122896399975,129.44617497499985,129.44617497499985,129.44617497499985,129.44617497499985,129.44617497499985,129.44617497499985,129.44617497499985,129.44617497499985,131.48219321899978,131.48219321899978,131.48219321899978,131.48219321899978,,,,,,,,,,,,,,,,,,,,,,,,,,,,,,2,012,2022-09-27_15h32.42.392,test2,2022.2.4,59.98840724019541,
0,0,0,0,12,0,12,0,131.48219321899978,131.48219321899978,131.48219321899978,131.48219321899978,131.48219321899978,131.48219321899978,131.48219321899978,1,-1,azul,1,['N_B'],134.35201255399988,134.35201255399988,134.35201255399988,134.35201255399988,136.38701388499976,136.38701388499976,136.38701388499976,136.38701388499976,136.38701388499976,136.38701388499976,136.38701388499976,136.38701388499976,138.42254281399983,138.42254281399983,138.42254281399983,138.42254281399983,,,,,,,,,,,,,,,,,,,,,,,,,,,,,,2,012,2022-09-27_15h32.42.392,test2,2022.2.4,59.98840724019541,
0,0,0,0,13,0,13,0,138.42254281399983,138.42254281399983,138.42254281399983,138.42254281399983,138.42254281399983,138.42254281399983,138.42254281399983,1,-1,azul,1,['N_B'],140.67561458300042,140.67561458300042,140.67561458300042,140.67561458300042,142.7113374569999,142.7113374569999,142.7113374569999,142.7113374569999,142.7113374569999,142.7113374569999,142.7113374569999,142.7113374569999,144.74636416500016,144.74636416500016,144.74636416500016,144.74636416500016,,,,,,,,,,,,,,,,,,,,,,,,,,,,,,2,012,2022-09-27_15h32.42.392,test2,2022.2.4,59.98840724019541,
0,0,0,0,14,0,14,0,144.74636416500016,144.74636416500016,144.74636416500016,144.74636416500016,144.74636416500016,144.74636416500016,144.74636416500016,-1,-1,rojo,0,['N_A'],147.04915257300036,147.04915257300036,147.04915257300036,147.04915257300036,149.08500359499976,149.08500359499976,149.08500359499976,149.08500359499976,149.08500359499976,149.08500359499976,149.08500359499976,149.08500359499976,151.1202626080003,151.1202626080003,151.1202626080003,151.1202626080003,,,,,,,,,,,,,,,,,,,,,,,,,,,,,,2,012,2022-09-27_15h32.42.392,test2,2022.2.4,59.98840724019541,
0,0,0,0,15,0,15,0,151.1202626080003,151.1202626080003,151.1202626080003,151.1202626080003,151.1202626080003,151.1202626080003,151.1202626080003,1,-1,rojo,1,['N_A'],152.5050782240005,152.5050782240005,152.5050782240005,152.5050782240005,154.54066518699983,154.54066518699983,154.54066518699983,154.54066518699983,154.54066518699983,154.54066518699983,154.54066518699983,154.54066518699983,156.57664470300006,156.57664470300006,156.57664470300006,156.57664470300006,,,,,,,,,,,,,,,,,,,,,,,,,,,,,,2,012,2022-09-27_15h32.42.392,test2,2022.2.4,59.98840724019541,
0,0,0,0,16,0,16,0,156.57664470300006,156.57664470300006,156.57664470300006,156.57664470300006,156.57664470300006,156.57664470300006,156.57664470300006,1,-1,rojo,1,['N_A'],157.9608704150005,157.9608704150005,157.9608704150005,157.9608704150005,159.99665777000064,159.99665777000064,159.99665777000064,159.99665777000064,159.99665777000064,159.99665777000064,159.99665777000064,159.99665777000064,162.0325945350005,162.0325945350005,162.0325945350005,162.0325945350005,,,,,,,,,,,,,,,,,,,,,,,,,,,,,,2,012,2022-09-27_15h32.42.392,test2,2022.2.4,59.98840724019541,
0,0,0,0,17,0,17,0,162.0325945350005,162.0325945350005,162.0325945350005,162.0325945350005,162.0325945350005,162.0325945350005,162.0325945350005,-1,-1,azul,1,['N_A'],163.38337879699975,163.38337879699975,163.38337879699975,163.38337879699975,165.41951346299993,165.41951346299993,165.41951346299993,165.41951346299993,165.41951346299993,165.41951346299993,165.41951346299993,165.41951346299993,167.45507504800025,167.45507504800025,167.45507504800025,167.45507504800025,,,,,,,,,,,,,,,,,,,,,,,,,,,,,,2,012,2022-09-27_15h32.42.392,test2,2022.2.4,59.98840724019541,
0,0,0,0,18,0,18,0,167.45507504800025,167.45507504800025,167.45507504800025,167.45507504800025,167.45507504800025,167.45507504800025,167.45507504800025,1,-1,rojo,1,['N_A'],168.87325757600047,168.87325757600047,168.87325757600047,168.87325757600047,170.90842235800028,170.90842235800028,170.90842235800028,170.90842235800028,170.90842235800028,170.90842235800028,170.90842235800028,170.90842235800028,172.94458500900055,172.94458500900055,172.94458500900055,172.94458500900055,,,,,,,,,,,,,,,,,,,,,,,,,,,,,,2,012,2022-09-27_15h32.42.392,test2,2022.2.4,59.98840724019541,
0,0,0,0,19,0,19,0,172.94458500900055,172.94458500900055,172.94458500900055,172.94458500900055,172.94458500900055,172.94458500900055,172.94458500900055,1,1,rojo,1,['N_A'],174.37931298000058,174.37931298000058,174.37931298000058,174.37931298000058,176.39878883100027,176.39878883100027,176.39878883100027,176.39878883100027,176.39878883100027,176.39878883100027,176.39878883100027,176.39878883100027,178.43420548199992,178.43420548199992,178.43420548199992,178.43420548199992,,,,,,,,,,,,,,,,,,,,,,,,,,,,,,2,012,2022-09-27_15h32.42.392,test2,2022.2.4,59.98840724019541,
0,0,0,0,20,0,20,0,178.43420548199992,178.43420548199992,178.43420548199992,178.43420548199992,178.43420548199992,178.43420548199992,178.43420548199992,1,1,rojo,1,['N_A'],179.78558800800056,179.78558800800056,179.78558800800056,179.78558800800056,181.82110109600035,181.82110109600035,181.82110109600035,181.82110109600035,181.82110109600035,181.82110109600035,181.82110109600035,181.82110109600035,183.85614700000042,183.85614700000042,183.85614700000042,183.85614700000042,,,,,,,,,,,,,,,,,,,,,,,,,,,,,,2,012,2022-09-27_15h32.42.392,test2,2022.2.4,59.98840724019541,
0,0,0,0,21,0,21,0,183.85614700000042,183.85614700000042,183.85614700000042,183.85614700000042,183.85614700000042,183.85614700000042,183.85614700000042,1,-1,rojo,1,['N_A'],185.20817416699992,185.20817416699992,185.20817416699992,185.20817416699992,187.24389153100037,187.24389153100037,187.24389153100037,187.24389153100037,187.24389153100037,187.24389153100037,187.24389153100037,187.24389153100037,189.27847910899982,189.27847910899982,189.27847910899982,189.27847910899982,,,,,,,,,,,,,,,,,,,,,,,,,,,,,,2,012,2022-09-27_15h32.42.392,test2,2022.2.4,59.98840724019541,
0,0,0,0,22,0,22,0,189.27847910899982,189.27847910899982,189.27847910899982,189.27847910899982,189.27847910899982,189.27847910899982,189.27847910899982,1,-1,rojo,1,['N_A'],190.59694147000027,190.59694147000027,190.59694147000027,190.59694147000027,192.63312256000063,192.63312256000063,192.63312256000063,192.63312256000063,192.63312256000063,192.63312256000063,192.63312256000063,192.63312256000063,194.66862631200001,194.66862631200001,194.66862631200001,194.66862631200001,,,,,,,,,,,,,,,,,,,,,,,,,,,,,,2,012,2022-09-27_15h32.42.392,test2,2022.2.4,59.98840724019541,
0,0,0,0,23,0,23,0,194.66862631200001,194.66862631200001,194.66862631200001,194.66862631200001,194.66862631200001,194.66862631200001,194.66862631200001,1,1,rojo,1,['N_A'],196.82081933000063,196.82081933000063,196.82081933000063,196.82081933000063,198.85609536999982,198.85609536999982,198.85609536999982,198.85609536999982,198.85609536999982,198.85609536999982,198.85609536999982,198.85609536999982,200.89167591500063,200.89167591500063,200.89167591500063,200.89167591500063,,,,,,,,,,,,,,,,,,,,,,,,,,,,,,2,012,2022-09-27_15h32.42.392,test2,2022.2.4,59.98840724019541,
0,0,0,0,24,0,24,0,200.89167591500063,200.89167591500063,200.89167591500063,200.89167591500063,200.89167591500063,200.89167591500063,200.89167591500063,1,-1,rojo,1,['N_A'],202.31029752500035,202.31029752500035,202.31029752500035,202.31029752500035,204.34616512899993,204.34616512899993,204.34616512899993,204.34616512899993,204.34616512899993,204.34616512899993,204.34616512899993,204.34616512899993,206.38165563100029,206.38165563100029,206.38165563100029,206.38165563100029,,,,,,,,,,,,,,,,,,,,,,,,,,,,,,2,012,2022-09-27_15h32.42.392,test2,2022.2.4,59.98840724019541,
0,0,0,0,25,0,25,0,206.38165563100029,206.38165563100029,206.38165563100029,206.38165563100029,206.38165563100029,206.38165563100029,206.38165563100029,-1,1,azul,1,['N_A'],207.88301494500047,207.88301494500047,207.88301494500047,207.88301494500047,209.9177894960003,209.9177894960003,209.9177894960003,209.9177894960003,209.9177894960003,209.9177894960003,209.9177894960003,209.9177894960003,211.95346550500017,211.95346550500017,211.95346550500017,211.95346550500017,,,,,,,,,,,,,,,,,,,,,,,,,,,,,,2,012,2022-09-27_15h32.42.392,test2,2022.2.4,59.98840724019541,
0,0,0,0,26,0,26,0,211.95346550500017,211.95346550500017,211.95346550500017,211.95346550500017,211.95346550500017,211.95346550500017,211.95346550500017,-1,-1,azul,1,['N_A'],213.40620825800033,213.40620825800033,213.40620825800033,213.40620825800033,215.4420194230006,215.4420194230006,215.4420194230006,215.4420194230006,215.4420194230006,215.4420194230006,215.4420194230006,215.4420194230006,217.47699105500033,217.47699105500033,217.47699105500033,217.47699105500033,,,,,,,,,,,,,,,,,,,,,,,,,,,,,,2,012,2022-09-27_15h32.42.392,test2,2022.2.4,59.98840724019541,
0,0,0,0,27,0,27,0,217.47699105500033,217.47699105500033,217.47699105500033,217.47699105500033,217.47699105500033,217.47699105500033,217.47699105500033,1,-1,rojo,1,['N_A'],218.86220135300027,218.86220135300027,218.86220135300027,218.86220135300027,220.89773834000061,220.89773834000061,220.89773834000061,220.89773834000061,220.89773834000061,220.89773834000061,220.89773834000061,220.89773834000061,222.93259566600045,222.93259566600045,222.93259566600045,222.93259566600045,,,,,,,,,,,,,,,,,,,,,,,,,,,,,,2,012,2022-09-27_15h32.42.392,test2,2022.2.4,59.98840724019541,
0,0,0,0,28,0,28,0,222.93259566600045,222.93259566600045,222.93259566600045,222.93259566600045,222.93259566600045,222.93259566600045,222.93259566600045,-1,-1,azul,1,['N_A'],224.28435804899982,224.28435804899982,224.28435804899982,224.28435804899982,226.32007181000063,226.32007181000063,226.32007181000063,226.32007181000063,226.32007181000063,226.32007181000063,226.32007181000063,226.32007181000063,228.3552112819998,228.3552112819998,228.3552112819998,228.3552112819998,,,,,,,,,,,,,,,,,,,,,,,,,,,,,,2,012,2022-09-27_15h32.42.392,test2,2022.2.4,59.98840724019541,
0,0,0,0,29,0,29,0,228.3552112819998,228.3552112819998,228.3552112819998,228.3552112819998,228.3552112819998,228.3552112819998,228.3552112819998,1,-1,rojo,1,['N_A'],229.7400378910006,229.7400378910006,229.7400378910006,229.7400378910006,231.77601665400016,231.77601665400016,231.77601665400016,231.77601665400016,231.77601665400016,231.77601665400016,231.77601665400016,231.77601665400016,233.81101165000018,233.81101165000018,233.81101165000018,233.81101165000018,,,,,,,,,,,,,,,,,,,,,,,,,,,,,,2,012,2022-09-27_15h32.42.392,test2,2022.2.4,59.98840724019541,
0,0,0,0,30,0,30,0,233.81101165000018,233.81101165000018,233.81101165000018,233.81101165000018,233.81101165000018,233.81101165000018,233.81101165000018,1,-1,rojo,1,['N_A'],235.1959979990006,235.1959979990006,235.1959979990006,235.1959979990006,237.23219897800027,237.23219897800027,237.23219897800027,237.23219897800027,237.23219897800027,237.23219897800027,237.23219897800027,237.23219897800027,239.26723148100064,239.26723148100064,239.26723148100064,239.26723148100064,,,,,,,,,,,,,,,,,,,,,,,,,,,,,,2,012,2022-09-27_15h32.42.392,test2,2022.2.4,59.98840724019541,
0,0,0,0,31,0,31,0,239.26723148100064,239.26723148100064,239.26723148100064,239.26723148100064,239.26723148100064,239.26723148100064,239.26723148100064,1,-1,rojo,1,['N_A'],240.61961095600054,240.61961095600054,240.61961095600054,240.61961095600054,242.6551128609999,242.6551128609999,242.6551128609999,242.6551128609999,242.6551128609999,242.6551128609999,242.6551128609999,242.6551128609999,244.6903815530004,244.6903815530004,244.6903815530004,244.6903815530004,,,,,,,,,,,,,,,,,,,,,,,,,,,,,,2,012,2022-09-27_15h32.42.392,test2,2022.2.4,59.98840724019541,
0,0,0,0,32,0,32,0,244.6903815530004,244.6903815530004,244.6903815530004,244.6903815530004,244.6903815530004,244.6903815530004,244.6903815530004,1,1,rojo,1,['N_A'],246.3080401289999,246.3080401289999,246.3080401289999,246.3080401289999,248.34455592199993,248.34455592199993,248.34455592199993,248.34455592199993,248.34455592199993,248.34455592199993,248.34455592199993,248.34455592199993,250.380051008,250.380051008,250.380051008,250.380051008,,,,,,,,,,,,,,,,,,,,,,,,,,,,,,2,012,2022-09-27_15h32.42.392,test2,2022.2.4,59.98840724019541,
0,0,0,0,33,0,33,0,250.380051008,250.380051008,250.380051008,250.380051008,250.380051008,250.380051008,250.380051008,1,-1,rojo,1,['N_A'],251.79847486400013,251.79847486400013,251.79847486400013,251.79847486400013,253.8332585019998,253.8332585019998,253.8332585019998,253.8332585019998,253.8332585019998,253.8332585019998,253.8332585019998,253.8332585019998,255.8686357910001,255.8686357910001,255.8686357910001,255.8686357910001,,,,,,,,,,,,,,,,,,,,,,,,,,,,,,2,012,2022-09-27_15h32.42.392,test2,2022.2.4,59.98840724019541,
0,0,0,0,34,0,34,0,255.8686357910001,255.8686357910001,255.8686357910001,255.8686357910001,255.8686357910001,255.8686357910001,255.8686357910001,1,-1,rojo,1,['N_A'],257.2545102660006,257.2545102660006,257.2545102660006,257.2545102660006,259.28918867799985,259.28918867799985,259.28918867799985,259.28918867799985,259.28918867799985,259.28918867799985,259.28918867799985,259.28918867799985,261.3247481799999,261.3247481799999,261.3247481799999,261.3247481799999,,,,,,,,,,,,,,,,,,,,,,,,,,,,,,2,012,2022-09-27_15h32.42.392,test2,2022.2.4,59.98840724019541,
0,0,0,0,35,0,35,0,261.3247481799999,261.3247481799999,261.3247481799999,261.3247481799999,261.3247481799999,261.3247481799999,261.3247481799999,1,-1,rojo,1,['N_A'],262.6771576230003,262.6771576230003,262.6771576230003,262.6771576230003,264.71197064399985,264.71197064399985,264.71197064399985,264.71197064399985,264.71197064399985,264.71197064399985,264.71197064399985,264.71197064399985,266.7479185399998,266.7479185399998,266.7479185399998,266.7479185399998,,,,,,,,,,,,,,,,,,,,,,,,,,,,,,2,012,2022-09-27_15h32.42.392,test2,2022.2.4,59.98840724019541,
0,0,0,0,36,0,36,0,266.7479185399998,266.7479185399998,266.7479185399998,266.7479185399998,266.7479185399998,266.7479185399998,266.7479185399998,-1,-1,azul,0,['N_B'],269.3838196630004,269.3838196630004,269.3838196630004,269.3838196630004,271.41985830700014,271.41985830700014,271.41985830700014,271.41985830700014,271.41985830700014,271.41985830700014,271.41985830700014,271.41985830700014,273.454968905,273.454968905,273.454968905,273.454968905,,,,,,,,,,,,,,,,,,,,,,,,,,,,,,2,012,2022-09-27_15h32.42.392,test2,2022.2.4,59.98840724019541,
0,0,0,0,37,0,37,0,273.454968905,273.454968905,273.454968905,273.454968905,273.454968905,273.454968905,273.454968905,1,-1,azul,0,['N_A'],274.9732792670002,274.9732792670002,274.9732792670002,274.9732792670002,277.0092844760002,277.0092844760002,277.0092844760002,277.0092844760002,277.0092844760002,277.0092844760002,277.0092844760002,277.0092844760002,279.0443018289998,279.0443018289998,279.0443018289998,279.0443018289998,,,,,,,,,,,,,,,,,,,,,,,,,,,,,,2,012,2022-09-27_15h32.42.392,test2,2022.2.4,59.98840724019541,
0,0,0,0,38,0,38,0,279.0443018289998,279.0443018289998,279.0443018289998,279.0443018289998,279.0443018289998,279.0443018289998,279.0443018289998,-1,-1,azul,1,['N_A'],280.42909061499995,280.42909061499995,280.42909061499995,280.42909061499995,282.4649988500005,282.4649988500005,282.4649988500005,282.4649988500005,282.4649988500005,282.4649988500005,282.4649988500005,282.4649988500005,284.5010790080005,284.5010790080005,284.5010790080005,284.5010790080005,,,,,,,,,,,,,,,,,,,,,,,,,,,,,,2,012,2022-09-27_15h32.42.392,test2,2022.2.4,59.98840724019541,
0,0,0,0,39,0,39,0,284.5010790080005,284.5010790080005,284.5010790080005,284.5010790080005,284.5010790080005,284.5010790080005,284.5010790080005,1,-1,rojo,1,['N_A'],285.81865143899995,285.81865143899995,285.81865143899995,285.81865143899995,287.8540291899999,287.8540291899999,287.8540291899999,287.8540291899999,287.8540291899999,287.8540291899999,287.8540291899999,287.8540291899999,289.89037225500033,289.89037225500033,289.89037225500033,289.89037225500033,,,,,,,,,,,,,,,,,,,,,,,,,,,,,,2,012,2022-09-27_15h32.42.392,test2,2022.2.4,59.98840724019541,
0,0,0,0,40,0,40,0,289.89037225500033,289.89037225500033,289.89037225500033,289.89037225500033,289.89037225500033,289.89037225500033,289.89037225500033,1,-1,rojo,1,['N_A'],291.29104720099986,291.29104720099986,291.29104720099986,291.29104720099986,293.32729495700005,293.32729495700005,293.32729495700005,293.32729495700005,293.32729495700005,293.32729495700005,293.32729495700005,293.32729495700005,295.3622328720003,295.3622328720003,295.3622328720003,295.3622328720003,,,,,,,,,,,,,,,,,,,,,,,,,,,,,,2,012,2022-09-27_15h32.42.392,test2,2022.2.4,59.98840724019541,
0,0,0,0,41,0,41,0,295.3622328720003,295.3622328720003,295.3622328720003,295.3622328720003,295.3622328720003,295.3622328720003,295.3622328720003,1,-1,rojo,1,['N_A'],297.1479915110003,297.1479915110003,297.1479915110003,297.1479915110003,299.1839892859998,299.1839892859998,299.1839892859998,299.1839892859998,299.1839892859998,299.1839892859998,299.1839892859998,299.1839892859998,301.2195933740004,301.2195933740004,301.2195933740004,301.2195933740004,,,,,,,,,,,,,,,,,,,,,,,,,,,,,,2,012,2022-09-27_15h32.42.392,test2,2022.2.4,59.98840724019541,
0,0,0,0,42,0,42,0,301.2195933740004,301.2195933740004,301.2195933740004,301.2195933740004,301.2195933740004,301.2195933740004,301.2195933740004,1,-1,rojo,0,['N_B'],302.9879590649998,302.9879590649998,302.9879590649998,302.9879590649998,305.02361482000015,305.02361482000015,305.02361482000015,305.02361482000015,305.02361482000015,305.02361482000015,305.02361482000015,305.02361482000015,307.0587842590003,307.0587842590003,307.0587842590003,307.0587842590003,,,,,,,,,,,,,,,,,,,,,,,,,,,,,,2,012,2022-09-27_15h32.42.392,test2,2022.2.4,59.98840724019541,
0,0,0,0,43,0,43,0,307.0587842590003,307.0587842590003,307.0587842590003,307.0587842590003,307.0587842590003,307.0587842590003,307.0587842590003,1,-1,azul,1,['N_B'],308.41045690400006,308.41045690400006,308.41045690400006,308.41045690400006,310.44542067400016,310.44542067400016,310.44542067400016,310.44542067400016,310.44542067400016,310.44542067400016,310.44542067400016,310.44542067400016,312.48224438000034,312.48224438000034,312.48224438000034,312.48224438000034,,,,,,,,,,,,,,,,,,,,,,,,,,,,,,2,012,2022-09-27_15h32.42.392,test2,2022.2.4,59.98840724019541,
0,0,0,0,44,0,44,0,312.48224438000034,312.48224438000034,312.48224438000034,312.48224438000034,312.48224438000034,312.48224438000034,312.48224438000034,1,1,azul,1,['N_B'],314.1000782480005,314.1000782480005,314.1000782480005,314.1000782480005,316.1355010670004,316.1355010670004,316.1355010670004,316.1355010670004,316.1355010670004,316.1355010670004,316.1355010670004,316.1355010670004,318.1717991260002,318.1717991260002,318.1717991260002,318.1717991260002,,,,,,,,,,,,,,,,,,,,,,,,,,,,,,2,012,2022-09-27_15h32.42.392,test2,2022.2.4,59.98840724019541,
0,0,0,0,45,0,45,0,318.1717991260002,318.1717991260002,318.1717991260002,318.1717991260002,318.1717991260002,318.1717991260002,318.1717991260002,-1,-1,rojo,1,['N_B'],319.48981294199984,319.48981294199984,319.48981294199984,319.48981294199984,321.5252123979999,321.5252123979999,321.5252123979999,321.5252123979999,321.5252123979999,321.5252123979999,321.5252123979999,321.5252123979999,323.56072148600015,323.56072148600015,323.56072148600015,323.56072148600015,,,,,,,,,,,,,,,,,,,,,,,,,,,,,,2,012,2022-09-27_15h32.42.392,test2,2022.2.4,59.98840724019541,
0,0,0,0,46,0,46,0,323.56072148600015,323.56072148600015,323.56072148600015,323.56072148600015,323.56072148600015,323.56072148600015,323.56072148600015,-1,-1,rojo,1,['N_B'],324.9115624370006,324.9115624370006,324.9115624370006,324.9115624370006,326.94754726500014,326.94754726500014,326.94754726500014,326.94754726500014,326.94754726500014,326.94754726500014,326.94754726500014,326.94754726500014,328.9829580149999,328.9829580149999,328.9829580149999,328.9829580149999,,,,,,,,,,,,,,,,,,,,,,,,,,,,,,2,012,2022-09-27_15h32.42.392,test2,2022.2.4,59.98840724019541,
0,0,0,0,47,0,47,0,328.9829580149999,328.9829580149999,328.9829580149999,328.9829580149999,328.9829580149999,328.9829580149999,328.9829580149999,1,1,azul,1,['N_B'],330.3676351009999,330.3676351009999,330.3676351009999,330.3676351009999,332.40389061800033,332.40389061800033,332.40389061800033,332.40389061800033,332.40389061800033,332.40389061800033,332.40389061800033,332.40389061800033,334.43875136600036,334.43875136600036,334.43875136600036,334.43875136600036,,,,,,,,,,,,,,,,,,,,,,,,,,,,,,2,012,2022-09-27_15h32.42.392,test2,2022.2.4,59.98840724019541,
0,0,0,0,48,0,48,0,334.43875136600036,334.43875136600036,334.43875136600036,334.43875136600036,334.43875136600036,334.43875136600036,334.43875136600036,1,-1,azul,1,['N_B'],335.75752968100005,335.75752968100005,335.75752968100005,335.75752968100005,337.79322647200024,337.79322647200024,337.79322647200024,337.79322647200024,337.79322647200024,337.79322647200024,337.79322647200024,337.79322647200024,339.82802942000035,339.82802942000035,339.82802942000035,339.82802942000035,,,,,,,,,,,,,,,,,,,,,,,,,,,,,,2,012,2022-09-27_15h32.42.392,test2,2022.2.4,59.98840724019541,
0,0,0,0,49,0,49,0,339.82802942000035,339.82802942000035,339.82802942000035,339.82802942000035,339.82802942000035,339.82802942000035,339.82802942000035,1,-1,azul,1,['N_B'],341.1966689790006,341.1966689790006,341.1966689790006,341.1966689790006,343.23226410700045,343.23226410700045,343.23226410700045,343.23226410700045,343.23226410700045,343.23226410700045,343.23226410700045,343.23226410700045,345.26773382100055,345.26773382100055,345.26773382100055,345.26773382100055,,,,,,,,,,,,,,,,,,,,,,,,,,,,,,2,012,2022-09-27_15h32.42.392,test2,2022.2.4,59.98840724019541,
0,0,0,0,50,0,50,0,345.26773382100055,345.26773382100055,345.26773382100055,345.26773382100055,345.26773382100055,345.26773382100055,345.26773382100055,1,-1,azul,1,['N_B'],346.6526512139999,346.6526512139999,346.6526512139999,346.6526512139999,348.68822544400064,348.68822544400064,348.68822544400064,348.68822544400064,348.68822544400064,348.68822544400064,348.68822544400064,348.68822544400064,350.7236002139998,350.7236002139998,350.7236002139998,350.7236002139998,,,,,,,,,,,,,,,,,,,,,,,,,,,,,,2,012,2022-09-27_15h32.42.392,test2,2022.2.4,59.98840724019541,
0,0,0,0,51,0,51,0,350.7236002139998,350.7236002139998,350.7236002139998,350.7236002139998,350.7236002139998,350.7236002139998,350.7236002139998,1,1,azul,1,['N_B'],352.12520761999986,352.12520761999986,352.12520761999986,352.12520761999986,354.14449572300055,354.14449572300055,354.14449572300055,354.14449572300055,354.14449572300055,354.14449572300055,354.14449572300055,354.14449572300055,356.1802787180004,356.1802787180004,356.1802787180004,356.1802787180004,,,,,,,,,,,,,,,,,,,,,,,,,,,,,,2,012,2022-09-27_15h32.42.392,test2,2022.2.4,59.98840724019541,
0,0,0,0,52,0,52,0,356.1802787180004,356.1802787180004,356.1802787180004,356.1802787180004,356.1802787180004,356.1802787180004,356.1802787180004,1,1,azul,1,['N_B'],357.6315987730004,357.6315987730004,357.6315987730004,357.6315987730004,359.6665852870001,359.6665852870001,359.6665852870001,359.6665852870001,359.6665852870001,359.6665852870001,359.6665852870001,359.6665852870001,361.7025512119999,361.7025512119999,361.7025512119999,361.7025512119999,,,,,,,,,,,,,,,,,,,,,,,,,,,,,,2,012,2022-09-27_15h32.42.392,test2,2022.2.4,59.98840724019541,
0,0,0,0,53,0,53,0,361.7025512119999,361.7025512119999,361.7025512119999,361.7025512119999,361.7025512119999,361.7025512119999,361.7025512119999,1,-1,azul,1,['N_B'],363.22092547600005,363.22092547600005,363.22092547600005,363.22092547600005,365.2567412770004,365.2567412770004,365.2567412770004,365.2567412770004,365.2567412770004,365.2567412770004,365.2567412770004,365.2567412770004,367.2920410500001,367.2920410500001,367.2920410500001,367.2920410500001,,,,,,,,,,,,,,,,,,,,,,,,,,,,,,2,012,2022-09-27_15h32.42.392,test2,2022.2.4,59.98840724019541,
0,0,0,0,54,0,54,0,367.2920410500001,367.2920410500001,367.2920410500001,367.2920410500001,367.2920410500001,367.2920410500001,367.2920410500001,1,-1,azul,1,['N_B'],368.6774318180005,368.6774318180005,368.6774318180005,368.6774318180005,370.7130804059998,370.7130804059998,370.7130804059998,370.7130804059998,370.7130804059998,370.7130804059998,370.7130804059998,370.7130804059998,372.7485735420005,372.7485735420005,372.7485735420005,372.7485735420005,,,,,,,,,,,,,,,,,,,,,,,,,,,,,,2,012,2022-09-27_15h32.42.392,test2,2022.2.4,59.98840724019541,
0,0,0,0,55,0,55,0,372.7485735420005,372.7485735420005,372.7485735420005,372.7485735420005,372.7485735420005,372.7485735420005,372.7485735420005,1,-1,azul,1,['N_B'],374.14995225300027,374.14995225300027,374.14995225300027,374.14995225300027,376.18526486000064,376.18526486000064,376.18526486000064,376.18526486000064,376.18526486000064,376.18526486000064,376.18526486000064,376.18526486000064,378.22023592200003,378.22023592200003,378.22023592200003,378.22023592200003,,,,,,,,,,,,,,,,,,,,,,,,,,,,,,2,012,2022-09-27_15h32.42.392,test2,2022.2.4,59.98840724019541,
0,0,0,0,56,0,56,0,378.22023592200003,378.22023592200003,378.22023592200003,378.22023592200003,378.22023592200003,378.22023592200003,378.22023592200003,1,-1,azul,1,['N_B'],379.70557208900027,379.70557208900027,379.70557208900027,379.70557208900027,381.7416626240001,381.7416626240001,381.7416626240001,381.7416626240001,381.7416626240001,381.7416626240001,381.7416626240001,381.7416626240001,383.7764356960006,383.7764356960006,383.7764356960006,383.7764356960006,,,,,,,,,,,,,,,,,,,,,,,,,,,,,,2,012,2022-09-27_15h32.42.392,test2,2022.2.4,59.98840724019541,
0,0,0,0,57,0,57,0,383.7764356960006,383.7764356960006,383.7764356960006,383.7764356960006,383.7764356960006,383.7764356960006,383.7764356960006,-1,-1,rojo,1,['N_B'],385.1785864399999,385.1785864399999,385.1785864399999,385.1785864399999,387.2147451540004,387.2147451540004,387.2147451540004,387.2147451540004,387.2147451540004,387.2147451540004,387.2147451540004,387.2147451540004,389.249228269,389.249228269,389.249228269,389.249228269,,,,,,,,,,,,,,,,,,,,,,,,,,,,,,2,012,2022-09-27_15h32.42.392,test2,2022.2.4,59.98840724019541,
0,0,0,0,58,0,58,0,389.249228269,389.249228269,389.249228269,389.249228269,389.249228269,389.249228269,389.249228269,1,-1,azul,0,['N_A'],390.6344615750004,390.6344615750004,390.6344615750004,390.6344615750004,392.66939899800036,392.66939899800036,392.66939899800036,392.66939899800036,392.66939899800036,392.66939899800036,392.66939899800036,392.66939899800036,394.70606269200016,394.70606269200016,394.70606269200016,394.70606269200016,,,,,,,,,,,,,,,,,,,,,,,,,,,,,,2,012,2022-09-27_15h32.42.392,test2,2022.2.4,59.98840724019541,
0,0,0,0,59,0,59,0,394.70606269200016,394.70606269200016,394.70606269200016,394.70606269200016,394.70606269200016,394.70606269200016,394.70606269200016,1,-1,rojo,1,['N_A'],396.15716017700015,396.15716017700015,396.15716017700015,396.15716017700015,398.1928718300005,398.1928718300005,398.1928718300005,398.1928718300005,398.1928718300005,398.1928718300005,398.1928718300005,398.1928718300005,400.22868400400057,400.22868400400057,400.22868400400057,400.22868400400057,,,,,,,,,,,,,,,,,,,,,,,,,,,,,,2,012,2022-09-27_15h32.42.392,test2,2022.2.4,59.98840724019541,
0,0,0,0,60,0,60,0,400.22868400400057,400.22868400400057,400.22868400400057,400.22868400400057,400.22868400400057,400.22868400400057,400.22868400400057,1,1,rojo,1,['N_A'],401.81314380300046,401.81314380300046,401.81314380300046,401.81314380300046,403.84914266099986,403.84914266099986,403.84914266099986,403.84914266099986,403.84914266099986,403.84914266099986,403.84914266099986,403.84914266099986,405.8841581200004,405.8841581200004,405.8841581200004,405.8841581200004,,,,,,,,,,,,,,,,,,,,,,,,,,,,,,2,012,2022-09-27_15h32.42.392,test2,2022.2.4,59.98840724019541,
0,0,0,0,61,0,61,0,405.8841581200004,405.8841581200004,405.8841581200004,405.8841581200004,405.8841581200004,405.8841581200004,405.8841581200004,1,-1,rojo,1,['N_A'],407.26980562600056,407.26980562600056,407.26980562600056,407.26980562600056,409.30480490599984,409.30480490599984,409.30480490599984,409.30480490599984,409.30480490599984,409.30480490599984,409.30480490599984,409.30480490599984,411.34041982800045,411.34041982800045,411.34041982800045,411.34041982800045,,,,,,,,,,,,,,,,,,,,,,,,,,,,,,2,012,2022-09-27_15h32.42.392,test2,2022.2.4,59.98840724019541,
0,0,0,0,62,0,62,0,411.34041982800045,411.34041982800045,411.34041982800045,411.34041982800045,411.34041982800045,411.34041982800045,411.34041982800045,1,-1,rojo,0,['N_B'],412.6924255869999,412.6924255869999,412.6924255869999,412.6924255869999,414.72774718599976,414.72774718599976,414.72774718599976,414.72774718599976,414.72774718599976,414.72774718599976,414.72774718599976,414.72774718599976,416.7629422760001,416.7629422760001,416.7629422760001,416.7629422760001,,,,,,,,,,,,,,,,,,,,,,,,,,,,,,2,012,2022-09-27_15h32.42.392,test2,2022.2.4,59.98840724019541,
0,0,0,0,63,0,63,0,416.7629422760001,416.7629422760001,416.7629422760001,416.7629422760001,416.7629422760001,416.7629422760001,416.7629422760001,1,-1,azul,1,['N_B'],418.14835621100065,418.14835621100065,418.14835621100065,418.14835621100065,420.1836968329999,420.1836968329999,420.1836968329999,420.1836968329999,420.1836968329999,420.1836968329999,420.1836968329999,420.1836968329999,422.2194694079999,422.2194694079999,422.2194694079999,422.2194694079999,,,,,,,,,,,,,,,,,,,,,,,,,,,,,,2,012,2022-09-27_15h32.42.392,test2,2022.2.4,59.98840724019541,
0,0,0,0,64,0,64,0,422.2194694079999,422.2194694079999,422.2194694079999,422.2194694079999,422.2194694079999,422.2194694079999,422.2194694079999,1,-1,azul,1,['N_B'],423.57125014400026,423.57125014400026,423.57125014400026,423.57125014400026,425.6071044340006,425.6071044340006,425.6071044340006,425.6071044340006,425.6071044340006,425.6071044340006,425.6071044340006,425.6071044340006,427.64178104799976,427.64178104799976,427.64178104799976,427.64178104799976,,,,,,,,,,,,,,,,,,,,,,,,,,,,,,2,012,2022-09-27_15h32.42.392,test2,2022.2.4,59.98840724019541,
0,0,0,0,65,0,65,0,427.64178104799976,427.64178104799976,427.64178104799976,427.64178104799976,427.64178104799976,427.64178104799976,427.64178104799976,1,-1,azul,0,['N_A'],429.06004478400064,429.06004478400064,429.06004478400064,429.06004478400064,431.09635135900044,431.09635135900044,431.09635135900044,431.09635135900044,431.09635135900044,431.09635135900044,431.09635135900044,431.09635135900044,433.13197812399994,433.13197812399994,433.13197812399994,433.13197812399994,,,,,,,,,,,,,,,,,,,,,,,,,,,,,,2,012,2022-09-27_15h32.42.392,test2,2022.2.4,59.98840724019541,
0,0,0,0,66,0,66,0,433.13197812399994,433.13197812399994,433.13197812399994,433.13197812399994,433.13197812399994,433.13197812399994,433.13197812399994,1,1,rojo,1,['N_A'],434.51609325000027,434.51609325000027,434.51609325000027,434.51609325000027,436.55193670800054,436.55193670800054,436.55193670800054,436.55193670800054,436.55193670800054,436.55193670800054,436.55193670800054,436.55193670800054,438.5869730530003,438.5869730530003,438.5869730530003,438.5869730530003,,,,,,,,,,,,,,,,,,,,,,,,,,,,,,2,012,2022-09-27_15h32.42.392,test2,2022.2.4,59.98840724019541,
0,0,0,0,67,0,67,0,438.5869730530003,438.5869730530003,438.5869730530003,438.5869730530003,438.5869730530003,438.5869730530003,438.5869730530003,-1,-1,azul,0,['N_B'],440.4231687239999,440.4231687239999,440.4231687239999,440.4231687239999,442.45763108900064,442.45763108900064,442.45763108900064,442.45763108900064,442.45763108900064,442.45763108900064,442.45763108900064,442.45763108900064,444.49373019999985,444.49373019999985,444.49373019999985,444.49373019999985,,,,,,,,,,,,,,,,,,,,,,,,,,,,,,2,012,2022-09-27_15h32.42.392,test2,2022.2.4,59.98840724019541,
0,0,0,0,68,0,68,0,444.49373019999985,444.49373019999985,444.49373019999985,444.49373019999985,444.49373019999985,444.49373019999985,444.49373019999985,1,-1,azul,0,['N_A'],446.1126045350002,446.1126045350002,446.1126045350002,446.1126045350002,448.14838372899976,448.14838372899976,448.14838372899976,448.14838372899976,448.14838372899976,448.14838372899976,448.14838372899976,448.14838372899976,450.18394825500036,450.18394825500036,450.18394825500036,450.18394825500036,,,,,,,,,,,,,,,,,,,,,,,,,,,,,,2,012,2022-09-27_15h32.42.392,test2,2022.2.4,59.98840724019541,
0,0,0,0,69,0,69,0,450.18394825500036,450.18394825500036,450.18394825500036,450.18394825500036,450.18394825500036,450.18394825500036,450.18394825500036,-1,1,azul,0,['N_B'],451.8690136260002,451.8690136260002,451.8690136260002,451.8690136260002,453.88785275600003,453.88785275600003,453.88785275600003,453.88785275600003,453.88785275600003,453.88785275600003,453.88785275600003,453.88785275600003,455.92365575799977,455.92365575799977,455.92365575799977,455.92365575799977,,,,,,,,,,,,,,,,,,,,,,,,,,,,,,2,012,2022-09-27_15h32.42.392,test2,2022.2.4,59.98840724019541,
0,0,0,0,70,0,70,0,455.92365575799977,455.92365575799977,455.92365575799977,455.92365575799977,455.92365575799977,455.92365575799977,455.92365575799977,1,1,azul,0,['N_A'],457.59159564499987,457.59159564499987,457.59159564499987,457.59159564499987,459.6277326670006,459.6277326670006,459.6277326670006,459.6277326670006,459.6277326670006,459.6277326670006,459.6277326670006,459.6277326670006,461.66261633400063,461.66261633400063,461.66261633400063,461.66261633400063,,,,,,,,,,,,,,,,,,,,,,,,,,,,,,2,012,2022-09-27_15h32.42.392,test2,2022.2.4,59.98840724019541,
0,0,0,0,71,0,71,0,461.66261633400063,461.66261633400063,461.66261633400063,461.66261633400063,461.66261633400063,461.66261633400063,461.66261633400063,1,-1,rojo,0,['N_B'],463.11448327000016,463.11448327000016,463.11448327000016,463.11448327000016,465.1500369760006,465.1500369760006,465.1500369760006,465.1500369760006,465.1500369760006,465.1500369760006,465.1500369760006,465.1500369760006,467.1858711300001,467.1858711300001,467.1858711300001,467.1858711300001,,,,,,,,,,,,,,,,,,,,,,,,,,,,,,2,012,2022-09-27_15h32.42.392,test2,2022.2.4,59.98840724019541,
0,0,0,0,72,0,72,0,467.1858711300001,467.1858711300001,467.1858711300001,467.1858711300001,467.1858711300001,467.1858711300001,467.1858711300001,-1,1,rojo,0,['N_A'],468.9376758899998,468.9376758899998,468.9376758899998,468.9376758899998,470.97315602100025,470.97315602100025,470.97315602100025,470.97315602100025,470.97315602100025,470.97315602100025,470.97315602100025,470.97315602100025,473.0081903680002,473.0081903680002,473.0081903680002,473.0081903680002,,,,,,,,,,,,,,,,,,,,,,,,,,,,,,2,012,2022-09-27_15h32.42.392,test2,2022.2.4,59.98840724019541,
0,0,0,0,73,0,73,0,473.0081903680002,473.0081903680002,473.0081903680002,473.0081903680002,473.0081903680002,473.0081903680002,473.0081903680002,1,-1,rojo,0,['N_B'],474.460448197,474.460448197,474.460448197,474.460448197,476.4957126250001,476.4957126250001,476.4957126250001,476.4957126250001,476.4957126250001,476.4957126250001,476.4957126250001,476.4957126250001,478.5312182180005,478.5312182180005,478.5312182180005,478.5312182180005,,,,,,,,,,,,,,,,,,,,,,,,,,,,,,2,012,2022-09-27_15h32.42.392,test2,2022.2.4,59.98840724019541,
0,0,0,0,74,0,74,0,478.5312182180005,478.5312182180005,478.5312182180005,478.5312182180005,478.5312182180005,478.5312182180005,478.5312182180005,-1,-1,rojo,1,['N_B'],480.1165464450005,480.1165464450005,480.1165464450005,480.1165464450005,482.1523572470005,482.1523572470005,482.1523572470005,482.1523572470005,482.1523572470005,482.1523572470005,482.1523572470005,482.1523572470005,484.1881617549998,484.1881617549998,484.1881617549998,484.1881617549998,,,,,,,,,,,,,,,,,,,,,,,,,,,,,,2,012,2022-09-27_15h32.42.392,test2,2022.2.4,59.98840724019541,
0,0,0,0,75,0,75,0,484.1881617549998,484.1881617549998,484.1881617549998,484.1881617549998,484.1881617549998,484.1881617549998,484.1881617549998,1,1,azul,0,['N_A'],486.3065100140002,486.3065100140002,486.3065100140002,486.3065100140002,488.3432160450002,488.3432160450002,488.3432160450002,488.3432160450002,488.3432160450002,488.3432160450002,488.3432160450002,488.3432160450002,490.37761623999995,490.37761623999995,490.37761623999995,490.37761623999995,,,,,,,,,,,,,,,,,,,,,,,,,,,,,,2,012,2022-09-27_15h32.42.392,test2,2022.2.4,59.98840724019541,
0,0,0,0,76,0,76,0,490.37761623999995,490.37761623999995,490.37761623999995,490.37761623999995,490.37761623999995,490.37761623999995,490.37761623999995,1,-1,rojo,0,['N_B'],491.79581613699975,491.79581613699975,491.79581613699975,491.79581613699975,493.8318653309998,493.8318653309998,493.8318653309998,493.8318653309998,493.8318653309998,493.8318653309998,493.8318653309998,493.8318653309998,495.86680476200036,495.86680476200036,495.86680476200036,495.86680476200036,,,,,,,,,,,,,,,,,,,,,,,,,,,,,,2,012,2022-09-27_15h32.42.392,test2,2022.2.4,59.98840724019541,
0,0,0,0,77,0,77,0,495.86680476200036,495.86680476200036,495.86680476200036,495.86680476200036,495.86680476200036,495.86680476200036,495.86680476200036,1,-1,azul,1,['N_B'],497.2857660059999,497.2857660059999,497.2857660059999,497.2857660059999,499.32121445400026,499.32121445400026,499.32121445400026,499.32121445400026,499.32121445400026,499.32121445400026,499.32121445400026,499.32121445400026,501.3568941800004,501.3568941800004,501.3568941800004,501.3568941800004,,,,,,,,,,,,,,,,,,,,,,,,,,,,,,2,012,2022-09-27_15h32.42.392,test2,2022.2.4,59.98840724019541,
0,0,0,0,78,0,78,0,501.3568941800004,501.3568941800004,501.3568941800004,501.3568941800004,501.3568941800004,501.3568941800004,501.3568941800004,-1,1,rojo,0,['N_A'],503.324959779,503.324959779,503.324959779,503.324959779,505.36122137799975,505.36122137799975,505.36122137799975,505.36122137799975,505.36122137799975,505.36122137799975,505.36122137799975,505.36122137799975,507.39633323700036,507.39633323700036,507.39633323700036,507.39633323700036,,,,,,,,,,,,,,,,,,,,,,,,,,,,,,2,012,2022-09-27_15h32.42.392,test2,2022.2.4,59.98840724019541,
0,0,0,0,79,0,79,0,507.39633323700036,507.39633323700036,507.39633323700036,507.39633323700036,507.39633323700036,507.39633323700036,507.39633323700036,-1,-1,azul,1,['N_A'],508.84844407699984,508.84844407699984,508.84844407699984,508.84844407699984,510.88416848399993,510.88416848399993,510.88416848399993,510.88416848399993,510.88416848399993,510.88416848399993,510.88416848399993,510.88416848399993,512.9189134059998,512.9189134059998,512.9189134059998,512.9189134059998,,,,,,,,,,,,,,,,,,,,,,,,,,,,,,2,012,2022-09-27_15h32.42.392,test2,2022.2.4,59.98840724019541,
0,0,0,0,80,0,80,0,512.9189134059998,512.9189134059998,512.9189134059998,512.9189134059998,512.9189134059998,512.9189134059998,512.9189134059998,1,-1,rojo,1,['N_A'],514.271221043,514.271221043,514.271221043,514.271221043,516.3065340410003,516.3065340410003,516.3065340410003,516.3065340410003,516.3065340410003,516.3065340410003,516.3065340410003,516.3065340410003,518.3423871519999,518.3423871519999,518.3423871519999,518.3423871519999,,,,,,,,,,,,,,,,,,,,,,,,,,,,,,2,012,2022-09-27_15h32.42.392,test2,2022.2.4,59.98840724019541,
0,0,0,0,81,0,81,0,518.3423871519999,518.3423871519999,518.3423871519999,518.3423871519999,518.3423871519999,518.3423871519999,518.3423871519999,-1,1,azul,1,['N_A'],519.7268121490006,519.7268121490006,519.7268121490006,519.7268121490006,521.7460424660003,521.7460424660003,521.7460424660003,521.7460424660003,521.7460424660003,521.7460424660003,521.7460424660003,521.7460424660003,523.7809657650005,523.7809657650005,523.7809657650005,523.7809657650005,,,,,,,,,,,,,,,,,,,,,,,,,,,,,,2,012,2022-09-27_15h32.42.392,test2,2022.2.4,59.98840724019541,
0,0,0,0,82,0,82,0,523.7809657650005,523.7809657650005,523.7809657650005,523.7809657650005,523.7809657650005,523.7809657650005,523.7809657650005,-1,1,azul,0,['N_B'],525.2160064170002,525.2160064170002,525.2160064170002,525.2160064170002,527.2512076580006,527.2512076580006,527.2512076580006,527.2512076580006,527.2512076580006,527.2512076580006,527.2512076580006,527.2512076580006,529.2870217959999,529.2870217959999,529.2870217959999,529.2870217959999,,,,,,,,,,,,,,,,,,,,,,,,,,,,,,2,012,2022-09-27_15h32.42.392,test2,2022.2.4,59.98840724019541,
0,0,0,0,83,0,83,0,529.2870217959999,529.2870217959999,529.2870217959999,529.2870217959999,529.2870217959999,529.2870217959999,529.2870217959999,1,-1,azul,1,['N_B'],530.6722647699999,530.6722647699999,530.6722647699999,530.6722647699999,532.7083118950004,532.7083118950004,532.7083118950004,532.7083118950004,532.7083118950004,532.7083118950004,532.7083118950004,532.7083118950004,534.7433754180001,534.7433754180001,534.7433754180001,534.7433754180001,,,,,,,,,,,,,,,,,,,,,,,,,,,,,,2,012,2022-09-27_15h32.42.392,test2,2022.2.4,59.98840724019541,
0,0,0,0,84,0,84,0,534.7433754180001,534.7433754180001,534.7433754180001,534.7433754180001,534.7433754180001,534.7433754180001,534.7433754180001,1,-1,azul,1,['N_B'],536.128307858,536.128307858,536.128307858,536.128307858,538.1642140499998,538.1642140499998,538.1642140499998,538.1642140499998,538.1642140499998,538.1642140499998,538.1642140499998,538.1642140499998,540.1995310330003,540.1995310330003,540.1995310330003,540.1995310330003,,,,,,,,,,,,,,,,,,,,,,,,,,,,,,2,012,2022-09-27_15h32.42.392,test2,2022.2.4,59.98840724019541,
0,0,0,0,85,0,85,0,540.1995310330003,540.1995310330003,540.1995310330003,540.1995310330003,540.1995310330003,540.1995310330003,540.1995310330003,1,-1,azul,0,['N_A'],541.6347126649998,541.6347126649998,541.6347126649998,541.6347126649998,543.6700034229998,543.6700034229998,543.6700034229998,543.6700034229998,543.6700034229998,543.6700034229998,543.6700034229998,543.6700034229998,545.7052656160004,545.7052656160004,545.7052656160004,545.7052656160004,,,,,,,,,,,,,,,,,,,,,,,,,,,,,,2,012,2022-09-27_15h32.42.392,test2,2022.2.4,59.98840724019541,
0,0,0,0,86,0,86,0,545.7052656160004,545.7052656160004,545.7052656160004,545.7052656160004,545.7052656160004,545.7052656160004,545.7052656160004,1,-1,rojo,1,['N_A'],547.1242189100003,547.1242189100003,547.1242189100003,547.1242189100003,549.1590231159998,549.1590231159998,549.1590231159998,549.1590231159998,549.1590231159998,549.1590231159998,549.1590231159998,549.1590231159998,551.1946001759998,551.1946001759998,551.1946001759998,551.1946001759998,,,,,,,,,,,,,,,,,,,,,,,,,,,,,,2,012,2022-09-27_15h32.42.392,test2,2022.2.4,59.98840724019541,
0,0,0,0,87,0,87,0,551.1946001759998,551.1946001759998,551.1946001759998,551.1946001759998,551.1946001759998,551.1946001759998,551.1946001759998,-1,-1,azul,0,['N_B'],552.8465992780002,552.8465992780002,552.8465992780002,552.8465992780002,554.8829265290005,554.8829265290005,554.8829265290005,554.8829265290005,554.8829265290005,554.8829265290005,554.8829265290005,554.8829265290005,556.9181562350004,556.9181562350004,556.9181562350004,556.9181562350004,,,,,,,,,,,,,,,,,,,,,,,,,,,,,,2,012,2022-09-27_15h32.42.392,test2,2022.2.4,59.98840724019541,
0,0,0,0,88,0,88,0,556.9181562350004,556.9181562350004,556.9181562350004,556.9181562350004,556.9181562350004,556.9181562350004,556.9181562350004,1,-1,azul,1,['N_B'],559.0038954359998,559.0038954359998,559.0038954359998,559.0038954359998,561.039351245,561.039351245,561.039351245,561.039351245,561.039351245,561.039351245,561.039351245,561.039351245,563.0747943380002,563.0747943380002,563.0747943380002,563.0747943380002,,,,,,,,,,,,,,,,,,,,,,,,,,,,,,2,012,2022-09-27_15h32.42.392,test2,2022.2.4,59.98840724019541,
0,0,0,0,89,0,89,0,563.0747943380002,563.0747943380002,563.0747943380002,563.0747943380002,563.0747943380002,563.0747943380002,563.0747943380002,1,-1,azul,0,['N_A'],564.4759827590005,564.4759827590005,564.4759827590005,564.4759827590005,566.5118492379997,566.5118492379997,566.5118492379997,566.5118492379997,566.5118492379997,566.5118492379997,566.5118492379997,566.5118492379997,568.5480680890005,568.5480680890005,568.5480680890005,568.5480680890005,,,,,,,,,,,,,,,,,,,,,,,,,,,,,,2,012,2022-09-27_15h32.42.392,test2,2022.2.4,59.98840724019541,
0,0,0,0,90,0,90,0,568.5480680890005,568.5480680890005,568.5480680890005,568.5480680890005,568.5480680890005,568.5480680890005,568.5480680890005,1,-1,rojo,1,['N_A'],569.9986775570005,569.9986775570005,569.9986775570005,569.9986775570005,572.0343047619999,572.0343047619999,572.0343047619999,572.0343047619999,572.0343047619999,572.0343047619999,572.0343047619999,572.0343047619999,574.0702362190004,574.0702362190004,574.0702362190004,574.0702362190004,,,,,,,,,,,,,,,,,,,,,,,,,,,,,,2,012,2022-09-27_15h32.42.392,test2,2022.2.4,59.98840724019541,
0,0,0,0,91,0,91,0,574.0702362190004,574.0702362190004,574.0702362190004,574.0702362190004,574.0702362190004,574.0702362190004,574.0702362190004,1,-1,rojo,1,['N_A'],575.4550350360005,575.4550350360005,575.4550350360005,575.4550350360005,577.4906132639999,577.4906132639999,577.4906132639999,577.4906132639999,577.4906132639999,577.4906132639999,577.4906132639999,577.4906132639999,579.5258754779998,579.5258754779998,579.5258754779998,579.5258754779998,,,,,,,,,,,,,,,,,,,,,,,,,,,,,,2,012,2022-09-27_15h32.42.392,test2,2022.2.4,59.98840724019541,
0,0,0,0,92,0,92,0,579.5258754779998,579.5258754779998,579.5258754779998,579.5258754779998,579.5258754779998,579.5258754779998,579.5258754779998,-1,-1,azul,1,['N_A'],580.961488897,580.961488897,580.961488897,580.961488897,582.9966634820003,582.9966634820003,582.9966634820003,582.9966634820003,582.9966634820003,582.9966634820003,582.9966634820003,582.9966634820003,585.0325990870006,585.0325990870006,585.0325990870006,585.0325990870006,,,,,,,,,,,,,,,,,,,,,,,,,,,,,,2,012,2022-09-27_15h32.42.392,test2,2022.2.4,59.98840724019541,
0,0,0,0,93,0,93,0,585.0325990870006,585.0325990870006,585.0325990870006,585.0325990870006,585.0325990870006,585.0325990870006,585.0325990870006,1,-1,rojo,1,['N_A'],586.4669229390001,586.4669229390001,586.4669229390001,586.4669229390001,588.502899055,588.502899055,588.502899055,588.502899055,588.502899055,588.502899055,588.502899055,588.502899055,590.5381504880006,590.5381504880006,590.5381504880006,590.5381504880006,,,,,,,,,,,,,,,,,,,,,,,,,,,,,,2,012,2022-09-27_15h32.42.392,test2,2022.2.4,59.98840724019541,
0,0,0,0,94,0,94,0,590.5381504880006,590.5381504880006,590.5381504880006,590.5381504880006,590.5381504880006,590.5381504880006,590.5381504880006,1,-1,rojo,1,['N_A'],592.0395678800005,592.0395678800005,592.0395678800005,592.0395678800005,594.0757209020003,594.0757209020003,594.0757209020003,594.0757209020003,594.0757209020003,594.0757209020003,594.0757209020003,594.0757209020003,596.1111405319998,596.1111405319998,596.1111405319998,596.1111405319998,,,,,,,,,,,,,,,,,,,,,,,,,,,,,,2,012,2022-09-27_15h32.42.392,test2,2022.2.4,59.98840724019541,
0,0,0,0,95,0,95,0,596.1111405319998,596.1111405319998,596.1111405319998,596.1111405319998,596.1111405319998,596.1111405319998,596.1111405319998,1,-1,rojo,1,['N_A'],597.4792452540005,597.4792452540005,597.4792452540005,597.4792452540005,599.5151179610002,599.5151179610002,599.5151179610002,599.5151179610002,599.5151179610002,599.5151179610002,599.5151179610002,599.5151179610002,601.5509943980005,601.5509943980005,601.5509943980005,601.5509943980005,,,,,,,,,,,,,,,,,,,,,,,,,,,,,,2,012,2022-09-27_15h32.42.392,test2,2022.2.4,59.98840724019541,
0,0,0,0,96,0,96,0,601.5509943980005,601.5509943980005,601.5509943980005,601.5509943980005,601.5509943980005,601.5509943980005,601.5509943980005,-1,-1,azul,1,['N_A'],602.9517258260003,602.9517258260003,602.9517258260003,602.9517258260003,604.9882234840006,604.9882234840006,604.9882234840006,604.9882234840006,604.9882234840006,604.9882234840006,604.9882234840006,604.9882234840006,607.0235738420006,607.0235738420006,607.0235738420006,607.0235738420006,,,,,,,,,,,,,,,,,,,,,,,,,,,,,,2,012,2022-09-27_15h32.42.392,test2,2022.2.4,59.98840724019541,
0,0,0,0,97,0,97,0,607.0235738420006,607.0235738420006,607.0235738420006,607.0235738420006,607.0235738420006,607.0235738420006,607.0235738420006,-1,-1,azul,1,['N_A'],608.7074804470003,608.7074804470003,608.7074804470003,608.7074804470003,610.7440838060002,610.7440838060002,610.7440838060002,610.7440838060002,610.7440838060002,610.7440838060002,610.7440838060002,610.7440838060002,612.779336646,612.779336646,612.779336646,612.779336646,,,,,,,,,,,,,,,,,,,,,,,,,,,,,,2,012,2022-09-27_15h32.42.392,test2,2022.2.4,59.98840724019541,
0,0,0,0,98,0,98,0,612.779336646,612.779336646,612.779336646,612.779336646,612.779336646,612.779336646,612.779336646,1,-1,rojo,1,['N_A'],614.1983088140005,614.1983088140005,614.1983088140005,614.1983088140005,616.2335881730005,616.2335881730005,616.2335881730005,616.2335881730005,616.2335881730005,616.2335881730005,616.2335881730005,616.2335881730005,618.2684816190003,618.2684816190003,618.2684816190003,618.2684816190003,,,,,,,,,,,,,,,,,,,,,,,,,,,,,,2,012,2022-09-27_15h32.42.392,test2,2022.2.4,59.98840724019541,
0,0,0,0,99,0,99,0,618.2684816190003,618.2684816190003,618.2684816190003,618.2684816190003,618.2684816190003,618.2684816190003,618.2684816190003,-1,1,azul,1,['N_A'],619.6708795800005,619.6708795800005,619.6708795800005,619.6708795800005,621.70595718,621.70595718,621.70595718,621.70595718,621.70595718,621.70595718,621.70595718,621.70595718,623.7413460830003,623.7413460830003,623.7413460830003,623.7413460830003,,,,,,,,,,,,,,,,,,,,,,,,,,,,,,2,012,2022-09-27_15h32.42.392,test2,2022.2.4,59.98840724019541,
0,0,0,0,100,0,100,0,623.7413460830003,623.7413460830003,623.7413460830003,623.7413460830003,623.7413460830003,623.7413460830003,623.7413460830003,1,-1,rojo,1,['N_A'],625.2270495379998,625.2270495379998,625.2270495379998,625.2270495379998,627.2626126720006,627.2626126720006,627.2626126720006,627.2626126720006,627.2626126720006,627.2626126720006,627.2626126720006,627.2626126720006,629.2976684700006,629.2976684700006,629.2976684700006,629.2976684700006,,,,,,,,,,,,,,,,,,,,,,,,,,,,,,2,012,2022-09-27_15h32.42.392,test2,2022.2.4,59.98840724019541,
0,0,0,0,101,0,101,0,629.2976684700006,629.2976684700006,629.2976684700006,629.2976684700006,629.2976684700006,629.2976684700006,629.2976684700006,1,-1,rojo,1,['N_A'],630.6488274470003,630.6488274470003,630.6488274470003,630.6488274470003,632.6847048210002,632.6847048210002,632.6847048210002,632.6847048210002,632.6847048210002,632.6847048210002,632.6847048210002,632.6847048210002,634.7203424460004,634.7203424460004,634.7203424460004,634.7203424460004,,,,,,,,,,,,,,,,,,,,,,,,,,,,,,2,012,2022-09-27_15h32.42.392,test2,2022.2.4,59.98840724019541,
0,0,0,0,102,0,102,0,634.7203424460004,634.7203424460004,634.7203424460004,634.7203424460004,634.7203424460004,634.7203424460004,634.7203424460004,-1,1,azul,1,['N_A'],636.205506192,636.205506192,636.205506192,636.205506192,638.240570727,638.240570727,638.240570727,638.240570727,638.240570727,638.240570727,638.240570727,638.240570727,640.2766310500001,640.2766310500001,640.2766310500001,640.2766310500001,,,,,,,,,,,,,,,,,,,,,,,,,,,,,,2,012,2022-09-27_15h32.42.392,test2,2022.2.4,59.98840724019541,
0,0,0,0,103,0,103,0,640.2766310500001,640.2766310500001,640.2766310500001,640.2766310500001,640.2766310500001,640.2766310500001,640.2766310500001,1,-1,rojo,1,['N_A'],641.6444644470002,641.6444644470002,641.6444644470002,641.6444644470002,643.680662578,643.680662578,643.680662578,643.680662578,643.680662578,643.680662578,643.680662578,643.680662578,645.715882945,645.715882945,645.715882945,645.715882945,,,,,,,,,,,,,,,,,,,,,,,,,,,,,,2,012,2022-09-27_15h32.42.392,test2,2022.2.4,59.98840724019541,
0,0,0,0,104,0,104,0,645.715882945,645.715882945,645.715882945,645.715882945,645.715882945,645.715882945,645.715882945,1,-1,rojo,1,['N_A'],647.1004129700004,647.1004129700004,647.1004129700004,647.1004129700004,649.13686736,649.13686736,649.13686736,649.13686736,649.13686736,649.13686736,649.13686736,649.13686736,651.1714680860005,651.1714680860005,651.1714680860005,651.1714680860005,,,,,,,,,,,,,,,,,,,,,,,,,,,,,,2,012,2022-09-27_15h32.42.392,test2,2022.2.4,59.98840724019541,
0,0,0,0,105,0,105,0,651.1714680860005,651.1714680860005,651.1714680860005,651.1714680860005,651.1714680860005,651.1714680860005,651.1714680860005,-1,-1,azul,0,['N_B'],652.9242087060002,652.9242087060002,652.9242087060002,652.9242087060002,654.9594062890001,654.9594062890001,654.9594062890001,654.9594062890001,654.9594062890001,654.9594062890001,654.9594062890001,654.9594062890001,656.9946868920006,656.9946868920006,656.9946868920006,656.9946868920006,,,,,,,,,,,,,,,,,,,,,,,,,,,,,,2,012,2022-09-27_15h32.42.392,test2,2022.2.4,59.98840724019541,
0,0,0,0,106,0,106,0,656.9946868920006,656.9946868920006,656.9946868920006,656.9946868920006,656.9946868920006,656.9946868920006,656.9946868920006,-1,-1,rojo,1,['N_B'],658.3464801320006,658.3464801320006,658.3464801320006,658.3464801320006,660.3826161719999,660.3826161719999,660.3826161719999,660.3826161719999,660.3826161719999,660.3826161719999,660.3826161719999,660.3826161719999,662.4171166630003,662.4171166630003,662.4171166630003,662.4171166630003,,,,,,,,,,,,,,,,,,,,,,,,,,,,,,2,012,2022-09-27_15h32.42.392,test2,2022.2.4,59.98840724019541,
0,0,0,0,107,0,107,0,662.4171166630003,662.4171166630003,662.4171166630003,662.4171166630003,662.4171166630003,662.4171166630003,662.4171166630003,-1,-1,rojo,1,['N_B'],663.8357737189999,663.8357737189999,663.8357737189999,663.8357737189999,665.871056299,665.871056299,665.871056299,665.871056299,665.871056299,665.871056299,665.871056299,665.871056299,667.9069470680006,667.9069470680006,667.9069470680006,667.9069470680006,,,,,,,,,,,,,,,,,,,,,,,,,,,,,,2,012,2022-09-27_15h32.42.392,test2,2022.2.4,59.98840724019541,
0,0,0,0,108,0,108,0,667.9069470680006,667.9069470680006,667.9069470680006,667.9069470680006,667.9069470680006,667.9069470680006,667.9069470680006,-1,-1,rojo,0,['N_A'],669.8923376980001,669.8923376980001,669.8923376980001,669.8923376980001,671.928733965,671.928733965,671.928733965,671.928733965,671.928733965,671.928733965,671.928733965,671.928733965,673.9639097050003,673.9639097050003,673.9639097050003,673.9639097050003,,,,,,,,,,,,,,,,,,,,,,,,,,,,,,2,012,2022-09-27_15h32.42.392,test2,2022.2.4,59.98840724019541,
0,0,0,0,109,0,109,0,673.9639097050003,673.9639097050003,673.9639097050003,673.9639097050003,673.9639097050003,673.9639097050003,673.9639097050003,-1,1,azul,1,['N_A'],675.3487490710004,675.3487490710004,675.3487490710004,675.3487490710004,677.3835470620006,677.3835470620006,677.3835470620006,677.3835470620006,677.3835470620006,677.3835470620006,677.3835470620006,677.3835470620006,679.419156983,679.419156983,679.419156983,679.419156983,,,,,,,,,,,,,,,,,,,,,,,,,,,,,,2,012,2022-09-27_15h32.42.392,test2,2022.2.4,59.98840724019541,
0,0,0,0,110,0,110,0,679.419156983,679.419156983,679.419156983,679.419156983,679.419156983,679.419156983,679.419156983,1,-1,rojo,1,['N_A'],680.8045525140005,680.8045525140005,680.8045525140005,680.8045525140005,682.8397614490004,682.8397614490004,682.8397614490004,682.8397614490004,682.8397614490004,682.8397614490004,682.8397614490004,682.8397614490004,684.8764155469999,684.8764155469999,684.8764155469999,684.8764155469999,,,,,,,,,,,,,,,,,,,,,,,,,,,,,,2,012,2022-09-27_15h32.42.392,test2,2022.2.4,59.98840724019541,
0,0,0,0,111,0,111,0,684.8764155469999,684.8764155469999,684.8764155469999,684.8764155469999,684.8764155469999,684.8764155469999,684.8764155469999,1,-1,rojo,1,['N_A'],687.0953083700006,687.0953083700006,687.0953083700006,687.0953083700006,689.1301167680003,689.1301167680003,689.1301167680003,689.1301167680003,689.1301167680003,689.1301167680003,689.1301167680003,689.1301167680003,691.1666342710005,691.1666342710005,691.1666342710005,691.1666342710005,,,,,,,,,,,,,,,,,,,,,,,,,,,,,,2,012,2022-09-27_15h32.42.392,test2,2022.2.4,59.98840724019541,
0,0,0,0,112,0,112,0,691.1666342710005,691.1666342710005,691.1666342710005,691.1666342710005,691.1666342710005,691.1666342710005,691.1666342710005,1,-1,rojo,1,['N_A'],692.5510850430001,692.5510850430001,692.5510850430001,692.5510850430001,694.5868731400005,694.5868731400005,694.5868731400005,694.5868731400005,694.5868731400005,694.5868731400005,694.5868731400005,694.5868731400005,696.6216893110004,696.6216893110004,696.6216893110004,696.6216893110004,,,,,,,,,,,,,,,,,,,,,,,,,,,,,,2,012,2022-09-27_15h32.42.392,test2,2022.2.4,59.98840724019541,
0,0,0,0,113,0,113,0,696.6216893110004,696.6216893110004,696.6216893110004,696.6216893110004,696.6216893110004,696.6216893110004,696.6216893110004,1,-1,rojo,1,['N_A'],698.2577293720005,698.2577293720005,698.2577293720005,698.2577293720005,700.2930571840006,700.2930571840006,700.2930571840006,700.2930571840006,700.2930571840006,700.2930571840006,700.2930571840006,700.2930571840006,702.328814423,702.328814423,702.328814423,702.328814423,,,,,,,,,,,,,,,,,,,,,,,,,,,,,,2,012,2022-09-27_15h32.42.392,test2,2022.2.4,59.98840724019541,
0,0,0,0,114,0,114,0,702.328814423,702.328814423,702.328814423,702.328814423,702.328814423,702.328814423,702.328814423,1,-1,rojo,0,['N_B'],703.7967493510005,703.7967493510005,703.7967493510005,703.7967493510005,705.8321226750004,705.8321226750004,705.8321226750004,705.8321226750004,705.8321226750004,705.8321226750004,705.8321226750004,705.8321226750004,707.8684261360004,707.8684261360004,707.8684261360004,707.8684261360004,,,,,,,,,,,,,,,,,,,,,,,,,,,,,,2,012,2022-09-27_15h32.42.392,test2,2022.2.4,59.98840724019541,
0,0,0,0,115,0,115,0,707.8684261360004,707.8684261360004,707.8684261360004,707.8684261360004,707.8684261360004,707.8684261360004,707.8684261360004,-1,-1,rojo,0,['N_A'],709.2693496930005,709.2693496930005,709.2693496930005,709.2693496930005,711.305181404,711.305181404,711.305181404,711.305181404,711.305181404,711.305181404,711.305181404,711.305181404,713.3402975489998,713.3402975489998,713.3402975489998,713.3402975489998,,,,,,,,,,,,,,,,,,,,,,,,,,,,,,2,012,2022-09-27_15h32.42.392,test2,2022.2.4,59.98840724019541,
0,0,0,0,116,0,116,0,713.3402975489998,713.3402975489998,713.3402975489998,713.3402975489998,713.3402975489998,713.3402975489998,713.3402975489998,-1,1,azul,1,['N_A'],715.5591918130003,715.5591918130003,715.5591918130003,715.5591918130003,717.5957585140004,717.5957585140004,717.5957585140004,717.5957585140004,717.5957585140004,717.5957585140004,717.5957585140004,717.5957585140004,719.6312698769998,719.6312698769998,719.6312698769998,719.6312698769998,,,,,,,,,,,,,,,,,,,,,,,,,,,,,,2,012,2022-09-27_15h32.42.392,test2,2022.2.4,59.98840724019541,
0,0,0,0,117,0,117,0,719.6312698769998,719.6312698769998,719.6312698769998,719.6312698769998,719.6312698769998,719.6312698769998,719.6312698769998,1,-1,rojo,0,['N_B'],720.999368586,720.999368586,720.999368586,720.999368586,723.0345725120005,723.0345725120005,723.0345725120005,723.0345725120005,723.0345725120005,723.0345725120005,723.0345725120005,723.0345725120005,725.070501788,725.070501788,725.070501788,725.070501788,,,,,,,,,,,,,,,,,,,,,,,,,,,,,,2,012,2022-09-27_15h32.42.392,test2,2022.2.4,59.98840724019541,
0,0,0,0,118,0,118,0,725.070501788,725.070501788,725.070501788,725.070501788,725.070501788,725.070501788,725.070501788,1,-1,azul,0,['N_A'],726.4553751130006,726.4553751130006,726.4553751130006,726.4553751130006,728.4907504800003,728.4907504800003,728.4907504800003,728.4907504800003,728.4907504800003,728.4907504800003,728.4907504800003,728.4907504800003,730.5264026929999,730.5264026929999,730.5264026929999,730.5264026929999,,,,,,,,,,,,,,,,,,,,,,,,,,,,,,2,012,2022-09-27_15h32.42.392,test2,2022.2.4,59.98840724019541,
0,0,0,0,119,0,119,0,730.5264026929999,730.5264026929999,730.5264026929999,730.5264026929999,730.5264026929999,730.5264026929999,730.5264026929999,1,1,rojo,0,['N_B'],731.9281859700004,731.9281859700004,731.9281859700004,731.9281859700004,733.9630623339999,733.9630623339999,733.9630623339999,733.9630623339999,733.9630623339999,733.9630623339999,733.9630623339999,733.9630623339999,735.9985414419998,735.9985414419998,735.9985414419998,735.9985414419998,,,,,,,,,,,,,,,,,,,,,,,,,,,,,,2,012,2022-09-27_15h32.42.392,test2,2022.2.4,59.98840724019541,
0,0,0,0,120,0,120,0,735.9985414419998,735.9985414419998,735.9985414419998,735.9985414419998,735.9985414419998,735.9985414419998,735.9985414419998,-1,-1,rojo,0,['N_A'],737.4502814130001,737.4502814130001,737.4502814130001,737.4502814130001,739.4858581230001,739.4858581230001,739.4858581230001,739.4858581230001,739.4858581230001,739.4858581230001,739.4858581230001,739.4858581230001,741.5219145430001,741.5219145430001,741.5219145430001,741.5219145430001,,,,,,,,,,,,,,,,,,,,,,,,,,,,,,2,012,2022-09-27_15h32.42.392,test2,2022.2.4,59.98840724019541,
0,0,0,0,121,0,121,0,741.5219145430001,741.5219145430001,741.5219145430001,741.5219145430001,741.5219145430001,741.5219145430001,741.5219145430001,1,-1,rojo,0,['N_B'],742.9065427940004,742.9065427940004,742.9065427940004,742.9065427940004,744.9421392530003,744.9421392530003,744.9421392530003,744.9421392530003,744.9421392530003,744.9421392530003,744.9421392530003,744.9421392530003,746.9774153630005,746.9774153630005,746.9774153630005,746.9774153630005,,,,,,,,,,,,,,,,,,,,,,,,,,,,,,2,012,2022-09-27_15h32.42.392,test2,2022.2.4,59.98840724019541,
0,0,0,0,122,0,122,0,746.9774153630005,746.9774153630005,746.9774153630005,746.9774153630005,746.9774153630005,746.9774153630005,746.9774153630005,-1,-1,rojo,1,['N_B'],748.4123983750005,748.4123983750005,748.4123983750005,748.4123983750005,750.4487298610002,750.4487298610002,750.4487298610002,750.4487298610002,750.4487298610002,750.4487298610002,750.4487298610002,750.4487298610002,752.4833247880006,752.4833247880006,752.4833247880006,752.4833247880006,,,,,,,,,,,,,,,,,,,,,,,,,,,,,,2,012,2022-09-27_15h32.42.392,test2,2022.2.4,59.98840724019541,
0,0,0,0,123,0,123,0,752.4833247880006,752.4833247880006,752.4833247880006,752.4833247880006,752.4833247880006,752.4833247880006,752.4833247880006,1,1,azul,1,['N_B'],753.8689252630002,753.8689252630002,753.8689252630002,753.8689252630002,755.8876185670006,755.8876185670006,755.8876185670006,755.8876185670006,755.8876185670006,755.8876185670006,755.8876185670006,755.8876185670006,757.9234914440003,757.9234914440003,757.9234914440003,757.9234914440003,,,,,,,,,,,,,,,,,,,,,,,,,,,,,,2,012,2022-09-27_15h32.42.392,test2,2022.2.4,59.98840724019541,
0,0,0,0,124,0,124,0,757.9234914440003,757.9234914440003,757.9234914440003,757.9234914440003,757.9234914440003,757.9234914440003,757.9234914440003,1,1,azul,1,['N_B'],759.3251839760005,759.3251839760005,759.3251839760005,759.3251839760005,761.3596306910003,761.3596306910003,761.3596306910003,761.3596306910003,761.3596306910003,761.3596306910003,761.3596306910003,761.3596306910003,763.3955357430004,763.3955357430004,763.3955357430004,763.3955357430004,,,,,,,,,,,,,,,,,,,,,,,,,,,,,,2,012,2022-09-27_15h32.42.392,test2,2022.2.4,59.98840724019541,
0,0,0,0,125,0,125,0,763.3955357430004,763.3955357430004,763.3955357430004,763.3955357430004,763.3955357430004,763.3955357430004,763.3955357430004,-1,-1,rojo,1,['N_B'],764.7472728140001,764.7472728140001,764.7472728140001,764.7472728140001,766.7830601229998,766.7830601229998,766.7830601229998,766.7830601229998,766.7830601229998,766.7830601229998,766.7830601229998,766.7830601229998,768.8185131999999,768.8185131999999,768.8185131999999,768.8185131999999,,,,,,,,,,,,,,,,,,,,,,,,,,,,,,2,012,2022-09-27_15h32.42.392,test2,2022.2.4,59.98840724019541,
0,0,0,0,126,0,126,0,768.8185131999999,768.8185131999999,768.8185131999999,768.8185131999999,768.8185131999999,768.8185131999999,768.8185131999999,1,-1,azul,0,['N_A'],770.5033762510002,770.5033762510002,770.5033762510002,770.5033762510002,772.5393232480001,772.5393232480001,772.5393232480001,772.5393232480001,772.5393232480001,772.5393232480001,772.5393232480001,772.5393232480001,774.5747281949998,774.5747281949998,774.5747281949998,774.5747281949998,,,,,,,,,,,,,,,,,,,,,,,,,,,,,,2,012,2022-09-27_15h32.42.392,test2,2022.2.4,59.98840724019541,
0,0,0,0,127,0,127,0,774.5747281949998,774.5747281949998,774.5747281949998,774.5747281949998,774.5747281949998,774.5747281949998,774.5747281949998,1,-1,rojo,1,['N_A'],776.0595839360003,776.0595839360003,776.0595839360003,776.0595839360003,778.0955148009998,778.0955148009998,778.0955148009998,778.0955148009998,778.0955148009998,778.0955148009998,778.0955148009998,778.0955148009998,780.1308000320005,780.1308000320005,780.1308000320005,780.1308000320005,,,,,,,,,,,,,,,,,,,,,,,,,,,,,,2,012,2022-09-27_15h32.42.392,test2,2022.2.4,59.98840724019541,
0,0,0,0,128,0,128,0,780.1308000320005,780.1308000320005,780.1308000320005,780.1308000320005,780.1308000320005,780.1308000320005,780.1308000320005,1,-1,rojo,0,['N_B'],781.6827827389998,781.6827827389998,781.6827827389998,781.6827827389998,783.7180821339998,783.7180821339998,783.7180821339998,783.7180821339998,783.7180821339998,783.7180821339998,783.7180821339998,783.7180821339998,785.7539586130006,785.7539586130006,785.7539586130006,785.7539586130006,,,,,,,,,,,,,,,,,,,,,,,,,,,,,,2,012,2022-09-27_15h32.42.392,test2,2022.2.4,59.98840724019541,
0,0,0,0,129,0,129,0,785.7539586130006,785.7539586130006,785.7539586130006,785.7539586130006,785.7539586130006,785.7539586130006,785.7539586130006,1,1,azul,1,['N_B'],787.1384312280006,787.1384312280006,787.1384312280006,787.1384312280006,789.1746659560004,789.1746659560004,789.1746659560004,789.1746659560004,789.1746659560004,789.1746659560004,789.1746659560004,789.1746659560004,791.2095482539999,791.2095482539999,791.2095482539999,791.2095482539999,,,,,,,,,,,,,,,,,,,,,,,,,,,,,,2,012,2022-09-27_15h32.42.392,test2,2022.2.4,59.98840724019541,
0,0,0,0,130,0,130,0,791.2095482539999,791.2095482539999,791.2095482539999,791.2095482539999,791.2095482539999,791.2095482539999,791.2095482539999,-1,-1,rojo,1,['N_B'],792.5951483469998,792.5951483469998,792.5951483469998,792.5951483469998,794.6306671009997,794.6306671009997,794.6306671009997,794.6306671009997,794.6306671009997,794.6306671009997,794.6306671009997,794.6306671009997,796.6656424290004,796.6656424290004,796.6656424290004,796.6656424290004,,,,,,,,,,,,,,,,,,,,,,,,,,,,,,2,012,2022-09-27_15h32.42.392,test2,2022.2.4,59.98840724019541,
0,0,0,0,131,0,131,0,796.6656424290004,796.6656424290004,796.6656424290004,796.6656424290004,796.6656424290004,796.6656424290004,796.6656424290004,1,-1,azul,0,['N_A'],798.1001683840004,798.1001683840004,798.1001683840004,798.1001683840004,800.1359604520003,800.1359604520003,800.1359604520003,800.1359604520003,800.1359604520003,800.1359604520003,800.1359604520003,800.1359604520003,802.1716260250005,802.1716260250005,802.1716260250005,802.1716260250005,,,,,,,,,,,,,,,,,,,,,,,,,,,,,,2,012,2022-09-27_15h32.42.392,test2,2022.2.4,59.98840724019541,
0,0,0,0,132,0,132,0,802.1716260250005,802.1716260250005,802.1716260250005,802.1716260250005,802.1716260250005,802.1716260250005,802.1716260250005,1,-1,rojo,1,['N_A'],803.5232126190003,803.5232126190003,803.5232126190003,803.5232126190003,805.5587384549999,805.5587384549999,805.5587384549999,805.5587384549999,805.5587384549999,805.5587384549999,805.5587384549999,805.5587384549999,807.5940557490003,807.5940557490003,807.5940557490003,807.5940557490003,,,,,,,,,,,,,,,,,,,,,,,,,,,,,,2,012,2022-09-27_15h32.42.392,test2,2022.2.4,59.98840724019541,
0,0,0,0,133,0,133,0,807.5940557490003,807.5940557490003,807.5940557490003,807.5940557490003,807.5940557490003,807.5940557490003,807.5940557490003,-1,-1,azul,1,['N_A'],809.0125256780002,809.0125256780002,809.0125256780002,809.0125256780002,811.0481408880005,811.0481408880005,811.0481408880005,811.0481408880005,811.0481408880005,811.0481408880005,811.0481408880005,811.0481408880005,813.0843371139999,813.0843371139999,813.0843371139999,813.0843371139999,,,,,,,,,,,,,,,,,,,,,,,,,,,,,,2,012,2022-09-27_15h32.42.392,test2,2022.2.4,59.98840724019541,
0,0,0,0,134,0,134,0,813.0843371139999,813.0843371139999,813.0843371139999,813.0843371139999,813.0843371139999,813.0843371139999,813.0843371139999,-1,-1,azul,1,['N_A'],814.60213613,814.60213613,814.60213613,814.60213613,816.637708239,816.637708239,816.637708239,816.637708239,816.637708239,816.637708239,816.637708239,816.637708239,818.6731443620001,818.6731443620001,818.6731443620001,818.6731443620001,,,,,,,,,,,,,,,,,,,,,,,,,,,,,,2,012,2022-09-27_15h32.42.392,test2,2022.2.4,59.98840724019541,
0,0,0,0,135,0,135,0,818.6731443620001,818.6731443620001,818.6731443620001,818.6731443620001,818.6731443620001,818.6731443620001,818.6731443620001,-1,-1,azul,0,['N_B'],821.02618472,821.02618472,821.02618472,821.02618472,823.0613595080004,823.0613595080004,823.0613595080004,823.0613595080004,823.0613595080004,823.0613595080004,823.0613595080004,823.0613595080004,825.0966780130002,825.0966780130002,825.0966780130002,825.0966780130002,,,,,,,,,,,,,,,,,,,,,,,,,,,,,,2,012,2022-09-27_15h32.42.392,test2,2022.2.4,59.98840724019541,
0,0,0,0,136,0,136,0,825.0966780130002,825.0966780130002,825.0966780130002,825.0966780130002,825.0966780130002,825.0966780130002,825.0966780130002,-1,-1,rojo,1,['N_B'],826.5151471839999,826.5151471839999,826.5151471839999,826.5151471839999,828.5515024220003,828.5515024220003,828.5515024220003,828.5515024220003,828.5515024220003,828.5515024220003,828.5515024220003,828.5515024220003,830.586240392,830.586240392,830.586240392,830.586240392,,,,,,,,,,,,,,,,,,,,,,,,,,,,,,2,012,2022-09-27_15h32.42.392,test2,2022.2.4,59.98840724019541,
0,0,0,0,137,0,137,0,830.586240392,830.586240392,830.586240392,830.586240392,830.586240392,830.586240392,830.586240392,1,-1,azul,0,['N_A'],832.3888883720001,832.3888883720001,832.3888883720001,832.3888883720001,834.4245890860002,834.4245890860002,834.4245890860002,834.4245890860002,834.4245890860002,834.4245890860002,834.4245890860002,834.4245890860002,836.4594035270002,836.4594035270002,836.4594035270002,836.4594035270002,,,,,,,,,,,,,,,,,,,,,,,,,,,,,,2,012,2022-09-27_15h32.42.392,test2,2022.2.4,59.98840724019541,
0,0,0,0,138,0,138,0,836.4594035270002,836.4594035270002,836.4594035270002,836.4594035270002,836.4594035270002,836.4594035270002,836.4594035270002,-1,-1,azul,0,['N_B'],837.8617911070005,837.8617911070005,837.8617911070005,837.8617911070005,839.8970032389998,839.8970032389998,839.8970032389998,839.8970032389998,839.8970032389998,839.8970032389998,839.8970032389998,839.8970032389998,841.9322637370005,841.9322637370005,841.9322637370005,841.9322637370005,,,,,,,,,,,,,,,,,,,,,,,,,,,,,,2,012,2022-09-27_15h32.42.392,test2,2022.2.4,59.98840724019541,
0,0,0,0,139,0,139,0,841.9322637370005,841.9322637370005,841.9322637370005,841.9322637370005,841.9322637370005,841.9322637370005,841.9322637370005,-1,-1,rojo,0,['N_A'],843.3841529729998,843.3841529729998,843.3841529729998,843.3841529729998,845.4194593870006,845.4194593870006,845.4194593870006,845.4194593870006,845.4194593870006,845.4194593870006,845.4194593870006,845.4194593870006,847.4546719500004,847.4546719500004,847.4546719500004,847.4546719500004,,,,,,,,,,,,,,,,,,,,,,,,,,,,,,2,012,2022-09-27_15h32.42.392,test2,2022.2.4,59.98840724019541,
0,0,0,0,140,0,140,0,847.4546719500004,847.4546719500004,847.4546719500004,847.4546719500004,847.4546719500004,847.4546719500004,847.4546719500004,1,-1,rojo,1,['N_A'],849.1737974819998,849.1737974819998,849.1737974819998,849.1737974819998,851.2091064940005,851.2091064940005,851.2091064940005,851.2091064940005,851.2091064940005,851.2091064940005,851.2091064940005,851.2091064940005,853.2448293240004,853.2448293240004,853.2448293240004,853.2448293240004,,,,,,,,,,,,,,,,,,,,,,,,,,,,,,2,012,2022-09-27_15h32.42.392,test2,2022.2.4,59.98840724019541,
0,0,0,0,141,0,141,0,853.2448293240004,853.2448293240004,853.2448293240004,853.2448293240004,853.2448293240004,853.2448293240004,853.2448293240004,1,-1,rojo,1,['N_A'],854.6297922920003,854.6297922920003,854.6297922920003,854.6297922920003,856.665180338,856.665180338,856.665180338,856.665180338,856.665180338,856.665180338,856.665180338,856.665180338,858.7007247440006,858.7007247440006,858.7007247440006,858.7007247440006,,,,,,,,,,,,,,,,,,,,,,,,,,,,,,2,012,2022-09-27_15h32.42.392,test2,2022.2.4,59.98840724019541,
0,0,0,0,142,0,142,0,858.7007247440006,858.7007247440006,858.7007247440006,858.7007247440006,858.7007247440006,858.7007247440006,858.7007247440006,-1,-1,azul,1,['N_A'],860.1860190699999,860.1860190699999,860.1860190699999,860.1860190699999,862.2212884259998,862.2212884259998,862.2212884259998,862.2212884259998,862.2212884259998,862.2212884259998,862.2212884259998,862.2212884259998,864.2565915280002,864.2565915280002,864.2565915280002,864.2565915280002,,,,,,,,,,,,,,,,,,,,,,,,,,,,,,2,012,2022-09-27_15h32.42.392,test2,2022.2.4,59.98840724019541,
0,0,0,0,143,0,143,0,864.2565915280002,864.2565915280002,864.2565915280002,864.2565915280002,864.2565915280002,864.2565915280002,864.2565915280002,1,-1,rojo,0,['N_B'],865.7257600100002,865.7257600100002,865.7257600100002,865.7257600100002,867.7614447780006,867.7614447780006,867.7614447780006,867.7614447780006,867.7614447780006,867.7614447780006,867.7614447780006,867.7614447780006,869.7962365889998,869.7962365889998,869.7962365889998,869.7962365889998,,,,,,,,,,,,,,,,,,,,,,,,,,,,,,2,012,2022-09-27_15h32.42.392,test2,2022.2.4,59.98840724019541,
0,0,0,0,144,0,144,0,869.7962365889998,869.7962365889998,869.7962365889998,869.7962365889998,869.7962365889998,869.7962365889998,869.7962365889998,1,1,azul,0,['N_A'],871.8816513000002,871.8816513000002,871.8816513000002,871.8816513000002,873.9180856749999,873.9180856749999,873.9180856749999,873.9180856749999,873.9180856749999,873.9180856749999,873.9180856749999,873.9180856749999,875.9527845050006,875.9527845050006,875.9527845050006,875.9527845050006,,,,,,,,,,,,,,,,,,,,,,,,,,,,,,2,012,2022-09-27_15h32.42.392,test2,2022.2.4,59.98840724019541,
0,0,0,0,145,0,145,0,875.9527845050006,875.9527845050006,875.9527845050006,875.9527845050006,875.9527845050006,875.9527845050006,875.9527845050006,-1,-1,azul,0,['N_B'],877.3218349250001,877.3218349250001,877.3218349250001,877.3218349250001,879.3572256980005,879.3572256980005,879.3572256980005,879.3572256980005,879.3572256980005,879.3572256980005,879.3572256980005,879.3572256980005,881.3924225340006,881.3924225340006,881.3924225340006,881.3924225340006,,,,,,,,,,,,,,,,,,,,,,,,,,,,,,2,012,2022-09-27_15h32.42.392,test2,2022.2.4,59.98840724019541,
0,0,0,0,146,0,146,0,881.3924225340006,881.3924225340006,881.3924225340006,881.3924225340006,881.3924225340006,881.3924225340006,881.3924225340006,-1,-1,rojo,1,['N_B'],882.7445283180004,882.7445283180004,882.7445283180004,882.7445283180004,884.7800070459998,884.7800070459998,884.7800070459998,884.7800070459998,884.7800070459998,884.7800070459998,884.7800070459998,884.7800070459998,886.8155891240003,886.8155891240003,886.8155891240003,886.8155891240003,,,,,,,,,,,,,,,,,,,,,,,,,,,,,,2,012,2022-09-27_15h32.42.392,test2,2022.2.4,59.98840724019541,
0,0,0,0,147,0,147,0,886.8155891240003,886.8155891240003,886.8155891240003,886.8155891240003,886.8155891240003,886.8155891240003,886.8155891240003,1,-1,azul,0,['N_A'],888.2339821719997,888.2339821719997,888.2339821719997,888.2339821719997,890.2695258150006,890.2695258150006,890.2695258150006,890.2695258150006,890.2695258150006,890.2695258150006,890.2695258150006,890.2695258150006,892.304569856,892.304569856,892.304569856,892.304569856,,,,,,,,,,,,,,,,,,,,,,,,,,,,,,2,012,2022-09-27_15h32.42.392,test2,2022.2.4,59.98840724019541,
0,0,0,0,148,0,148,0,892.304569856,892.304569856,892.304569856,892.304569856,892.304569856,892.304569856,892.304569856,-1,-1,azul,0,['N_B'],893.6899203250005,893.6899203250005,893.6899203250005,893.6899203250005,895.7250784460002,895.7250784460002,895.7250784460002,895.7250784460002,895.7250784460002,895.7250784460002,895.7250784460002,895.7250784460002,897.760554292,897.760554292,897.760554292,897.760554292,,,,,,,,,,,,,,,,,,,,,,,,,,,,,,2,012,2022-09-27_15h32.42.392,test2,2022.2.4,59.98840724019541,
0,0,0,0,149,0,149,0,897.760554292,897.760554292,897.760554292,897.760554292,897.760554292,897.760554292,897.760554292,1,1,azul,1,['N_B'],899.1293661700001,899.1293661700001,899.1293661700001,899.1293661700001,901.1640911210006,901.1640911210006,901.1640911210006,901.1640911210006,901.1640911210006,901.1640911210006,901.1640911210006,901.1640911210006,903.1999809950003,903.1999809950003,903.1999809950003,903.1999809950003,,,,,,,,,,,,,,,,,,,,,,,,,,,,,,2,012,2022-09-27_15h32.42.392,test2,2022.2.4,59.98840724019541,
0,0,0,0,150,0,150,0,903.1999809950003,903.1999809950003,903.1999809950003,903.1999809950003,903.1999809950003,903.1999809950003,903.1999809950003,1,-1,azul,1,['N_B'],904.5350780160006,904.5350780160006,904.5350780160006,904.5350780160006,906.5704212070004,906.5704212070004,906.5704212070004,906.5704212070004,906.5704212070004,906.5704212070004,906.5704212070004,906.5704212070004,908.6055206580004,908.6055206580004,908.6055206580004,908.6055206580004,,,,,,,,,,,,,,,,,,,,,,,,,,,,,,2,012,2022-09-27_15h32.42.392,test2,2022.2.4,59.98840724019541,
0,0,0,0,151,0,151,0,908.6055206580004,908.6055206580004,908.6055206580004,908.6055206580004,908.6055206580004,908.6055206580004,908.6055206580004,-1,-1,rojo,1,['N_B'],909.9578966979998,909.9578966979998,909.9578966979998,909.9578966979998,911.9927254220001,911.9927254220001,911.9927254220001,911.9927254220001,911.9927254220001,911.9927254220001,911.9927254220001,911.9927254220001,914.028873573,914.028873573,914.028873573,914.028873573,,,,,,,,,,,,,,,,,,,,,,,,,,,,,,2,012,2022-09-27_15h32.42.392,test2,2022.2.4,59.98840724019541,
0,0,0,0,152,0,152,0,914.028873573,914.028873573,914.028873573,914.028873573,914.028873573,914.028873573,914.028873573,1,1,azul,1,['N_B'],915.4137138510005,915.4137138510005,915.4137138510005,915.4137138510005,917.4485021649998,917.4485021649998,917.4485021649998,917.4485021649998,917.4485021649998,917.4485021649998,917.4485021649998,917.4485021649998,919.4840943130002,919.4840943130002,919.4840943130002,919.4840943130002,,,,,,,,,,,,,,,,,,,,,,,,,,,,,,2,012,2022-09-27_15h32.42.392,test2,2022.2.4,59.98840724019541,
0,0,0,0,153,0,153,0,919.4840943130002,919.4840943130002,919.4840943130002,919.4840943130002,919.4840943130002,919.4840943130002,919.4840943130002,1,-1,azul,1,['N_B'],920.7688917380001,920.7688917380001,920.7688917380001,920.7688917380001,922.8054658390001,922.8054658390001,922.8054658390001,922.8054658390001,922.8054658390001,922.8054658390001,922.8054658390001,922.8054658390001,924.8402205480006,924.8402205480006,924.8402205480006,924.8402205480006,,,,,,,,,,,,,,,,,,,,,,,,,,,,,,2,012,2022-09-27_15h32.42.392,test2,2022.2.4,59.98840724019541,
0,0,0,0,154,0,154,0,924.8402205480006,924.8402205480006,924.8402205480006,924.8402205480006,924.8402205480006,924.8402205480006,924.8402205480006,1,1,azul,1,['N_B'],926.2259810060004,926.2259810060004,926.2259810060004,926.2259810060004,928.2608609770004,928.2608609770004,928.2608609770004,928.2608609770004,928.2608609770004,928.2608609770004,928.2608609770004,928.2608609770004,930.2968245480006,930.2968245480006,930.2968245480006,930.2968245480006,,,,,,,,,,,,,,,,,,,,,,,,,,,,,,2,012,2022-09-27_15h32.42.392,test2,2022.2.4,59.98840724019541,
0,0,0,0,155,0,155,0,930.2968245480006,930.2968245480006,930.2968245480006,930.2968245480006,930.2968245480006,930.2968245480006,930.2968245480006,1,-1,azul,1,['N_B'],931.6148668160004,931.6148668160004,931.6148668160004,931.6148668160004,933.6506933299997,933.6506933299997,933.6506933299997,933.6506933299997,933.6506933299997,933.6506933299997,933.6506933299997,933.6506933299997,935.6854648930002,935.6854648930002,935.6854648930002,935.6854648930002,,,,,,,,,,,,,,,,,,,,,,,,,,,,,,2,012,2022-09-27_15h32.42.392,test2,2022.2.4,59.98840724019541,
0,0,0,0,156,0,156,0,935.6854648930002,935.6854648930002,935.6854648930002,935.6854648930002,935.6854648930002,935.6854648930002,935.6854648930002,1,-1,azul,1,['N_B'],937.0541263679997,937.0541263679997,937.0541263679997,937.0541263679997,939.0894951549999,939.0894951549999,939.0894951549999,939.0894951549999,939.0894951549999,939.0894951549999,939.0894951549999,939.0894951549999,941.1251532599999,941.1251532599999,941.1251532599999,941.1251532599999,,,,,,,,,,,,,,,,,,,,,,,,,,,,,,2,012,2022-09-27_15h32.42.392,test2,2022.2.4,59.98840724019541,
0,0,0,0,157,0,157,0,941.1251532599999,941.1251532599999,941.1251532599999,941.1251532599999,941.1251532599999,941.1251532599999,941.1251532599999,-1,-1,rojo,1,['N_B'],942.4429900730001,942.4429900730001,942.4429900730001,942.4429900730001,944.4793421029999,944.4793421029999,944.4793421029999,944.4793421029999,944.4793421029999,944.4793421029999,944.4793421029999,944.4793421029999,946.5139504600002,946.5139504600002,946.5139504600002,946.5139504600002,,,,,,,,,,,,,,,,,,,,,,,,,,,,,,2,012,2022-09-27_15h32.42.392,test2,2022.2.4,59.98840724019541,
0,0,0,0,158,0,158,0,946.5139504600002,946.5139504600002,946.5139504600002,946.5139504600002,946.5139504600002,946.5139504600002,946.5139504600002,1,1,azul,1,['N_B'],947.8827356460006,947.8827356460006,947.8827356460006,947.8827356460006,949.9183143669998,949.9183143669998,949.9183143669998,949.9183143669998,949.9183143669998,949.9183143669998,949.9183143669998,949.9183143669998,951.9533068950004,951.9533068950004,951.9533068950004,951.9533068950004,,,,,,,,,,,,,,,,,,,,,,,,,,,,,,2,012,2022-09-27_15h32.42.392,test2,2022.2.4,59.98840724019541,
0,0,0,0,159,0,159,0,951.9533068950004,951.9533068950004,951.9533068950004,951.9533068950004,951.9533068950004,951.9533068950004,951.9533068950004,-1,-1,rojo,1,['N_B'],953.2714794109997,953.2714794109997,953.2714794109997,953.2714794109997,955.3075722539998,955.3075722539998,955.3075722539998,955.3075722539998,955.3075722539998,955.3075722539998,955.3075722539998,955.3075722539998,957.342589588,957.342589588,957.342589588,957.342589588,,,,,,,,,,,,,,,,,,,,,,,,,,,,,,2,012,2022-09-27_15h32.42.392,test2,2022.2.4,59.98840724019541,
0,0,0,0,160,0,160,0,957.342589588,957.342589588,957.342589588,957.342589588,957.342589588,957.342589588,957.342589588,1,1,azul,1,['N_B'],958.8611906530004,958.8611906530004,958.8611906530004,958.8611906530004,960.8973853739999,960.8973853739999,960.8973853739999,960.8973853739999,960.8973853739999,960.8973853739999,960.8973853739999,960.8973853739999,962.9321836850004,962.9321836850004,962.9321836850004,962.9321836850004,,,,,,,,,,,,,,,,,,,,,,,,,,,,,,2,012,2022-09-27_15h32.42.392,test2,2022.2.4,59.98840724019541,
0,0,0,0,161,0,161,0,962.9321836850004,962.9321836850004,962.9321836850004,962.9321836850004,962.9321836850004,962.9321836850004,962.9321836850004,1,-1,azul,1,['N_B'],964.3167939470004,964.3167939470004,964.3167939470004,964.3167939470004,966.3532351700005,966.3532351700005,966.3532351700005,966.3532351700005,966.3532351700005,966.3532351700005,966.3532351700005,966.3532351700005,968.3882046819999,968.3882046819999,968.3882046819999,968.3882046819999,,,,,,,,,,,,,,,,,,,,,,,,,,,,,,2,012,2022-09-27_15h32.42.392,test2,2022.2.4,59.98840724019541,
0,0,0,0,162,0,162,0,968.3882046819999,968.3882046819999,968.3882046819999,968.3882046819999,968.3882046819999,968.3882046819999,968.3882046819999,1,1,azul,1,['N_B'],969.7401247460002,969.7401247460002,969.7401247460002,969.7401247460002,971.7754459420003,971.7754459420003,971.7754459420003,971.7754459420003,971.7754459420003,971.7754459420003,971.7754459420003,971.7754459420003,973.8112527880003,973.8112527880003,973.8112527880003,973.8112527880003,,,,,,,,,,,,,,,,,,,,,,,,,,,,,,2,012,2022-09-27_15h32.42.392,test2,2022.2.4,59.98840724019541,
0,0,0,0,163,0,163,0,973.8112527880003,973.8112527880003,973.8112527880003,973.8112527880003,973.8112527880003,973.8112527880003,973.8112527880003,-1,-1,rojo,1,['N_B'],975.1295333859998,975.1295333859998,975.1295333859998,975.1295333859998,977.1646556120004,977.1646556120004,977.1646556120004,977.1646556120004,977.1646556120004,977.1646556120004,977.1646556120004,977.1646556120004,979.2006795670004,979.2006795670004,979.2006795670004,979.2006795670004,,,,,,,,,,,,,,,,,,,,,,,,,,,,,,2,012,2022-09-27_15h32.42.392,test2,2022.2.4,59.98840724019541,
0,0,0,0,164,0,164,0,979.2006795670004,979.2006795670004,979.2006795670004,979.2006795670004,979.2006795670004,979.2006795670004,979.2006795670004,-1,-1,rojo,1,['N_B'],980.5514758090003,980.5514758090003,980.5514758090003,980.5514758090003,982.5880414100002,982.5880414100002,982.5880414100002,982.5880414100002,982.5880414100002,982.5880414100002,982.5880414100002,982.5880414100002,984.62333115,984.62333115,984.62333115,984.62333115,,,,,,,,,,,,,,,,,,,,,,,,,,,,,,2,012,2022-09-27_15h32.42.392,test2,2022.2.4,59.98840724019541,
0,0,0,0,165,0,165,0,984.62333115,984.62333115,984.62333115,984.62333115,984.62333115,984.62333115,984.62333115,1,1,azul,1,['N_B'],986.0082481059999,986.0082481059999,986.0082481059999,986.0082481059999,988.0435517189999,988.0435517189999,988.0435517189999,988.0435517189999,988.0435517189999,988.0435517189999,988.0435517189999,988.0435517189999,990.0787747869999,990.0787747869999,990.0787747869999,990.0787747869999,,,,,,,,,,,,,,,,,,,,,,,,,,,,,,2,012,2022-09-27_15h32.42.392,test2,2022.2.4,59.98840724019541,
0,0,0,0,166,0,166,0,990.0787747869999,990.0787747869999,990.0787747869999,990.0787747869999,990.0787747869999,990.0787747869999,990.0787747869999,-1,-1,rojo,1,['N_B'],991.4145438490004,991.4145438490004,991.4145438490004,991.4145438490004,993.4497475570006,993.4497475570006,993.4497475570006,993.4497475570006,993.4497475570006,993.4497475570006,993.4497475570006,993.4497475570006,995.4845466260003,995.4845466260003,995.4845466260003,995.4845466260003,,,,,,,,,,,,,,,,,,,,,,,,,,,,,,2,012,2022-09-27_15h32.42.392,test2,2022.2.4,59.98840724019541,
0,0,0,0,167,0,167,0,995.4845466260003,995.4845466260003,995.4845466260003,995.4845466260003,995.4845466260003,995.4845466260003,995.4845466260003,1,-1,azul,1,['N_B'],996.8028973529999,996.8028973529999,996.8028973529999,996.8028973529999,998.8389452230003,998.8389452230003,998.8389452230003,998.8389452230003,998.8389452230003,998.8389452230003,998.8389452230003,998.8389452230003,1000.8740079119998,1000.8740079119998,1000.8740079119998,1000.8740079119998,,,,,,,,,,,,,,,,,,,,,,,,,,,,,,2,012,2022-09-27_15h32.42.392,test2,2022.2.4,59.98840724019541,
0,0,0,0,168,0,168,0,1000.8740079119998,1000.8740079119998,1000.8740079119998,1000.8740079119998,1000.8740079119998,1000.8740079119998,1000.8740079119998,-1,-1,rojo,1,['N_B'],1002.2088437299999,1002.2088437299999,1002.2088437299999,1002.2088437299999,1004.2450341180001,1004.2450341180001,1004.2450341180001,1004.2450341180001,1004.2450341180001,1004.2450341180001,1004.2450341180001,1004.2450341180001,1006.2800177999998,1006.2800177999998,1006.2800177999998,1006.2800177999998,,,,,,,,,,,,,,,,,,,,,,,,,,,,,,2,012,2022-09-27_15h32.42.392,test2,2022.2.4,59.98840724019541,
0,0,0,0,169,0,169,0,1006.2800177999998,1006.2800177999998,1006.2800177999998,1006.2800177999998,1006.2800177999998,1006.2800177999998,1006.2800177999998,1,1,azul,1,['N_B'],1007.6316761420003,1007.6316761420003,1007.6316761420003,1007.6316761420003,1009.6668599570003,1009.6668599570003,1009.6668599570003,1009.6668599570003,1009.6668599570003,1009.6668599570003,1009.6668599570003,1009.6668599570003,1011.7026332989999,1011.7026332989999,1011.7026332989999,1011.7026332989999,,,,,,,,,,,,,,,,,,,,,,,,,,,,,,2,012,2022-09-27_15h32.42.392,test2,2022.2.4,59.98840724019541,
0,0,0,0,170,0,170,0,1011.7026332989999,1011.7026332989999,1011.7026332989999,1011.7026332989999,1011.7026332989999,1011.7026332989999,1011.7026332989999,-1,-1,rojo,1,['N_B'],1013.0881929240004,1013.0881929240004,1013.0881929240004,1013.0881929240004,1015.1233072260002,1015.1233072260002,1015.1233072260002,1015.1233072260002,1015.1233072260002,1015.1233072260002,1015.1233072260002,1015.1233072260002,1017.1587492380004,1017.1587492380004,1017.1587492380004,1017.1587492380004,,,,,,,,,,,,,,,,,,,,,,,,,,,,,,2,012,2022-09-27_15h32.42.392,test2,2022.2.4,59.98840724019541,
0,0,0,0,171,0,171,0,1017.1587492380004,1017.1587492380004,1017.1587492380004,1017.1587492380004,1017.1587492380004,1017.1587492380004,1017.1587492380004,-1,-1,rojo,1,['N_B'],1018.4936084259998,1018.4936084259998,1018.4936084259998,1018.4936084259998,1020.5293265500004,1020.5293265500004,1020.5293265500004,1020.5293265500004,1020.5293265500004,1020.5293265500004,1020.5293265500004,1020.5293265500004,1022.5646295659999,1022.5646295659999,1022.5646295659999,1022.5646295659999,,,,,,,,,,,,,,,,,,,,,,,,,,,,,,2,012,2022-09-27_15h32.42.392,test2,2022.2.4,59.98840724019541,
0,0,0,0,172,0,172,0,1022.5646295659999,1022.5646295659999,1022.5646295659999,1022.5646295659999,1022.5646295659999,1022.5646295659999,1022.5646295659999,1,-1,azul,1,['N_B'],1023.9833560280003,1023.9833560280003,1023.9833560280003,1023.9833560280003,1026.0184061700002,1026.0184061700002,1026.0184061700002,1026.0184061700002,1026.0184061700002,1026.0184061700002,1026.0184061700002,1026.0184061700002,1028.0548028270005,1028.0548028270005,1028.0548028270005,1028.0548028270005,,,,,,,,,,,,,,,,,,,,,,,,,,,,,,2,012,2022-09-27_15h32.42.392,test2,2022.2.4,59.98840724019541,
0,0,0,0,173,0,173,0,1028.0548028270005,1028.0548028270005,1028.0548028270005,1028.0548028270005,1028.0548028270005,1028.0548028270005,1028.0548028270005,-1,-1,rojo,1,['N_B'],1029.3721270200003,1029.3721270200003,1029.3721270200003,1029.3721270200003,1031.4081931219998,1031.4081931219998,1031.4081931219998,1031.4081931219998,1031.4081931219998,1031.4081931219998,1031.4081931219998,1031.4081931219998,1033.4432618990004,1033.4432618990004,1033.4432618990004,1033.4432618990004,,,,,,,,,,,,,,,,,,,,,,,,,,,,,,2,012,2022-09-27_15h32.42.392,test2,2022.2.4,59.98840724019541,
0,0,0,0,174,0,174,0,1033.4432618990004,1033.4432618990004,1033.4432618990004,1033.4432618990004,1033.4432618990004,1033.4432618990004,1033.4432618990004,1,-1,azul,1,['N_B'],1034.7616574680005,1034.7616574680005,1034.7616574680005,1034.7616574680005,1036.7975284940003,1036.7975284940003,1036.7975284940003,1036.7975284940003,1036.7975284940003,1036.7975284940003,1036.7975284940003,1036.7975284940003,1038.8334208650003,1038.8334208650003,1038.8334208650003,1038.8334208650003,,,,,,,,,,,,,,,,,,,,,,,,,,,,,,2,012,2022-09-27_15h32.42.392,test2,2022.2.4,59.98840724019541,
0,0,0,0,175,0,175,0,1038.8334208650003,1038.8334208650003,1038.8334208650003,1038.8334208650003,1038.8334208650003,1038.8334208650003,1038.8334208650003,1,-1,azul,1,['N_B'],1040.2176190290002,1040.2176190290002,1040.2176190290002,1040.2176190290002,1042.2536079540005,1042.2536079540005,1042.2536079540005,1042.2536079540005,1042.2536079540005,1042.2536079540005,1042.2536079540005,1042.2536079540005,1044.2884510800004,1044.2884510800004,1044.2884510800004,1044.2884510800004,,,,,,,,,,,,,,,,,,,,,,,,,,,,,,2,012,2022-09-27_15h32.42.392,test2,2022.2.4,59.98840724019541,
0,0,0,0,176,0,176,0,1044.2884510800004,1044.2884510800004,1044.2884510800004,1044.2884510800004,1044.2884510800004,1044.2884510800004,1044.2884510800004,1,-1,azul,0,['N_A'],1045.9742710780001,1045.9742710780001,1045.9742710780001,1045.9742710780001,1048.0094699339998,1048.0094699339998,1048.0094699339998,1048.0094699339998,1048.0094699339998,1048.0094699339998,1048.0094699339998,1048.0094699339998,1050.0450165840002,1050.0450165840002,1050.0450165840002,1050.0450165840002,,,,,,,,,,,,,,,,,,,,,,,,,,,,,,2,012,2022-09-27_15h32.42.392,test2,2022.2.4,59.98840724019541,
0,0,0,0,177,0,177,0,1050.0450165840002,1050.0450165840002,1050.0450165840002,1050.0450165840002,1050.0450165840002,1050.0450165840002,1050.0450165840002,1,-1,rojo,1,['N_A'],1051.3962928560004,1051.3962928560004,1051.3962928560004,1051.3962928560004,1053.432960614,1053.432960614,1053.432960614,1053.432960614,1053.432960614,1053.432960614,1053.432960614,1053.432960614,1055.467951994,1055.467951994,1055.467951994,1055.467951994,,,,,,,,,,,,,,,,,,,,,,,,,,,,,,2,012,2022-09-27_15h32.42.392,test2,2022.2.4,59.98840724019541,
0,0,0,0,178,0,178,0,1055.467951994,1055.467951994,1055.467951994,1055.467951994,1055.467951994,1055.467951994,1055.467951994,1,1,rojo,1,['N_A'],1056.8867058610003,1056.8867058610003,1056.8867058610003,1056.8867058610003,1058.9213401030001,1058.9213401030001,1058.9213401030001,1058.9213401030001,1058.9213401030001,1058.9213401030001,1058.9213401030001,1058.9213401030001,1060.9577590710005,1060.9577590710005,1060.9577590710005,1060.9577590710005,,,,,,,,,,,,,,,,,,,,,,,,,,,,,,2,012,2022-09-27_15h32.42.392,test2,2022.2.4,59.98840724019541,
0,0,0,0,179,0,179,0,1060.9577590710005,1060.9577590710005,1060.9577590710005,1060.9577590710005,1060.9577590710005,1060.9577590710005,1060.9577590710005,1,-1,rojo,1,['N_A'],1062.3087521610005,1062.3087521610005,1062.3087521610005,1062.3087521610005,1064.3445115860004,1064.3445115860004,1064.3445115860004,1064.3445115860004,1064.3445115860004,1064.3445115860004,1064.3445115860004,1064.3445115860004,1066.3797535160002,1066.3797535160002,1066.3797535160002,1066.3797535160002,,,,,,,,,,,,,,,,,,,,,,,,,,,,,,2,012,2022-09-27_15h32.42.392,test2,2022.2.4,59.98840724019541,
0,0,0,0,180,0,180,0,1066.3797535160002,1066.3797535160002,1066.3797535160002,1066.3797535160002,1066.3797535160002,1066.3797535160002,1066.3797535160002,1,-1,rojo,1,['N_A'],1067.7988694670003,1067.7988694670003,1067.7988694670003,1067.7988694670003,1069.8337965150004,1069.8337965150004,1069.8337965150004,1069.8337965150004,1069.8337965150004,1069.8337965150004,1069.8337965150004,1069.8337965150004,1071.8691578890002,1071.8691578890002,1071.8691578890002,1071.8691578890002,,,,,,,,,,,,,,,,,,,,,,,,,,,,,,2,012,2022-09-27_15h32.42.392,test2,2022.2.4,59.98840724019541,
