trials_2.thisRepN,trials_2.thisTrialN,trials_2.thisN,trials_2.thisIndex,trials.thisRepN,trials.thisTrialN,trials.thisN,trials.thisIndex,Instrucción2.started,N_A_4.started,N_B_4.started,Exitos_3.started,Dias_3.started,Stimuli_1.started,Stimuli_2.started,Transitions,Rewards,Mode,Stay,Neighbour,Stimuli_3.started,Modo.started,Dias2.started,Exitos2.started,Stimuli_3.stopped,Modo.stopped,Dias2.stopped,Exitos2.stopped,Reward.started,Stimuli_reward.started,Exitos3.started,Dias3.started,Reward.stopped,Stimuli_reward.stopped,Exitos3.stopped,Dias3.stopped,Cue_text.started,Stimuli_4.started,Exitos4.started,Dias4.started,Stimuli_3_3.started,Stimuli_2_3.started,Instrucción.started,N_A.started,N_B.started,N_C.started,Exitos_2.started,Dias_2.started,Stimuli_1_3.started,Stimuli_3_2.started,Stimuli_2_2.started,Pregunta.started,N_A_2.started,N_B_2.started,N_C_2.started,Exitos5.started,Dias5.started,Stimuli_1_2.started,Resp_final_1,Modo2.started,Modo1.started,Pregunta_4.started,Modo3.started,Exitos7.started,Dias6.started,Resp_final_2,Modo1_2.started,Pregunta_3.started,Modo2_2.started,Exitos8.started,Dias7.started,Resp_final_3,Mensaje_Final2.started,Exitos6.started,participant,session,date,expName,psychopyVersion,frameRate,
0,0,0,0,0,0,0,0,52.772442429999955,52.772442429999955,52.772442429999955,52.772442429999955,52.772442429999955,52.772442429999955,52.772442429999955,0,0,0,0,['N_A'],87.47647896499996,87.47647896499996,87.47647896499996,87.47647896499996,89.545564216,89.545564216,89.545564216,89.545564216,89.545564216,89.545564216,89.545564216,89.545564216,91.58245211899998,91.58245211899998,91.58245211899998,91.58245211899998,,,,,,,,,,,,,,,,,,,,,,,,,,,,,,,,,,,,,,,6,009,2022-09-26_09h00.26.271,test2,2022.2.4,59.942675740213375,
0,0,0,0,1,0,1,0,91.58245211899998,91.58245211899998,91.58245211899998,91.58245211899998,91.58245211899998,91.58245211899998,91.58245211899998,1,1,rojo,1,['N_A'],95.03608989400004,95.03608989400004,95.03608989400004,95.03608989400004,97.054974077,97.054974077,97.054974077,97.054974077,97.054974077,97.054974077,97.054974077,97.054974077,99.09048680900003,99.09048680900003,99.09048680900003,99.09048680900003,,,,,,,,,,,,,,,,,,,,,,,,,,,,,,,,,,,,,,,6,009,2022-09-26_09h00.26.271,test2,2022.2.4,59.942675740213375,
0,0,0,0,2,0,2,0,99.09048680900003,99.09048680900003,99.09048680900003,99.09048680900003,99.09048680900003,99.09048680900003,99.09048680900003,1,1,rojo,1,['N_A'],101.37690974600002,101.37690974600002,101.37690974600002,101.37690974600002,103.39420601899997,103.39420601899997,103.39420601899997,103.39420601899997,103.39420601899997,103.39420601899997,103.39420601899997,103.39420601899997,105.43030972999998,105.43030972999998,105.43030972999998,105.43030972999998,,,,,,,,,,,,,,,,,,,,,,,,,,,,,,,,,,,,,,,6,009,2022-09-26_09h00.26.271,test2,2022.2.4,59.942675740213375,
0,0,0,0,3,0,3,0,105.43030972999998,105.43030972999998,105.43030972999998,105.43030972999998,105.43030972999998,105.43030972999998,105.43030972999998,-1,1,azul,1,['N_A'],108.05046835899998,108.05046835899998,108.05046835899998,108.05046835899998,110.119206889,110.119206889,110.119206889,110.119206889,110.119206889,110.119206889,110.119206889,110.119206889,112.1537892,112.1537892,112.1537892,112.1537892,,,,,,,,,,,,,,,,,,,,,,,,,,,,,,,,,,,,,,,6,009,2022-09-26_09h00.26.271,test2,2022.2.4,59.942675740213375,
0,0,0,0,4,0,4,0,112.1537892,112.1537892,112.1537892,112.1537892,112.1537892,112.1537892,112.1537892,-1,-1,azul,1,['N_A'],114.40698288099998,114.40698288099998,114.40698288099998,114.40698288099998,116.44294650200004,116.44294650200004,116.44294650200004,116.44294650200004,116.44294650200004,116.44294650200004,116.44294650200004,116.44294650200004,118.47876333700003,118.47876333700003,118.47876333700003,118.47876333700003,,,,,,,,,,,,,,,,,,,,,,,,,,,,,,,,,,,,,,,6,009,2022-09-26_09h00.26.271,test2,2022.2.4,59.942675740213375,
0,0,0,0,5,0,5,0,118.47876333700003,118.47876333700003,118.47876333700003,118.47876333700003,118.47876333700003,118.47876333700003,118.47876333700003,1,1,rojo,1,['N_A'],121.09772208599998,121.09772208599998,121.09772208599998,121.09772208599998,123.13402075399995,123.13402075399995,123.13402075399995,123.13402075399995,123.13402075399995,123.13402075399995,123.13402075399995,123.13402075399995,125.16940752100004,125.16940752100004,125.16940752100004,125.16940752100004,,,,,,,,,,,,,,,,,,,,,,,,,,,,,,,,,,,,,,,6,009,2022-09-26_09h00.26.271,test2,2022.2.4,59.942675740213375,
0,0,0,0,6,0,6,0,125.16940752100004,125.16940752100004,125.16940752100004,125.16940752100004,125.16940752100004,125.16940752100004,125.16940752100004,1,-1,rojo,1,['N_A'],127.07067331199994,127.07067331199994,127.07067331199994,127.07067331199994,129.106499966,129.106499966,129.106499966,129.106499966,129.106499966,129.106499966,129.106499966,129.106499966,131.14261762599995,131.14261762599995,131.14261762599995,131.14261762599995,,,,,,,,,,,,,,,,,,,,,,,,,,,,,,,,,,,,,,,6,009,2022-09-26_09h00.26.271,test2,2022.2.4,59.942675740213375,
0,0,0,0,7,0,7,0,131.14261762599995,131.14261762599995,131.14261762599995,131.14261762599995,131.14261762599995,131.14261762599995,131.14261762599995,-1,1,azul,1,['N_A'],132.86084931200003,132.86084931200003,132.86084931200003,132.86084931200003,134.879753564,134.879753564,134.879753564,134.879753564,134.879753564,134.879753564,134.879753564,134.879753564,136.91553326300004,136.91553326300004,136.91553326300004,136.91553326300004,,,,,,,,,,,,,,,,,,,,,,,,,,,,,,,,,,,,,,,6,009,2022-09-26_09h00.26.271,test2,2022.2.4,59.942675740213375,
0,0,0,0,8,0,8,0,136.91553326300004,136.91553326300004,136.91553326300004,136.91553326300004,136.91553326300004,136.91553326300004,136.91553326300004,-1,1,azul,1,['N_A'],138.93404459700002,138.93404459700002,138.93404459700002,138.93404459700002,140.96983816399995,140.96983816399995,140.96983816399995,140.96983816399995,140.96983816399995,140.96983816399995,140.96983816399995,140.96983816399995,143.00533629999995,143.00533629999995,143.00533629999995,143.00533629999995,,,,,,,,,,,,,,,,,,,,,,,,,,,,,,,,,,,,,,,6,009,2022-09-26_09h00.26.271,test2,2022.2.4,59.942675740213375,
0,0,0,0,9,0,9,0,143.00533629999995,143.00533629999995,143.00533629999995,143.00533629999995,143.00533629999995,143.00533629999995,143.00533629999995,1,-1,rojo,1,['N_A'],145.140621808,145.140621808,145.140621808,145.140621808,147.17713247999995,147.17713247999995,147.17713247999995,147.17713247999995,147.17713247999995,147.17713247999995,147.17713247999995,147.17713247999995,149.212183106,149.212183106,149.212183106,149.212183106,,,,,,,,,,,,,,,,,,,,,,,,,,,,,,,,,,,,,,,6,009,2022-09-26_09h00.26.271,test2,2022.2.4,59.942675740213375,
0,0,0,0,10,0,10,0,149.212183106,149.212183106,149.212183106,149.212183106,149.212183106,149.212183106,149.212183106,1,1,rojo,1,['N_A'],151.31511489499997,151.31511489499997,151.31511489499997,151.31511489499997,153.33374162899997,153.33374162899997,153.33374162899997,153.33374162899997,153.33374162899997,153.33374162899997,153.33374162899997,153.33374162899997,155.36922431300002,155.36922431300002,155.36922431300002,155.36922431300002,,,,,,,,,,,,,,,,,,,,,,,,,,,,,,,,,,,,,,,6,009,2022-09-26_09h00.26.271,test2,2022.2.4,59.942675740213375,
0,0,0,0,11,0,11,0,155.36922431300002,155.36922431300002,155.36922431300002,155.36922431300002,155.36922431300002,155.36922431300002,155.36922431300002,1,1,rojo,1,['N_A'],158.45549595600005,158.45549595600005,158.45549595600005,158.45549595600005,160.474549121,160.474549121,160.474549121,160.474549121,160.474549121,160.474549121,160.474549121,160.474549121,162.50986004100002,162.50986004100002,162.50986004100002,162.50986004100002,,,,,,,,,,,,,,,,,,,,,,,,,,,,,,,,,,,,,,,6,009,2022-09-26_09h00.26.271,test2,2022.2.4,59.942675740213375,
0,0,0,0,12,0,12,0,162.50986004100002,162.50986004100002,162.50986004100002,162.50986004100002,162.50986004100002,162.50986004100002,162.50986004100002,1,1,rojo,1,['N_A'],165.33020244299996,165.33020244299996,165.33020244299996,165.33020244299996,167.365840069,167.365840069,167.365840069,167.365840069,167.365840069,167.365840069,167.365840069,167.365840069,169.40105561999997,169.40105561999997,169.40105561999997,169.40105561999997,,,,,,,,,,,,,,,,,,,,,,,,,,,,,,,,,,,,,,,6,009,2022-09-26_09h00.26.271,test2,2022.2.4,59.942675740213375,
0,0,0,0,13,0,13,0,169.40105561999997,169.40105561999997,169.40105561999997,169.40105561999997,169.40105561999997,169.40105561999997,169.40105561999997,1,-1,rojo,1,['N_A'],171.820197065,171.820197065,171.820197065,171.820197065,173.856843874,173.856843874,173.856843874,173.856843874,173.856843874,173.856843874,173.856843874,173.856843874,175.89139457800002,175.89139457800002,175.89139457800002,175.89139457800002,,,,,,,,,,,,,,,,,,,,,,,,,,,,,,,,,,,,,,,6,009,2022-09-26_09h00.26.271,test2,2022.2.4,59.942675740213375,
0,0,0,0,14,0,14,0,175.89139457800002,175.89139457800002,175.89139457800002,175.89139457800002,175.89139457800002,175.89139457800002,175.89139457800002,-1,-1,azul,1,['N_A'],177.776727328,177.776727328,177.776727328,177.776727328,179.81272536699998,179.81272536699998,179.81272536699998,179.81272536699998,179.81272536699998,179.81272536699998,179.81272536699998,179.81272536699998,181.84783778300005,181.84783778300005,181.84783778300005,181.84783778300005,,,,,,,,,,,,,,,,,,,,,,,,,,,,,,,,,,,,,,,6,009,2022-09-26_09h00.26.271,test2,2022.2.4,59.942675740213375,
0,0,0,0,15,0,15,0,181.84783778300005,181.84783778300005,181.84783778300005,181.84783778300005,181.84783778300005,181.84783778300005,181.84783778300005,1,-1,rojo,1,['N_A'],184.23427856700005,184.23427856700005,184.23427856700005,184.23427856700005,186.270453782,186.270453782,186.270453782,186.270453782,186.270453782,186.270453782,186.270453782,186.270453782,188.30490850700005,188.30490850700005,188.30490850700005,188.30490850700005,,,,,,,,,,,,,,,,,,,,,,,,,,,,,,,,,,,,,,,6,009,2022-09-26_09h00.26.271,test2,2022.2.4,59.942675740213375,
0,0,0,0,16,0,16,0,188.30490850700005,188.30490850700005,188.30490850700005,188.30490850700005,188.30490850700005,188.30490850700005,188.30490850700005,-1,1,azul,1,['N_A'],190.19039638100003,190.19039638100003,190.19039638100003,190.19039638100003,192.20909298699996,192.20909298699996,192.20909298699996,192.20909298699996,192.20909298699996,192.20909298699996,192.20909298699996,192.20909298699996,194.24486117799995,194.24486117799995,194.24486117799995,194.24486117799995,,,,,,,,,,,,,,,,,,,,,,,,,,,,,,,,,,,,,,,6,009,2022-09-26_09h00.26.271,test2,2022.2.4,59.942675740213375,
0,0,0,0,17,0,17,0,194.24486117799995,194.24486117799995,194.24486117799995,194.24486117799995,194.24486117799995,194.24486117799995,194.24486117799995,1,1,rojo,1,['N_A'],196.46414502000005,196.46414502000005,196.46414502000005,196.46414502000005,198.500438046,198.500438046,198.500438046,198.500438046,198.500438046,198.500438046,198.500438046,198.500438046,200.53601183700005,200.53601183700005,200.53601183700005,200.53601183700005,,,,,,,,,,,,,,,,,,,,,,,,,,,,,,,,,,,,,,,6,009,2022-09-26_09h00.26.271,test2,2022.2.4,59.942675740213375,
0,0,0,0,18,0,18,0,200.53601183700005,200.53601183700005,200.53601183700005,200.53601183700005,200.53601183700005,200.53601183700005,200.53601183700005,1,-1,rojo,1,['N_A'],203.13872934699998,203.13872934699998,203.13872934699998,203.13872934699998,205.17398183700004,205.17398183700004,205.17398183700004,205.17398183700004,205.17398183700004,205.17398183700004,205.17398183700004,205.17398183700004,207.20943080899997,207.20943080899997,207.20943080899997,207.20943080899997,,,,,,,,,,,,,,,,,,,,,,,,,,,,,,,,,,,,,,,6,009,2022-09-26_09h00.26.271,test2,2022.2.4,59.942675740213375,
0,0,0,0,19,0,19,0,207.20943080899997,207.20943080899997,207.20943080899997,207.20943080899997,207.20943080899997,207.20943080899997,207.20943080899997,1,-1,rojo,1,['N_A'],209.29506615399998,209.29506615399998,209.29506615399998,209.29506615399998,211.33086955099998,211.33086955099998,211.33086955099998,211.33086955099998,211.33086955099998,211.33086955099998,211.33086955099998,211.33086955099998,213.36693914399996,213.36693914399996,213.36693914399996,213.36693914399996,,,,,,,,,,,,,,,,,,,,,,,,,,,,,,,,,,,,,,,6,009,2022-09-26_09h00.26.271,test2,2022.2.4,59.942675740213375,
0,0,0,0,20,0,20,0,213.36693914399996,213.36693914399996,213.36693914399996,213.36693914399996,213.36693914399996,213.36693914399996,213.36693914399996,-1,-1,azul,1,['N_A'],215.485058911,215.485058911,215.485058911,215.485058911,217.52151733100004,217.52151733100004,217.52151733100004,217.52151733100004,217.52151733100004,217.52151733100004,217.52151733100004,217.52151733100004,219.55654058300001,219.55654058300001,219.55654058300001,219.55654058300001,,,,,,,,,,,,,,,,,,,,,,,,,,,,,,,,,,,,,,,6,009,2022-09-26_09h00.26.271,test2,2022.2.4,59.942675740213375,
0,0,0,0,21,0,21,0,219.55654058300001,219.55654058300001,219.55654058300001,219.55654058300001,219.55654058300001,219.55654058300001,219.55654058300001,1,-1,rojo,1,['N_A'],221.14135908900005,221.14135908900005,221.14135908900005,221.14135908900005,223.17784217999997,223.17784217999997,223.17784217999997,223.17784217999997,223.17784217999997,223.17784217999997,223.17784217999997,223.17784217999997,225.21326475900003,225.21326475900003,225.21326475900003,225.21326475900003,,,,,,,,,,,,,,,,,,,,,,,,,,,,,,,,,,,,,,,6,009,2022-09-26_09h00.26.271,test2,2022.2.4,59.942675740213375,
0,0,0,0,22,0,22,0,225.21326475900003,225.21326475900003,225.21326475900003,225.21326475900003,225.21326475900003,225.21326475900003,225.21326475900003,1,1,rojo,1,['N_A'],227.799345194,227.799345194,227.799345194,227.799345194,229.818054889,229.818054889,229.818054889,229.818054889,229.818054889,229.818054889,229.818054889,229.818054889,231.85303455899998,231.85303455899998,231.85303455899998,231.85303455899998,,,,,,,,,,,,,,,,,,,,,,,,,,,,,,,,,,,,,,,6,009,2022-09-26_09h00.26.271,test2,2022.2.4,59.942675740213375,
0,0,0,0,23,0,23,0,231.85303455899998,231.85303455899998,231.85303455899998,231.85303455899998,231.85303455899998,231.85303455899998,231.85303455899998,-1,1,azul,1,['N_A'],233.47177197999997,233.47177197999997,233.47177197999997,233.47177197999997,235.490934348,235.490934348,235.490934348,235.490934348,235.490934348,235.490934348,235.490934348,235.490934348,237.52683963100003,237.52683963100003,237.52683963100003,237.52683963100003,,,,,,,,,,,,,,,,,,,,,,,,,,,,,,,,,,,,,,,6,009,2022-09-26_09h00.26.271,test2,2022.2.4,59.942675740213375,
0,0,0,0,24,0,24,0,237.52683963100003,237.52683963100003,237.52683963100003,237.52683963100003,237.52683963100003,237.52683963100003,237.52683963100003,-1,1,azul,1,['N_A'],240.52956264399995,240.52956264399995,240.52956264399995,240.52956264399995,242.54716539499998,242.54716539499998,242.54716539499998,242.54716539499998,242.54716539499998,242.54716539499998,242.54716539499998,242.54716539499998,244.58409497499997,244.58409497499997,244.58409497499997,244.58409497499997,,,,,,,,,,,,,,,,,,,,,,,,,,,,,,,,,,,,,,,6,009,2022-09-26_09h00.26.271,test2,2022.2.4,59.942675740213375,
0,0,0,0,25,0,25,0,244.58409497499997,244.58409497499997,244.58409497499997,244.58409497499997,244.58409497499997,244.58409497499997,244.58409497499997,1,1,rojo,1,['N_A'],246.886480645,246.886480645,246.886480645,246.886480645,248.90501296900004,248.90501296900004,248.90501296900004,248.90501296900004,248.90501296900004,248.90501296900004,248.90501296900004,248.90501296900004,250.940749094,250.940749094,250.940749094,250.940749094,,,,,,,,,,,,,,,,,,,,,,,,,,,,,,,,,,,,,,,6,009,2022-09-26_09h00.26.271,test2,2022.2.4,59.942675740213375,
0,0,0,0,26,0,26,0,250.940749094,250.940749094,250.940749094,250.940749094,250.940749094,250.940749094,250.940749094,-1,1,azul,1,['N_A'],253.22695190599995,253.22695190599995,253.22695190599995,253.22695190599995,255.24563069399994,255.24563069399994,255.24563069399994,255.24563069399994,255.24563069399994,255.24563069399994,255.24563069399994,255.24563069399994,257.28109943899995,257.28109943899995,257.28109943899995,257.28109943899995,,,,,,,,,,,,,,,,,,,,,,,,,,,,,,,,,,,,,,,6,009,2022-09-26_09h00.26.271,test2,2022.2.4,59.942675740213375,
0,0,0,0,27,0,27,0,257.28109943899995,257.28109943899995,257.28109943899995,257.28109943899995,257.28109943899995,257.28109943899995,257.28109943899995,1,1,rojo,1,['N_A'],259.26678825299996,259.26678825299996,259.26678825299996,259.26678825299996,261.285171696,261.285171696,261.285171696,261.285171696,261.285171696,261.285171696,261.285171696,261.285171696,263.320976676,263.320976676,263.320976676,263.320976676,,,,,,,,,,,,,,,,,,,,,,,,,,,,,,,,,,,,,,,6,009,2022-09-26_09h00.26.271,test2,2022.2.4,59.942675740213375,
0,0,0,0,28,0,28,0,263.320976676,263.320976676,263.320976676,263.320976676,263.320976676,263.320976676,263.320976676,1,1,rojo,1,['N_A'],265.59108036500004,265.59108036500004,265.59108036500004,265.59108036500004,267.62612970400005,267.62612970400005,267.62612970400005,267.62612970400005,267.62612970400005,267.62612970400005,267.62612970400005,267.62612970400005,269.66171402099997,269.66171402099997,269.66171402099997,269.66171402099997,,,,,,,,,,,,,,,,,,,,,,,,,,,,,,,,,,,,,,,6,009,2022-09-26_09h00.26.271,test2,2022.2.4,59.942675740213375,
0,0,0,0,29,0,29,0,269.66171402099997,269.66171402099997,269.66171402099997,269.66171402099997,269.66171402099997,269.66171402099997,269.66171402099997,1,-1,rojo,1,['N_A'],271.94737736,271.94737736,271.94737736,271.94737736,273.98344132600005,273.98344132600005,273.98344132600005,273.98344132600005,273.98344132600005,273.98344132600005,273.98344132600005,273.98344132600005,276.018615854,276.018615854,276.018615854,276.018615854,,,,,,,,,,,,,,,,,,,,,,,,,,,,,,,,,,,,,,,6,009,2022-09-26_09h00.26.271,test2,2022.2.4,59.942675740213375,
0,0,0,0,30,0,30,0,276.018615854,276.018615854,276.018615854,276.018615854,276.018615854,276.018615854,276.018615854,1,-1,rojo,1,['N_A'],278.18840542399994,278.18840542399994,278.18840542399994,278.18840542399994,280.223901875,280.223901875,280.223901875,280.223901875,280.223901875,280.223901875,280.223901875,280.223901875,282.25850385499996,282.25850385499996,282.25850385499996,282.25850385499996,,,,,,,,,,,,,,,,,,,,,,,,,,,,,,,,,,,,,,,6,009,2022-09-26_09h00.26.271,test2,2022.2.4,59.942675740213375,
0,0,0,0,31,0,31,0,282.25850385499996,282.25850385499996,282.25850385499996,282.25850385499996,282.25850385499996,282.25850385499996,282.25850385499996,1,1,rojo,1,['N_A'],286.29707740000003,286.29707740000003,286.29707740000003,286.29707740000003,288.31592161000003,288.31592161000003,288.31592161000003,288.31592161000003,288.31592161000003,288.31592161000003,288.31592161000003,288.31592161000003,290.35178863299996,290.35178863299996,290.35178863299996,290.35178863299996,,,,,,,,,,,,,,,,,,,,,,,,,,,,,,,,,,,,,,,6,009,2022-09-26_09h00.26.271,test2,2022.2.4,59.942675740213375,
0,0,0,0,32,0,32,0,290.35178863299996,290.35178863299996,290.35178863299996,290.35178863299996,290.35178863299996,290.35178863299996,290.35178863299996,1,1,rojo,1,['N_A'],292.33719230199995,292.33719230199995,292.33719230199995,292.33719230199995,294.354313038,294.354313038,294.354313038,294.354313038,294.354313038,294.354313038,294.354313038,294.354313038,296.39158435,296.39158435,296.39158435,296.39158435,,,,,,,,,,,,,,,,,,,,,,,,,,,,,,,,,,,,,,,6,009,2022-09-26_09h00.26.271,test2,2022.2.4,59.942675740213375,
0,0,0,0,33,0,33,0,296.39158435,296.39158435,296.39158435,296.39158435,296.39158435,296.39158435,296.39158435,-1,1,azul,1,['N_A'],298.277283129,298.277283129,298.277283129,298.277283129,300.311994994,300.311994994,300.311994994,300.311994994,300.311994994,300.311994994,300.311994994,300.311994994,302.34795870100004,302.34795870100004,302.34795870100004,302.34795870100004,,,,,,,,,,,,,,,,,,,,,,,,,,,,,,,,,,,,,,,6,009,2022-09-26_09h00.26.271,test2,2022.2.4,59.942675740213375,
0,0,0,0,34,0,34,0,302.34795870100004,302.34795870100004,302.34795870100004,302.34795870100004,302.34795870100004,302.34795870100004,302.34795870100004,-1,-1,azul,1,['N_A'],303.766131709,303.766131709,303.766131709,303.766131709,305.801661414,305.801661414,305.801661414,305.801661414,305.801661414,305.801661414,305.801661414,305.801661414,307.83681969400004,307.83681969400004,307.83681969400004,307.83681969400004,,,,,,,,,,,,,,,,,,,,,,,,,,,,,,,,,,,,,,,6,009,2022-09-26_09h00.26.271,test2,2022.2.4,59.942675740213375,
0,0,0,0,35,0,35,0,307.83681969400004,307.83681969400004,307.83681969400004,307.83681969400004,307.83681969400004,307.83681969400004,307.83681969400004,-1,1,azul,1,['N_A'],309.75632962199995,309.75632962199995,309.75632962199995,309.75632962199995,311.77418176599997,311.77418176599997,311.77418176599997,311.77418176599997,311.77418176599997,311.77418176599997,311.77418176599997,311.77418176599997,313.810920981,313.810920981,313.810920981,313.810920981,,,,,,,,,,,,,,,,,,,,,,,,,,,,,,,,,,,,,,,6,009,2022-09-26_09h00.26.271,test2,2022.2.4,59.942675740213375,
0,0,0,0,36,0,36,0,313.810920981,313.810920981,313.810920981,313.810920981,313.810920981,313.810920981,313.810920981,-1,1,azul,1,['N_A'],316.2296976,316.2296976,316.2296976,316.2296976,318.26614015099995,318.26614015099995,318.26614015099995,318.26614015099995,318.26614015099995,318.26614015099995,318.26614015099995,318.26614015099995,320.30103517,320.30103517,320.30103517,320.30103517,,,,,,,,,,,,,,,,,,,,,,,,,,,,,,,,,,,,,,,6,009,2022-09-26_09h00.26.271,test2,2022.2.4,59.942675740213375,
0,0,0,0,37,0,37,0,320.30103517,320.30103517,320.30103517,320.30103517,320.30103517,320.30103517,320.30103517,-1,-1,azul,1,['N_A'],322.335941466,322.335941466,322.335941466,322.335941466,324.37179255599995,324.37179255599995,324.37179255599995,324.37179255599995,324.37179255599995,324.37179255599995,324.37179255599995,324.37179255599995,326.407970623,326.407970623,326.407970623,326.407970623,,,,,,,,,,,,,,,,,,,,,,,,,,,,,,,,,,,,,,,6,009,2022-09-26_09h00.26.271,test2,2022.2.4,59.942675740213375,
0,0,0,0,38,0,38,0,326.407970623,326.407970623,326.407970623,326.407970623,326.407970623,326.407970623,326.407970623,-1,1,azul,1,['N_A'],328.626800815,328.626800815,328.626800815,328.626800815,330.662882169,330.662882169,330.662882169,330.662882169,330.662882169,330.662882169,330.662882169,330.662882169,332.69862110199995,332.69862110199995,332.69862110199995,332.69862110199995,,,,,,,,,,,,,,,,,,,,,,,,,,,,,,,,,,,,,,,6,009,2022-09-26_09h00.26.271,test2,2022.2.4,59.942675740213375,
0,0,0,0,39,0,39,0,332.69862110199995,332.69862110199995,332.69862110199995,332.69862110199995,332.69862110199995,332.69862110199995,332.69862110199995,1,-1,rojo,1,['N_A'],334.30018306299996,334.30018306299996,334.30018306299996,334.30018306299996,336.33566623599995,336.33566623599995,336.33566623599995,336.33566623599995,336.33566623599995,336.33566623599995,336.33566623599995,336.33566623599995,338.37136114,338.37136114,338.37136114,338.37136114,,,,,,,,,,,,,,,,,,,,,,,,,,,,,,,,,,,,,,,6,009,2022-09-26_09h00.26.271,test2,2022.2.4,59.942675740213375,
0,0,0,0,40,0,40,0,338.37136114,338.37136114,338.37136114,338.37136114,338.37136114,338.37136114,338.37136114,1,1,rojo,1,['N_A'],340.1559880960001,340.1559880960001,340.1559880960001,340.1559880960001,342.1745405009999,342.1745405009999,342.1745405009999,342.1745405009999,342.1745405009999,342.1745405009999,342.1745405009999,342.1745405009999,344.2111296810001,344.2111296810001,344.2111296810001,344.2111296810001,,,,,,,,,,,,,,,,,,,,,,,,,,,,,,,,,,,,,,,6,009,2022-09-26_09h00.26.271,test2,2022.2.4,59.942675740213375,
0,0,0,0,41,0,41,0,344.2111296810001,344.2111296810001,344.2111296810001,344.2111296810001,344.2111296810001,344.2111296810001,344.2111296810001,1,1,rojo,1,['N_A'],346.11304091600005,346.11304091600005,346.11304091600005,346.11304091600005,348.132361835,348.132361835,348.132361835,348.132361835,348.132361835,348.132361835,348.132361835,348.132361835,350.16776365500004,350.16776365500004,350.16776365500004,350.16776365500004,,,,,,,,,,,,,,,,,,,,,,,,,,,,,,,,,,,,,,,6,009,2022-09-26_09h00.26.271,test2,2022.2.4,59.942675740213375,
0,0,0,0,42,0,42,0,350.16776365500004,350.16776365500004,350.16776365500004,350.16776365500004,350.16776365500004,350.16776365500004,350.16776365500004,1,1,rojo,1,['N_A'],352.82059155699994,352.82059155699994,352.82059155699994,352.82059155699994,354.838905309,354.838905309,354.838905309,354.838905309,354.838905309,354.838905309,354.838905309,354.838905309,356.874680742,356.874680742,356.874680742,356.874680742,,,,,,,,,,,,,,,,,,,,,,,,,,,,,,,,,,,,,,,6,009,2022-09-26_09h00.26.271,test2,2022.2.4,59.942675740213375,
0,0,0,0,43,0,43,0,356.874680742,356.874680742,356.874680742,356.874680742,356.874680742,356.874680742,356.874680742,1,1,rojo,1,['N_A'],358.993631411,358.993631411,358.993631411,358.993631411,361.029499796,361.029499796,361.029499796,361.029499796,361.029499796,361.029499796,361.029499796,361.029499796,363.064756665,363.064756665,363.064756665,363.064756665,,,,,,,,,,,,,,,,,,,,,,,,,,,,,,,,,,,,,,,6,009,2022-09-26_09h00.26.271,test2,2022.2.4,59.942675740213375,
0,0,0,0,44,0,44,0,363.064756665,363.064756665,363.064756665,363.064756665,363.064756665,363.064756665,363.064756665,1,-1,rojo,1,['N_A'],364.88359571399997,364.88359571399997,364.88359571399997,364.88359571399997,366.9192676729999,366.9192676729999,366.9192676729999,366.9192676729999,366.9192676729999,366.9192676729999,366.9192676729999,366.9192676729999,368.95436251699994,368.95436251699994,368.95436251699994,368.95436251699994,,,,,,,,,,,,,,,,,,,,,,,,,,,,,,,,,,,,,,,6,009,2022-09-26_09h00.26.271,test2,2022.2.4,59.942675740213375,
0,0,0,0,45,0,45,0,368.95436251699994,368.95436251699994,368.95436251699994,368.95436251699994,368.95436251699994,368.95436251699994,368.95436251699994,1,-1,rojo,1,['N_A'],371.57398682100006,371.57398682100006,371.57398682100006,371.57398682100006,373.60948368000004,373.60948368000004,373.60948368000004,373.60948368000004,373.60948368000004,373.60948368000004,373.60948368000004,373.60948368000004,375.64586478699994,375.64586478699994,375.64586478699994,375.64586478699994,,,,,,,,,,,,,,,,,,,,,,,,,,,,,,,,,,,,,,,6,009,2022-09-26_09h00.26.271,test2,2022.2.4,59.942675740213375,
0,0,0,0,46,0,46,0,375.64586478699994,375.64586478699994,375.64586478699994,375.64586478699994,375.64586478699994,375.64586478699994,375.64586478699994,-1,1,azul,1,['N_A'],378.1320240959999,378.1320240959999,378.1320240959999,378.1320240959999,380.1503905479999,380.1503905479999,380.1503905479999,380.1503905479999,380.1503905479999,380.1503905479999,380.1503905479999,380.1503905479999,382.18577028000004,382.18577028000004,382.18577028000004,382.18577028000004,,,,,,,,,,,,,,,,,,,,,,,,,,,,,,,,,,,,,,,6,009,2022-09-26_09h00.26.271,test2,2022.2.4,59.942675740213375,
0,0,0,0,47,0,47,0,382.18577028000004,382.18577028000004,382.18577028000004,382.18577028000004,382.18577028000004,382.18577028000004,382.18577028000004,1,1,rojo,1,['N_A'],384.2715042909999,384.2715042909999,384.2715042909999,384.2715042909999,386.29070161799996,386.29070161799996,386.29070161799996,386.29070161799996,386.29070161799996,386.29070161799996,386.29070161799996,386.29070161799996,388.3265456470001,388.3265456470001,388.3265456470001,388.3265456470001,,,,,,,,,,,,,,,,,,,,,,,,,,,,,,,,,,,,,,,6,009,2022-09-26_09h00.26.271,test2,2022.2.4,59.942675740213375,
0,0,0,0,48,0,48,0,388.3265456470001,388.3265456470001,388.3265456470001,388.3265456470001,388.3265456470001,388.3265456470001,388.3265456470001,-1,1,azul,1,['N_A'],390.4121195729999,390.4121195729999,390.4121195729999,390.4121195729999,392.447368353,392.447368353,392.447368353,392.447368353,392.447368353,392.447368353,392.447368353,392.447368353,394.4833317539999,394.4833317539999,394.4833317539999,394.4833317539999,,,,,,,,,,,,,,,,,,,,,,,,,,,,,,,,,,,,,,,6,009,2022-09-26_09h00.26.271,test2,2022.2.4,59.942675740213375,
0,0,0,0,49,0,49,0,394.4833317539999,394.4833317539999,394.4833317539999,394.4833317539999,394.4833317539999,394.4833317539999,394.4833317539999,-1,-1,azul,1,['N_A'],396.20090486799995,396.20090486799995,396.20090486799995,396.20090486799995,398.2374780099999,398.2374780099999,398.2374780099999,398.2374780099999,398.2374780099999,398.2374780099999,398.2374780099999,398.2374780099999,400.2724042919999,400.2724042919999,400.2724042919999,400.2724042919999,,,,,,,,,,,,,,,,,,,,,,,,,,,,,,,,,,,,,,,6,009,2022-09-26_09h00.26.271,test2,2022.2.4,59.942675740213375,
0,0,0,0,50,0,50,0,400.2724042919999,400.2724042919999,400.2724042919999,400.2724042919999,400.2724042919999,400.2724042919999,400.2724042919999,-1,1,azul,1,['N_A'],402.15808554499995,402.15808554499995,402.15808554499995,402.15808554499995,404.19312501700006,404.19312501700006,404.19312501700006,404.19312501700006,404.19312501700006,404.19312501700006,404.19312501700006,404.19312501700006,406.229589839,406.229589839,406.229589839,406.229589839,,,,,,,,,,,,,,,,,,,,,,,,,,,,,,,,,,,,,,,6,009,2022-09-26_09h00.26.271,test2,2022.2.4,59.942675740213375,
0,0,0,0,51,0,51,0,406.229589839,406.229589839,406.229589839,406.229589839,406.229589839,406.229589839,406.229589839,1,-1,rojo,1,['N_A'],408.3481292449999,408.3481292449999,408.3481292449999,408.3481292449999,410.384247898,410.384247898,410.384247898,410.384247898,410.384247898,410.384247898,410.384247898,410.384247898,412.4189408110001,412.4189408110001,412.4189408110001,412.4189408110001,,,,,,,,,,,,,,,,,,,,,,,,,,,,,,,,,,,,,,,6,009,2022-09-26_09h00.26.271,test2,2022.2.4,59.942675740213375,
0,0,0,0,52,0,52,0,412.4189408110001,412.4189408110001,412.4189408110001,412.4189408110001,412.4189408110001,412.4189408110001,412.4189408110001,1,1,rojo,1,['N_A'],414.92252288500003,414.92252288500003,414.92252288500003,414.92252288500003,416.95737389300007,416.95737389300007,416.95737389300007,416.95737389300007,416.95737389300007,416.95737389300007,416.95737389300007,416.95737389300007,418.992939882,418.992939882,418.992939882,418.992939882,,,,,,,,,,,,,,,,,,,,,,,,,,,,,,,,,,,,,,,6,009,2022-09-26_09h00.26.271,test2,2022.2.4,59.942675740213375,
0,0,0,0,53,0,53,0,418.992939882,418.992939882,418.992939882,418.992939882,418.992939882,418.992939882,418.992939882,-1,-1,azul,1,['N_A'],420.678261,420.678261,420.678261,420.678261,422.71401493300004,422.71401493300004,422.71401493300004,422.71401493300004,422.71401493300004,422.71401493300004,422.71401493300004,422.71401493300004,424.7494419320001,424.7494419320001,424.7494419320001,424.7494419320001,,,,,,,,,,,,,,,,,,,,,,,,,,,,,,,,,,,,,,,6,009,2022-09-26_09h00.26.271,test2,2022.2.4,59.942675740213375,
0,0,0,0,54,0,54,0,424.7494419320001,424.7494419320001,424.7494419320001,424.7494419320001,424.7494419320001,424.7494419320001,424.7494419320001,1,-1,rojo,1,['N_A'],426.184139041,426.184139041,426.184139041,426.184139041,428.220977511,428.220977511,428.220977511,428.220977511,428.220977511,428.220977511,428.220977511,428.220977511,430.25580212,430.25580212,430.25580212,430.25580212,,,,,,,,,,,,,,,,,,,,,,,,,,,,,,,,,,,,,,,6,009,2022-09-26_09h00.26.271,test2,2022.2.4,59.942675740213375,
0,0,0,0,55,0,55,0,430.25580212,430.25580212,430.25580212,430.25580212,430.25580212,430.25580212,430.25580212,1,1,rojo,1,['N_A'],432.02418465100004,432.02418465100004,432.02418465100004,432.02418465100004,434.0598245440001,434.0598245440001,434.0598245440001,434.0598245440001,434.0598245440001,434.0598245440001,434.0598245440001,434.0598245440001,436.095455335,436.095455335,436.095455335,436.095455335,,,,,,,,,,,,,,,,,,,,,,,,,,,,,,,,,,,,,,,6,009,2022-09-26_09h00.26.271,test2,2022.2.4,59.942675740213375,
0,0,0,0,56,0,56,0,436.095455335,436.095455335,436.095455335,436.095455335,436.095455335,436.095455335,436.095455335,1,-1,rojo,1,['N_A'],437.614195808,437.614195808,437.614195808,437.614195808,439.64893131400004,439.64893131400004,439.64893131400004,439.64893131400004,439.64893131400004,439.64893131400004,439.64893131400004,439.64893131400004,441.6846807059999,441.6846807059999,441.6846807059999,441.6846807059999,,,,,,,,,,,,,,,,,,,,,,,,,,,,,,,,,,,,,,,6,009,2022-09-26_09h00.26.271,test2,2022.2.4,59.942675740213375,
0,0,0,0,57,0,57,0,441.6846807059999,441.6846807059999,441.6846807059999,441.6846807059999,441.6846807059999,441.6846807059999,441.6846807059999,-1,-1,azul,1,['N_A'],443.67068897800004,443.67068897800004,443.67068897800004,443.67068897800004,445.7065944420001,445.7065944420001,445.7065944420001,445.7065944420001,445.7065944420001,445.7065944420001,445.7065944420001,445.7065944420001,447.74108678900006,447.74108678900006,447.74108678900006,447.74108678900006,,,,,,,,,,,,,,,,,,,,,,,,,,,,,,,,,,,,,,,6,009,2022-09-26_09h00.26.271,test2,2022.2.4,59.942675740213375,
0,0,0,0,58,0,58,0,447.74108678900006,447.74108678900006,447.74108678900006,447.74108678900006,447.74108678900006,447.74108678900006,447.74108678900006,-1,1,azul,1,['N_A'],450.261262041,450.261262041,450.261262041,450.261262041,452.2793903290001,452.2793903290001,452.2793903290001,452.2793903290001,452.2793903290001,452.2793903290001,452.2793903290001,452.2793903290001,454.315629769,454.315629769,454.315629769,454.315629769,,,,,,,,,,,,,,,,,,,,,,,,,,,,,,,,,,,,,,,6,009,2022-09-26_09h00.26.271,test2,2022.2.4,59.942675740213375,
0,0,0,0,59,0,59,0,454.315629769,454.315629769,454.315629769,454.315629769,454.315629769,454.315629769,454.315629769,1,1,rojo,1,['N_A'],456.73493205599993,456.73493205599993,456.73493205599993,456.73493205599993,458.77055722,458.77055722,458.77055722,458.77055722,458.77055722,458.77055722,458.77055722,458.77055722,460.80570217800005,460.80570217800005,460.80570217800005,460.80570217800005,,,,,,,,,,,,,,,,,,,,,,,,,,,,,,,,,,,,,,,6,009,2022-09-26_09h00.26.271,test2,2022.2.4,59.942675740213375,
0,0,0,0,60,0,60,0,460.80570217800005,460.80570217800005,460.80570217800005,460.80570217800005,460.80570217800005,460.80570217800005,460.80570217800005,1,-1,rojo,1,['N_A'],462.89139012500004,462.89139012500004,462.89139012500004,462.89139012500004,464.92749518999995,464.92749518999995,464.92749518999995,464.92749518999995,464.92749518999995,464.92749518999995,464.92749518999995,464.92749518999995,466.962256263,466.962256263,466.962256263,466.962256263,,,,,,,,,,,,,,,,,,,,,,,,,,,,,,,,,,,,,,,6,009,2022-09-26_09h00.26.271,test2,2022.2.4,59.942675740213375,
0,0,0,0,61,0,61,0,466.962256263,466.962256263,466.962256263,466.962256263,466.962256263,466.962256263,466.962256263,1,1,rojo,1,['N_A'],469.015562153,469.015562153,469.015562153,469.015562153,471.0508032989999,471.0508032989999,471.0508032989999,471.0508032989999,471.0508032989999,471.0508032989999,471.0508032989999,471.0508032989999,473.08588905400006,473.08588905400006,473.08588905400006,473.08588905400006,,,,,,,,,,,,,,,,,,,,,,,,,,,,,,,,,,,,,,,6,009,2022-09-26_09h00.26.271,test2,2022.2.4,59.942675740213375,
0,0,0,0,62,0,62,0,473.08588905400006,473.08588905400006,473.08588905400006,473.08588905400006,473.08588905400006,473.08588905400006,473.08588905400006,1,-1,rojo,1,['N_A'],474.604345107,474.604345107,474.604345107,474.604345107,476.640234813,476.640234813,476.640234813,476.640234813,476.640234813,476.640234813,476.640234813,476.640234813,478.67538496199995,478.67538496199995,478.67538496199995,478.67538496199995,,,,,,,,,,,,,,,,,,,,,,,,,,,,,,,,,,,,,,,6,009,2022-09-26_09h00.26.271,test2,2022.2.4,59.942675740213375,
0,0,0,0,63,0,63,0,478.67538496199995,478.67538496199995,478.67538496199995,478.67538496199995,478.67538496199995,478.67538496199995,478.67538496199995,-1,1,azul,1,['N_A'],480.093914929,480.093914929,480.093914929,480.093914929,482.112754432,482.112754432,482.112754432,482.112754432,482.112754432,482.112754432,482.112754432,482.112754432,484.1479386169999,484.1479386169999,484.1479386169999,484.1479386169999,,,,,,,,,,,,,,,,,,,,,,,,,,,,,,,,,,,,,,,6,009,2022-09-26_09h00.26.271,test2,2022.2.4,59.942675740213375,
0,0,0,0,64,0,64,0,484.1479386169999,484.1479386169999,484.1479386169999,484.1479386169999,484.1479386169999,484.1479386169999,484.1479386169999,1,1,rojo,1,['N_A'],485.683952222,485.683952222,485.683952222,485.683952222,487.7193821159999,487.7193821159999,487.7193821159999,487.7193821159999,487.7193821159999,487.7193821159999,487.7193821159999,487.7193821159999,489.755155975,489.755155975,489.755155975,489.755155975,,,,,,,,,,,,,,,,,,,,,,,,,,,,,,,,,,,,,,,6,009,2022-09-26_09h00.26.271,test2,2022.2.4,59.942675740213375,
0,0,0,0,65,0,65,0,489.755155975,489.755155975,489.755155975,489.755155975,489.755155975,489.755155975,489.755155975,1,-1,rojo,1,['N_A'],491.17314022000005,491.17314022000005,491.17314022000005,491.17314022000005,493.20834731800005,493.20834731800005,493.20834731800005,493.20834731800005,493.20834731800005,493.20834731800005,493.20834731800005,493.20834731800005,495.2436364959999,495.2436364959999,495.2436364959999,495.2436364959999,,,,,,,,,,,,,,,,,,,,,,,,,,,,,,,,,,,,,,,6,009,2022-09-26_09h00.26.271,test2,2022.2.4,59.942675740213375,
0,0,0,0,66,0,66,0,495.2436364959999,495.2436364959999,495.2436364959999,495.2436364959999,495.2436364959999,495.2436364959999,495.2436364959999,1,-1,rojo,1,['N_A'],497.3296647269999,497.3296647269999,497.3296647269999,497.3296647269999,499.3655287260001,499.3655287260001,499.3655287260001,499.3655287260001,499.3655287260001,499.3655287260001,499.3655287260001,499.3655287260001,501.4005134019999,501.4005134019999,501.4005134019999,501.4005134019999,,,,,,,,,,,,,,,,,,,,,,,,,,,,,,,,,,,,,,,6,009,2022-09-26_09h00.26.271,test2,2022.2.4,59.942675740213375,
0,0,0,0,67,0,67,0,501.4005134019999,501.4005134019999,501.4005134019999,501.4005134019999,501.4005134019999,501.4005134019999,501.4005134019999,1,1,rojo,1,['N_A'],503.169338615,503.169338615,503.169338615,503.169338615,505.18728362499996,505.18728362499996,505.18728362499996,505.18728362499996,505.18728362499996,505.18728362499996,505.18728362499996,505.18728362499996,507.224230456,507.224230456,507.224230456,507.224230456,,,,,,,,,,,,,,,,,,,,,,,,,,,,,,,,,,,,,,,6,009,2022-09-26_09h00.26.271,test2,2022.2.4,59.942675740213375,
0,0,0,0,68,0,68,0,507.224230456,507.224230456,507.224230456,507.224230456,507.224230456,507.224230456,507.224230456,-1,1,azul,1,['N_A'],508.7925311009999,508.7925311009999,508.7925311009999,508.7925311009999,510.8100556259999,510.8100556259999,510.8100556259999,510.8100556259999,510.8100556259999,510.8100556259999,510.8100556259999,510.8100556259999,512.8467494470001,512.8467494470001,512.8467494470001,512.8467494470001,,,,,,,,,,,,,,,,,,,,,,,,,,,,,,,,,,,,,,,6,009,2022-09-26_09h00.26.271,test2,2022.2.4,59.942675740213375,
0,0,0,0,69,0,69,0,512.8467494470001,512.8467494470001,512.8467494470001,512.8467494470001,512.8467494470001,512.8467494470001,512.8467494470001,1,1,rojo,1,['N_A'],514.465238928,514.465238928,514.465238928,514.465238928,516.4833033550001,516.4833033550001,516.4833033550001,516.4833033550001,516.4833033550001,516.4833033550001,516.4833033550001,516.4833033550001,518.5194283989999,518.5194283989999,518.5194283989999,518.5194283989999,,,,,,,,,,,,,,,,,,,,,,,,,,,,,,,,,,,,,,,6,009,2022-09-26_09h00.26.271,test2,2022.2.4,59.942675740213375,
0,0,0,0,70,0,70,0,518.5194283989999,518.5194283989999,518.5194283989999,518.5194283989999,518.5194283989999,518.5194283989999,518.5194283989999,-1,1,azul,1,['N_A'],520.4046775700001,520.4046775700001,520.4046775700001,520.4046775700001,522.4408895419999,522.4408895419999,522.4408895419999,522.4408895419999,522.4408895419999,522.4408895419999,522.4408895419999,522.4408895419999,524.4767713429999,524.4767713429999,524.4767713429999,524.4767713429999,,,,,,,,,,,,,,,,,,,,,,,,,,,,,,,,,,,,,,,6,009,2022-09-26_09h00.26.271,test2,2022.2.4,59.942675740213375,
0,0,0,0,71,0,71,0,524.4767713429999,524.4767713429999,524.4767713429999,524.4767713429999,524.4767713429999,524.4767713429999,524.4767713429999,1,-1,rojo,1,['N_A'],526.0276626360001,526.0276626360001,526.0276626360001,526.0276626360001,528.0629755519999,528.0629755519999,528.0629755519999,528.0629755519999,528.0629755519999,528.0629755519999,528.0629755519999,528.0629755519999,530.0987222399999,530.0987222399999,530.0987222399999,530.0987222399999,,,,,,,,,,,,,,,,,,,,,,,,,,,,,,,,,,,,,,,6,009,2022-09-26_09h00.26.271,test2,2022.2.4,59.942675740213375,
0,0,0,0,72,0,72,0,530.0987222399999,530.0987222399999,530.0987222399999,530.0987222399999,530.0987222399999,530.0987222399999,530.0987222399999,1,1,rojo,1,['N_A'],531.717655573,531.717655573,531.717655573,531.717655573,533.7358217819999,533.7358217819999,533.7358217819999,533.7358217819999,533.7358217819999,533.7358217819999,533.7358217819999,533.7358217819999,535.771568787,535.771568787,535.771568787,535.771568787,,,,,,,,,,,,,,,,,,,,,,,,,,,,,,,,,,,,,,,6,009,2022-09-26_09h00.26.271,test2,2022.2.4,59.942675740213375,
0,0,0,0,73,0,73,0,535.771568787,535.771568787,535.771568787,535.771568787,535.771568787,535.771568787,535.771568787,1,1,rojo,1,['N_A'],537.857213066,537.857213066,537.857213066,537.857213066,539.8937095429999,539.8937095429999,539.8937095429999,539.8937095429999,539.8937095429999,539.8937095429999,539.8937095429999,539.8937095429999,541.9289039160001,541.9289039160001,541.9289039160001,541.9289039160001,,,,,,,,,,,,,,,,,,,,,,,,,,,,,,,,,,,,,,,6,009,2022-09-26_09h00.26.271,test2,2022.2.4,59.942675740213375,
0,0,0,0,74,0,74,0,541.9289039160001,541.9289039160001,541.9289039160001,541.9289039160001,541.9289039160001,541.9289039160001,541.9289039160001,1,-1,rojo,1,['N_A'],543.447258034,543.447258034,543.447258034,543.447258034,545.483235806,545.483235806,545.483235806,545.483235806,545.483235806,545.483235806,545.483235806,545.483235806,547.5186678279999,547.5186678279999,547.5186678279999,547.5186678279999,,,,,,,,,,,,,,,,,,,,,,,,,,,,,,,,,,,,,,,6,009,2022-09-26_09h00.26.271,test2,2022.2.4,59.942675740213375,
0,0,0,0,75,0,75,0,547.5186678279999,547.5186678279999,547.5186678279999,547.5186678279999,547.5186678279999,547.5186678279999,547.5186678279999,1,-1,rojo,1,['N_A'],548.95362914,548.95362914,548.95362914,548.95362914,550.9887766960001,550.9887766960001,550.9887766960001,550.9887766960001,550.9887766960001,550.9887766960001,550.9887766960001,550.9887766960001,553.024264528,553.024264528,553.024264528,553.024264528,,,,,,,,,,,,,,,,,,,,,,,,,,,,,,,,,,,,,,,6,009,2022-09-26_09h00.26.271,test2,2022.2.4,59.942675740213375,
0,0,0,0,76,0,76,0,553.024264528,553.024264528,553.024264528,553.024264528,553.024264528,553.024264528,553.024264528,1,-1,rojo,1,['N_A'],554.4761061500001,554.4761061500001,554.4761061500001,554.4761061500001,556.511687767,556.511687767,556.511687767,556.511687767,556.511687767,556.511687767,556.511687767,556.511687767,558.546849759,558.546849759,558.546849759,558.546849759,,,,,,,,,,,,,,,,,,,,,,,,,,,,,,,,,,,,,,,6,009,2022-09-26_09h00.26.271,test2,2022.2.4,59.942675740213375,
0,0,0,0,77,0,77,0,558.546849759,558.546849759,558.546849759,558.546849759,558.546849759,558.546849759,558.546849759,1,-1,rojo,1,['N_A'],560.148794662,560.148794662,560.148794662,560.148794662,562.1845575699999,562.1845575699999,562.1845575699999,562.1845575699999,562.1845575699999,562.1845575699999,562.1845575699999,562.1845575699999,564.22019884,564.22019884,564.22019884,564.22019884,,,,,,,,,,,,,,,,,,,,,,,,,,,,,,,,,,,,,,,6,009,2022-09-26_09h00.26.271,test2,2022.2.4,59.942675740213375,
0,0,0,0,78,0,78,0,564.22019884,564.22019884,564.22019884,564.22019884,564.22019884,564.22019884,564.22019884,1,-1,rojo,1,['N_A'],565.6549124799999,565.6549124799999,565.6549124799999,565.6549124799999,567.691115974,567.691115974,567.691115974,567.691115974,567.691115974,567.691115974,567.691115974,567.691115974,569.725902532,569.725902532,569.725902532,569.725902532,,,,,,,,,,,,,,,,,,,,,,,,,,,,,,,,,,,,,,,6,009,2022-09-26_09h00.26.271,test2,2022.2.4,59.942675740213375,
0,0,0,0,79,0,79,0,569.725902532,569.725902532,569.725902532,569.725902532,569.725902532,569.725902532,569.725902532,1,-1,rojo,1,['N_A'],571.5947680439999,571.5947680439999,571.5947680439999,571.5947680439999,573.630424919,573.630424919,573.630424919,573.630424919,573.630424919,573.630424919,573.630424919,573.630424919,575.6661739849999,575.6661739849999,575.6661739849999,575.6661739849999,,,,,,,,,,,,,,,,,,,,,,,,,,,,,,,,,,,,,,,6,009,2022-09-26_09h00.26.271,test2,2022.2.4,59.942675740213375,
0,0,0,0,80,0,80,0,575.6661739849999,575.6661739849999,575.6661739849999,575.6661739849999,575.6661739849999,575.6661739849999,575.6661739849999,-1,1,azul,1,['N_A'],577.184384445,577.184384445,577.184384445,577.184384445,579.2030948050001,579.2030948050001,579.2030948050001,579.2030948050001,579.2030948050001,579.2030948050001,579.2030948050001,579.2030948050001,581.2386731239999,581.2386731239999,581.2386731239999,581.2386731239999,,,,,,,,,,,,,,,,,,,,,,,,,,,,,,,,,,,,,,,6,009,2022-09-26_09h00.26.271,test2,2022.2.4,59.942675740213375,
0,0,0,0,81,0,81,0,581.2386731239999,581.2386731239999,581.2386731239999,581.2386731239999,581.2386731239999,581.2386731239999,581.2386731239999,1,1,rojo,1,['N_A'],582.941037408,582.941037408,582.941037408,582.941037408,584.9764406720001,584.9764406720001,584.9764406720001,584.9764406720001,584.9764406720001,584.9764406720001,584.9764406720001,584.9764406720001,587.011719306,587.011719306,587.011719306,587.011719306,,,,,,,,,,,,,,,,,,,,,,,,,,,,,,,,,,,,,,,6,009,2022-09-26_09h00.26.271,test2,2022.2.4,59.942675740213375,
0,0,0,0,82,0,82,0,587.011719306,587.011719306,587.011719306,587.011719306,587.011719306,587.011719306,587.011719306,1,-1,rojo,1,['N_A'],590.4154382629999,590.4154382629999,590.4154382629999,590.4154382629999,592.452018923,592.452018923,592.452018923,592.452018923,592.452018923,592.452018923,592.452018923,592.452018923,594.4873000980001,594.4873000980001,594.4873000980001,594.4873000980001,,,,,,,,,,,,,,,,,,,,,,,,,,,,,,,,,,,,,,,6,009,2022-09-26_09h00.26.271,test2,2022.2.4,59.942675740213375,
0,0,0,0,83,0,83,0,594.4873000980001,594.4873000980001,594.4873000980001,594.4873000980001,594.4873000980001,594.4873000980001,594.4873000980001,-1,-1,azul,1,['N_A'],598.1075630129999,598.1075630129999,598.1075630129999,598.1075630129999,600.143057728,600.143057728,600.143057728,600.143057728,600.143057728,600.143057728,600.143057728,600.143057728,602.1791486479999,602.1791486479999,602.1791486479999,602.1791486479999,,,,,,,,,,,,,,,,,,,,,,,,,,,,,,,,,,,,,,,6,009,2022-09-26_09h00.26.271,test2,2022.2.4,59.942675740213375,
0,0,0,0,84,0,84,0,602.1791486479999,602.1791486479999,602.1791486479999,602.1791486479999,602.1791486479999,602.1791486479999,602.1791486479999,1,-1,rojo,1,['N_A'],603.546260547,603.546260547,603.546260547,603.546260547,605.582295683,605.582295683,605.582295683,605.582295683,605.582295683,605.582295683,605.582295683,605.582295683,607.618344081,607.618344081,607.618344081,607.618344081,,,,,,,,,,,,,,,,,,,,,,,,,,,,,,,,,,,,,,,6,009,2022-09-26_09h00.26.271,test2,2022.2.4,59.942675740213375,
0,0,0,0,85,0,85,0,607.618344081,607.618344081,607.618344081,607.618344081,607.618344081,607.618344081,607.618344081,-1,-1,azul,1,['N_A'],609.102787003,609.102787003,609.102787003,609.102787003,611.1391345659999,611.1391345659999,611.1391345659999,611.1391345659999,611.1391345659999,611.1391345659999,611.1391345659999,611.1391345659999,613.1747186810001,613.1747186810001,613.1747186810001,613.1747186810001,,,,,,,,,,,,,,,,,,,,,,,,,,,,,,,,,,,,,,,6,009,2022-09-26_09h00.26.271,test2,2022.2.4,59.942675740213375,
0,0,0,0,86,0,86,0,613.1747186810001,613.1747186810001,613.1747186810001,613.1747186810001,613.1747186810001,613.1747186810001,613.1747186810001,1,1,rojo,1,['N_A'],614.6088851940001,614.6088851940001,614.6088851940001,614.6088851940001,616.6444190079999,616.6444190079999,616.6444190079999,616.6444190079999,616.6444190079999,616.6444190079999,616.6444190079999,616.6444190079999,618.68063228,618.68063228,618.68063228,618.68063228,,,,,,,,,,,,,,,,,,,,,,,,,,,,,,,,,,,,,,,6,009,2022-09-26_09h00.26.271,test2,2022.2.4,59.942675740213375,
0,0,0,0,87,0,87,0,618.68063228,618.68063228,618.68063228,618.68063228,618.68063228,618.68063228,618.68063228,1,-1,rojo,1,['N_A'],620.114996908,620.114996908,620.114996908,620.114996908,622.150681305,622.150681305,622.150681305,622.150681305,622.150681305,622.150681305,622.150681305,622.150681305,624.1854131949999,624.1854131949999,624.1854131949999,624.1854131949999,,,,,,,,,,,,,,,,,,,,,,,,,,,,,,,,,,,,,,,6,009,2022-09-26_09h00.26.271,test2,2022.2.4,59.942675740213375,
0,0,0,0,88,0,88,0,624.1854131949999,624.1854131949999,624.1854131949999,624.1854131949999,624.1854131949999,624.1854131949999,624.1854131949999,1,1,rojo,1,['N_A'],625.720854957,625.720854957,625.720854957,625.720854957,627.740089682,627.740089682,627.740089682,627.740089682,627.740089682,627.740089682,627.740089682,627.740089682,629.7763026759999,629.7763026759999,629.7763026759999,629.7763026759999,,,,,,,,,,,,,,,,,,,,,,,,,,,,,,,,,,,,,,,6,009,2022-09-26_09h00.26.271,test2,2022.2.4,59.942675740213375,
0,0,0,0,89,0,89,0,629.7763026759999,629.7763026759999,629.7763026759999,629.7763026759999,629.7763026759999,629.7763026759999,629.7763026759999,-1,1,azul,1,['N_A'],631.7945682520001,631.7945682520001,631.7945682520001,631.7945682520001,633.8302209410001,633.8302209410001,633.8302209410001,633.8302209410001,633.8302209410001,633.8302209410001,633.8302209410001,633.8302209410001,635.865404588,635.865404588,635.865404588,635.865404588,,,,,,,,,,,,,,,,,,,,,,,,,,,,,,,,,,,,,,,6,009,2022-09-26_09h00.26.271,test2,2022.2.4,59.942675740213375,
0,0,0,0,90,0,90,0,635.865404588,635.865404588,635.865404588,635.865404588,635.865404588,635.865404588,635.865404588,1,-1,rojo,1,['N_A'],637.7345893879999,637.7345893879999,637.7345893879999,637.7345893879999,639.7702403989999,639.7702403989999,639.7702403989999,639.7702403989999,639.7702403989999,639.7702403989999,639.7702403989999,639.7702403989999,641.806108774,641.806108774,641.806108774,641.806108774,,,,,,,,,,,,,,,,,,,,,,,,,,,,,,,,,,,,,,,6,009,2022-09-26_09h00.26.271,test2,2022.2.4,59.942675740213375,
0,0,0,0,91,0,91,0,641.806108774,641.806108774,641.806108774,641.806108774,641.806108774,641.806108774,641.806108774,1,-1,rojo,1,['N_A'],643.590432875,643.590432875,643.590432875,643.590432875,645.626443049,645.626443049,645.626443049,645.626443049,645.626443049,645.626443049,645.626443049,645.626443049,647.662372005,647.662372005,647.662372005,647.662372005,,,,,,,,,,,,,,,,,,,,,,,,,,,,,,,,,,,,,,,6,009,2022-09-26_09h00.26.271,test2,2022.2.4,59.942675740213375,
0,0,0,0,92,0,92,0,647.662372005,647.662372005,647.662372005,647.662372005,647.662372005,647.662372005,647.662372005,1,-1,rojo,1,['N_A'],649.314350566,649.314350566,649.314350566,649.314350566,651.349621352,651.349621352,651.349621352,651.349621352,651.349621352,651.349621352,651.349621352,651.349621352,653.385673284,653.385673284,653.385673284,653.385673284,,,,,,,,,,,,,,,,,,,,,,,,,,,,,,,,,,,,,,,6,009,2022-09-26_09h00.26.271,test2,2022.2.4,59.942675740213375,
0,0,0,0,93,0,93,0,653.385673284,653.385673284,653.385673284,653.385673284,653.385673284,653.385673284,653.385673284,1,-1,rojo,1,['N_A'],654.8366651240001,654.8366651240001,654.8366651240001,654.8366651240001,656.872051819,656.872051819,656.872051819,656.872051819,656.872051819,656.872051819,656.872051819,656.872051819,658.9080961300001,658.9080961300001,658.9080961300001,658.9080961300001,,,,,,,,,,,,,,,,,,,,,,,,,,,,,,,,,,,,,,,6,009,2022-09-26_09h00.26.271,test2,2022.2.4,59.942675740213375,
0,0,0,0,94,0,94,0,658.9080961300001,658.9080961300001,658.9080961300001,658.9080961300001,658.9080961300001,658.9080961300001,658.9080961300001,1,1,rojo,1,['N_A'],660.8764505409999,660.8764505409999,660.8764505409999,660.8764505409999,662.912307067,662.912307067,662.912307067,662.912307067,662.912307067,662.912307067,662.912307067,662.912307067,664.947868127,664.947868127,664.947868127,664.947868127,,,,,,,,,,,,,,,,,,,,,,,,,,,,,,,,,,,,,,,6,009,2022-09-26_09h00.26.271,test2,2022.2.4,59.942675740213375,
0,0,0,0,95,0,95,0,664.947868127,664.947868127,664.947868127,664.947868127,664.947868127,664.947868127,664.947868127,1,-1,rojo,1,['N_A'],666.399350813,666.399350813,666.399350813,666.399350813,668.4353136770001,668.4353136770001,668.4353136770001,668.4353136770001,668.4353136770001,668.4353136770001,668.4353136770001,668.4353136770001,670.470612072,670.470612072,670.470612072,670.470612072,,,,,,,,,,,,,,,,,,,,,,,,,,,,,,,,,,,,,,,6,009,2022-09-26_09h00.26.271,test2,2022.2.4,59.942675740213375,
0,0,0,0,96,0,96,0,670.470612072,670.470612072,670.470612072,670.470612072,670.470612072,670.470612072,670.470612072,1,-1,rojo,1,['N_A'],672.1224175919999,672.1224175919999,672.1224175919999,672.1224175919999,674.157777634,674.157777634,674.157777634,674.157777634,674.157777634,674.157777634,674.157777634,674.157777634,676.193488015,676.193488015,676.193488015,676.193488015,,,,,,,,,,,,,,,,,,,,,,,,,,,,,,,,,,,,,,,6,009,2022-09-26_09h00.26.271,test2,2022.2.4,59.942675740213375,
0,0,0,0,97,0,97,0,676.193488015,676.193488015,676.193488015,676.193488015,676.193488015,676.193488015,676.193488015,1,-1,rojo,1,['N_A'],677.645330934,677.645330934,677.645330934,677.645330934,679.681344802,679.681344802,679.681344802,679.681344802,679.681344802,679.681344802,679.681344802,679.681344802,681.715984963,681.715984963,681.715984963,681.715984963,,,,,,,,,,,,,,,,,,,,,,,,,,,,,,,,,,,,,,,6,009,2022-09-26_09h00.26.271,test2,2022.2.4,59.942675740213375,
0,0,0,0,98,0,98,0,681.715984963,681.715984963,681.715984963,681.715984963,681.715984963,681.715984963,681.715984963,1,1,rojo,1,['N_A'],683.3519482429999,683.3519482429999,683.3519482429999,683.3519482429999,685.3701458979999,685.3701458979999,685.3701458979999,685.3701458979999,685.3701458979999,685.3701458979999,685.3701458979999,685.3701458979999,687.4056635290001,687.4056635290001,687.4056635290001,687.4056635290001,,,,,,,,,,,,,,,,,,,,,,,,,,,,,,,,,,,,,,,6,009,2022-09-26_09h00.26.271,test2,2022.2.4,59.942675740213375,
0,0,0,0,99,0,99,0,687.4056635290001,687.4056635290001,687.4056635290001,687.4056635290001,687.4056635290001,687.4056635290001,687.4056635290001,1,1,rojo,1,['N_A'],689.8423673949999,689.8423673949999,689.8423673949999,689.8423673949999,691.860789204,691.860789204,691.860789204,691.860789204,691.860789204,691.860789204,691.860789204,691.860789204,693.895996362,693.895996362,693.895996362,693.895996362,,,,,,,,,,,,,,,,,,,,,,,,,,,,,,,,,,,,,,,6,009,2022-09-26_09h00.26.271,test2,2022.2.4,59.942675740213375,
0,0,0,0,100,0,100,0,693.895996362,693.895996362,693.895996362,693.895996362,693.895996362,693.895996362,693.895996362,-1,1,azul,1,['N_A'],695.6489157440001,695.6489157440001,695.6489157440001,695.6489157440001,697.6841013379999,697.6841013379999,697.6841013379999,697.6841013379999,697.6841013379999,697.6841013379999,697.6841013379999,697.6841013379999,699.719183678,699.719183678,699.719183678,699.719183678,,,,,,,,,,,,,,,,,,,,,,,,,,,,,,,,,,,,,,,6,009,2022-09-26_09h00.26.271,test2,2022.2.4,59.942675740213375,
0,0,0,0,101,0,101,0,699.719183678,699.719183678,699.719183678,699.719183678,699.719183678,699.719183678,699.719183678,1,-1,rojo,1,['N_A'],701.1378126540001,701.1378126540001,701.1378126540001,701.1378126540001,703.173668338,703.173668338,703.173668338,703.173668338,703.173668338,703.173668338,703.173668338,703.173668338,705.2088968160001,705.2088968160001,705.2088968160001,705.2088968160001,,,,,,,,,,,,,,,,,,,,,,,,,,,,,,,,,,,,,,,6,009,2022-09-26_09h00.26.271,test2,2022.2.4,59.942675740213375,
0,0,0,0,102,0,102,0,705.2088968160001,705.2088968160001,705.2088968160001,705.2088968160001,705.2088968160001,705.2088968160001,705.2088968160001,-1,1,azul,1,['N_A'],706.7940071390001,706.7940071390001,706.7940071390001,706.7940071390001,708.8129784140001,708.8129784140001,708.8129784140001,708.8129784140001,708.8129784140001,708.8129784140001,708.8129784140001,708.8129784140001,710.849166557,710.849166557,710.849166557,710.849166557,,,,,,,,,,,,,,,,,,,,,,,,,,,,,,,,,,,,,,,6,009,2022-09-26_09h00.26.271,test2,2022.2.4,59.942675740213375,
0,0,0,0,103,0,103,0,710.849166557,710.849166557,710.849166557,710.849166557,710.849166557,710.849166557,710.849166557,-1,1,azul,1,['N_A'],712.233317422,712.233317422,712.233317422,712.233317422,714.251528559,714.251528559,714.251528559,714.251528559,714.251528559,714.251528559,714.251528559,714.251528559,716.2881846749999,716.2881846749999,716.2881846749999,716.2881846749999,,,,,,,,,,,,,,,,,,,,,,,,,,,,,,,,,,,,,,,6,009,2022-09-26_09h00.26.271,test2,2022.2.4,59.942675740213375,
0,0,0,0,104,0,104,0,716.2881846749999,716.2881846749999,716.2881846749999,716.2881846749999,716.2881846749999,716.2881846749999,716.2881846749999,-1,1,azul,1,['N_A'],717.672213351,717.672213351,717.672213351,717.672213351,719.6909339890001,719.6909339890001,719.6909339890001,719.6909339890001,719.6909339890001,719.6909339890001,719.6909339890001,719.6909339890001,721.726739215,721.726739215,721.726739215,721.726739215,,,,,,,,,,,,,,,,,,,,,,,,,,,,,,,,,,,,,,,6,009,2022-09-26_09h00.26.271,test2,2022.2.4,59.942675740213375,
0,0,0,0,105,0,105,0,721.726739215,721.726739215,721.726739215,721.726739215,721.726739215,721.726739215,721.726739215,1,1,rojo,1,['N_A'],723.1452323379999,723.1452323379999,723.1452323379999,723.1452323379999,725.1637288500001,725.1637288500001,725.1637288500001,725.1637288500001,725.1637288500001,725.1637288500001,725.1637288500001,725.1637288500001,727.199417266,727.199417266,727.199417266,727.199417266,,,,,,,,,,,,,,,,,,,,,,,,,,,,,,,,,,,,,,,6,009,2022-09-26_09h00.26.271,test2,2022.2.4,59.942675740213375,
0,0,0,0,106,0,106,0,727.199417266,727.199417266,727.199417266,727.199417266,727.199417266,727.199417266,727.199417266,1,1,rojo,1,['N_A'],728.6513977530001,728.6513977530001,728.6513977530001,728.6513977530001,730.6866661040001,730.6866661040001,730.6866661040001,730.6866661040001,730.6866661040001,730.6866661040001,730.6866661040001,730.6866661040001,732.7221321879999,732.7221321879999,732.7221321879999,732.7221321879999,,,,,,,,,,,,,,,,,,,,,,,,,,,,,,,,,,,,,,,6,009,2022-09-26_09h00.26.271,test2,2022.2.4,59.942675740213375,
0,0,0,0,107,0,107,0,732.7221321879999,732.7221321879999,732.7221321879999,732.7221321879999,732.7221321879999,732.7221321879999,732.7221321879999,1,-1,rojo,1,['N_A'],734.1075578330001,734.1075578330001,734.1075578330001,734.1075578330001,736.1430619180001,736.1430619180001,736.1430619180001,736.1430619180001,736.1430619180001,736.1430619180001,736.1430619180001,736.1430619180001,738.1793455229999,738.1793455229999,738.1793455229999,738.1793455229999,,,,,,,,,,,,,,,,,,,,,,,,,,,,,,,,,,,,,,,6,009,2022-09-26_09h00.26.271,test2,2022.2.4,59.942675740213375,
0,0,0,0,108,0,108,0,738.1793455229999,738.1793455229999,738.1793455229999,738.1793455229999,738.1793455229999,738.1793455229999,738.1793455229999,-1,1,azul,1,['N_A'],739.7970915609999,739.7970915609999,739.7970915609999,739.7970915609999,741.8332033639999,741.8332033639999,741.8332033639999,741.8332033639999,741.8332033639999,741.8332033639999,741.8332033639999,741.8332033639999,743.868210376,743.868210376,743.868210376,743.868210376,,,,,,,,,,,,,,,,,,,,,,,,,,,,,,,,,,,,,,,6,009,2022-09-26_09h00.26.271,test2,2022.2.4,59.942675740213375,
0,0,0,0,109,0,109,0,743.868210376,743.868210376,743.868210376,743.868210376,743.868210376,743.868210376,743.868210376,-1,-1,azul,1,['N_A'],751.026183403,751.026183403,751.026183403,751.026183403,753.0626486240001,753.0626486240001,753.0626486240001,753.0626486240001,753.0626486240001,753.0626486240001,753.0626486240001,753.0626486240001,755.096764934,755.096764934,755.096764934,755.096764934,,,,,,,,,,,,,,,,,,,,,,,,,,,,,,,,,,,,,,,6,009,2022-09-26_09h00.26.271,test2,2022.2.4,59.942675740213375,
0,0,0,0,110,0,110,0,755.096764934,755.096764934,755.096764934,755.096764934,755.096764934,755.096764934,755.096764934,1,1,rojo,1,['N_A'],756.8825259170001,756.8825259170001,756.8825259170001,756.8825259170001,758.9014146310001,758.9014146310001,758.9014146310001,758.9014146310001,758.9014146310001,758.9014146310001,758.9014146310001,758.9014146310001,760.936873724,760.936873724,760.936873724,760.936873724,,,,,,,,,,,,,,,,,,,,,,,,,,,,,,,,,,,,,,,6,009,2022-09-26_09h00.26.271,test2,2022.2.4,59.942675740213375,
0,0,0,0,111,0,111,0,760.936873724,760.936873724,760.936873724,760.936873724,760.936873724,760.936873724,760.936873724,-1,1,azul,1,['N_A'],763.3899666110001,763.3899666110001,763.3899666110001,763.3899666110001,765.407875651,765.407875651,765.407875651,765.407875651,765.407875651,765.407875651,765.407875651,765.407875651,767.444136199,767.444136199,767.444136199,767.444136199,,,,,,,,,,,,,,,,,,,,,,,,,,,,,,,,,,,,,,,6,009,2022-09-26_09h00.26.271,test2,2022.2.4,59.942675740213375,
0,0,0,0,112,0,112,0,767.444136199,767.444136199,767.444136199,767.444136199,767.444136199,767.444136199,767.444136199,1,1,rojo,1,['N_A'],768.8960878180001,768.8960878180001,768.8960878180001,768.8960878180001,770.913794848,770.913794848,770.913794848,770.913794848,770.913794848,770.913794848,770.913794848,770.913794848,772.950335319,772.950335319,772.950335319,772.950335319,,,,,,,,,,,,,,,,,,,,,,,,,,,,,,,,,,,,,,,6,009,2022-09-26_09h00.26.271,test2,2022.2.4,59.942675740213375,
0,0,0,0,113,0,113,0,772.950335319,772.950335319,772.950335319,772.950335319,772.950335319,772.950335319,772.950335319,-1,1,azul,1,['N_A'],774.535845896,774.535845896,774.535845896,774.535845896,776.5714214069999,776.5714214069999,776.5714214069999,776.5714214069999,776.5714214069999,776.5714214069999,776.5714214069999,776.5714214069999,778.6068839679999,778.6068839679999,778.6068839679999,778.6068839679999,,,,,,,,,,,,,,,,,,,,,,,,,,,,,,,,,,,,,,,6,009,2022-09-26_09h00.26.271,test2,2022.2.4,59.942675740213375,
0,0,0,0,114,0,114,0,778.6068839679999,778.6068839679999,778.6068839679999,778.6068839679999,778.6068839679999,778.6068839679999,778.6068839679999,1,-1,rojo,1,['N_A'],780.1584774810001,780.1584774810001,780.1584774810001,780.1584774810001,782.193972367,782.193972367,782.193972367,782.193972367,782.193972367,782.193972367,782.193972367,782.193972367,784.2292689850001,784.2292689850001,784.2292689850001,784.2292689850001,,,,,,,,,,,,,,,,,,,,,,,,,,,,,,,,,,,,,,,6,009,2022-09-26_09h00.26.271,test2,2022.2.4,59.942675740213375,
0,0,0,0,115,0,115,0,784.2292689850001,784.2292689850001,784.2292689850001,784.2292689850001,784.2292689850001,784.2292689850001,784.2292689850001,1,-1,rojo,1,['N_A'],785.7483260229999,785.7483260229999,785.7483260229999,785.7483260229999,787.783570073,787.783570073,787.783570073,787.783570073,787.783570073,787.783570073,787.783570073,787.783570073,789.81880026,789.81880026,789.81880026,789.81880026,,,,,,,,,,,,,,,,,,,,,,,,,,,,,,,,,,,,,,,6,009,2022-09-26_09h00.26.271,test2,2022.2.4,59.942675740213375,
0,0,0,0,116,0,116,0,789.81880026,789.81880026,789.81880026,789.81880026,789.81880026,789.81880026,789.81880026,1,1,rojo,1,['N_A'],791.303526598,791.303526598,791.303526598,791.303526598,793.3224131750001,793.3224131750001,793.3224131750001,793.3224131750001,793.3224131750001,793.3224131750001,793.3224131750001,793.3224131750001,795.3579207509999,795.3579207509999,795.3579207509999,795.3579207509999,,,,,,,,,,,,,,,,,,,,,,,,,,,,,,,,,,,,,,,6,009,2022-09-26_09h00.26.271,test2,2022.2.4,59.942675740213375,
0,0,0,0,117,0,117,0,795.3579207509999,795.3579207509999,795.3579207509999,795.3579207509999,795.3579207509999,795.3579207509999,795.3579207509999,-1,1,azul,1,['N_A'],796.8936787549999,796.8936787549999,796.8936787549999,796.8936787549999,798.913050077,798.913050077,798.913050077,798.913050077,798.913050077,798.913050077,798.913050077,798.913050077,800.9477649959999,800.9477649959999,800.9477649959999,800.9477649959999,,,,,,,,,,,,,,,,,,,,,,,,,,,,,,,,,,,,,,,6,009,2022-09-26_09h00.26.271,test2,2022.2.4,59.942675740213375,
0,0,0,0,118,0,118,0,800.9477649959999,800.9477649959999,800.9477649959999,800.9477649959999,800.9477649959999,800.9477649959999,800.9477649959999,-1,1,azul,1,['N_A'],802.450015701,802.450015701,802.450015701,802.450015701,804.4693335100001,804.4693335100001,804.4693335100001,804.4693335100001,804.4693335100001,804.4693335100001,804.4693335100001,804.4693335100001,806.5036961630001,806.5036961630001,806.5036961630001,806.5036961630001,,,,,,,,,,,,,,,,,,,,,,,,,,,,,,,,,,,,,,,6,009,2022-09-26_09h00.26.271,test2,2022.2.4,59.942675740213375,
0,0,0,0,119,0,119,0,806.5036961630001,806.5036961630001,806.5036961630001,806.5036961630001,806.5036961630001,806.5036961630001,806.5036961630001,-1,1,azul,1,['N_A'],808.1395387499999,808.1395387499999,808.1395387499999,808.1395387499999,810.1748236220001,810.1748236220001,810.1748236220001,810.1748236220001,810.1748236220001,810.1748236220001,810.1748236220001,810.1748236220001,812.210187376,812.210187376,812.210187376,812.210187376,,,,,,,,,,,,,,,,,,,,,,,,,,,,,,,,,,,,,,,6,009,2022-09-26_09h00.26.271,test2,2022.2.4,59.942675740213375,
0,0,0,0,120,0,120,0,812.210187376,812.210187376,812.210187376,812.210187376,812.210187376,812.210187376,812.210187376,1,-1,rojo,1,['N_A'],813.594892246,813.594892246,813.594892246,813.594892246,815.630381527,815.630381527,815.630381527,815.630381527,815.630381527,815.630381527,815.630381527,815.630381527,817.666451692,817.666451692,817.666451692,817.666451692,,,,,,,,,,,,,,,,,,,,,,,,,,,,,,,,,,,,,,,6,009,2022-09-26_09h00.26.271,test2,2022.2.4,59.942675740213375,
0,0,0,0,121,0,121,0,817.666451692,817.666451692,817.666451692,817.666451692,817.666451692,817.666451692,817.666451692,1,1,rojo,1,['N_A'],819.051386831,819.051386831,819.051386831,819.051386831,821.0867622220001,821.0867622220001,821.0867622220001,821.0867622220001,821.0867622220001,821.0867622220001,821.0867622220001,821.0867622220001,823.122268439,823.122268439,823.122268439,823.122268439,,,,,,,,,,,,,,,,,,,,,,,,,,,,,,,,,,,,,,,6,009,2022-09-26_09h00.26.271,test2,2022.2.4,59.942675740213375,
0,0,0,0,122,0,122,0,823.122268439,823.122268439,823.122268439,823.122268439,823.122268439,823.122268439,823.122268439,1,-1,rojo,1,['N_A'],824.674200015,824.674200015,824.674200015,824.674200015,826.709506277,826.709506277,826.709506277,826.709506277,826.709506277,826.709506277,826.709506277,826.709506277,828.745053997,828.745053997,828.745053997,828.745053997,,,,,,,,,,,,,,,,,,,,,,,,,,,,,,,,,,,,,,,6,009,2022-09-26_09h00.26.271,test2,2022.2.4,59.942675740213375,
0,0,0,0,123,0,123,0,828.745053997,828.745053997,828.745053997,828.745053997,828.745053997,828.745053997,828.745053997,1,-1,rojo,1,['N_A'],830.4309008309999,830.4309008309999,830.4309008309999,830.4309008309999,832.4658272700001,832.4658272700001,832.4658272700001,832.4658272700001,832.4658272700001,832.4658272700001,832.4658272700001,832.4658272700001,834.5013109910001,834.5013109910001,834.5013109910001,834.5013109910001,,,,,,,,,,,,,,,,,,,,,,,,,,,,,,,,,,,,,,,6,009,2022-09-26_09h00.26.271,test2,2022.2.4,59.942675740213375,
0,0,0,0,124,0,124,0,834.5013109910001,834.5013109910001,834.5013109910001,834.5013109910001,834.5013109910001,834.5013109910001,834.5013109910001,1,1,rojo,1,['N_A'],835.920265342,835.920265342,835.920265342,835.920265342,837.9388746340001,837.9388746340001,837.9388746340001,837.9388746340001,837.9388746340001,837.9388746340001,837.9388746340001,837.9388746340001,839.9741779389999,839.9741779389999,839.9741779389999,839.9741779389999,,,,,,,,,,,,,,,,,,,,,,,,,,,,,,,,,,,,,,,6,009,2022-09-26_09h00.26.271,test2,2022.2.4,59.942675740213375,
0,0,0,0,125,0,125,0,839.9741779389999,839.9741779389999,839.9741779389999,839.9741779389999,839.9741779389999,839.9741779389999,839.9741779389999,1,1,rojo,1,['N_A'],841.492600865,841.492600865,841.492600865,841.492600865,843.510968109,843.510968109,843.510968109,843.510968109,843.510968109,843.510968109,843.510968109,843.510968109,845.546849783,845.546849783,845.546849783,845.546849783,,,,,,,,,,,,,,,,,,,,,,,,,,,,,,,,,,,,,,,6,009,2022-09-26_09h00.26.271,test2,2022.2.4,59.942675740213375,
0,0,0,0,126,0,126,0,845.546849783,845.546849783,845.546849783,845.546849783,845.546849783,845.546849783,845.546849783,-1,1,azul,1,['N_A'],847.065476172,847.065476172,847.065476172,847.065476172,849.101397619,849.101397619,849.101397619,849.101397619,849.101397619,849.101397619,849.101397619,849.101397619,851.1363996739999,851.1363996739999,851.1363996739999,851.1363996739999,,,,,,,,,,,,,,,,,,,,,,,,,,,,,,,,,,,,,,,6,009,2022-09-26_09h00.26.271,test2,2022.2.4,59.942675740213375,
0,0,0,0,127,0,127,0,851.1363996739999,851.1363996739999,851.1363996739999,851.1363996739999,851.1363996739999,851.1363996739999,851.1363996739999,-1,-1,azul,1,['N_A'],852.671192845,852.671192845,852.671192845,852.671192845,854.7076846150001,854.7076846150001,854.7076846150001,854.7076846150001,854.7076846150001,854.7076846150001,854.7076846150001,854.7076846150001,856.7427315980001,856.7427315980001,856.7427315980001,856.7427315980001,,,,,,,,,,,,,,,,,,,,,,,,,,,,,,,,,,,,,,,6,009,2022-09-26_09h00.26.271,test2,2022.2.4,59.942675740213375,
0,0,0,0,128,0,128,0,856.7427315980001,856.7427315980001,856.7427315980001,856.7427315980001,856.7427315980001,856.7427315980001,856.7427315980001,1,1,rojo,1,['N_A'],859.8631814370001,859.8631814370001,859.8631814370001,859.8631814370001,861.881521565,861.881521565,861.881521565,861.881521565,861.881521565,861.881521565,861.881521565,861.881521565,863.9171492620001,863.9171492620001,863.9171492620001,863.9171492620001,,,,,,,,,,,,,,,,,,,,,,,,,,,,,,,,,,,,,,,6,009,2022-09-26_09h00.26.271,test2,2022.2.4,59.942675740213375,
0,0,0,0,129,0,129,0,863.9171492620001,863.9171492620001,863.9171492620001,863.9171492620001,863.9171492620001,863.9171492620001,863.9171492620001,1,1,rojo,1,['N_A'],865.3690549590001,865.3690549590001,865.3690549590001,865.3690549590001,867.3876032210001,867.3876032210001,867.3876032210001,867.3876032210001,867.3876032210001,867.3876032210001,867.3876032210001,867.3876032210001,869.423514049,869.423514049,869.423514049,869.423514049,,,,,,,,,,,,,,,,,,,,,,,,,,,,,,,,,,,,,,,6,009,2022-09-26_09h00.26.271,test2,2022.2.4,59.942675740213375,
0,0,0,0,130,0,130,0,869.423514049,869.423514049,869.423514049,869.423514049,869.423514049,869.423514049,869.423514049,1,1,rojo,1,['N_A'],870.958292151,870.958292151,870.958292151,870.958292151,872.977462761,872.977462761,872.977462761,872.977462761,872.977462761,872.977462761,872.977462761,872.977462761,875.0128083110001,875.0128083110001,875.0128083110001,875.0128083110001,,,,,,,,,,,,,,,,,,,,,,,,,,,,,,,,,,,,,,,6,009,2022-09-26_09h00.26.271,test2,2022.2.4,59.942675740213375,
0,0,0,0,131,0,131,0,875.0128083110001,875.0128083110001,875.0128083110001,875.0128083110001,875.0128083110001,875.0128083110001,875.0128083110001,-1,1,azul,1,['N_A'],876.865508458,876.865508458,876.865508458,876.865508458,878.884160884,878.884160884,878.884160884,878.884160884,878.884160884,878.884160884,878.884160884,878.884160884,880.9191854329999,880.9191854329999,880.9191854329999,880.9191854329999,,,,,,,,,,,,,,,,,,,,,,,,,,,,,,,,,,,,,,,6,009,2022-09-26_09h00.26.271,test2,2022.2.4,59.942675740213375,
0,0,0,0,132,0,132,0,880.9191854329999,880.9191854329999,880.9191854329999,880.9191854329999,880.9191854329999,880.9191854329999,880.9191854329999,1,1,rojo,1,['N_A'],882.370752136,882.370752136,882.370752136,882.370752136,884.390581507,884.390581507,884.390581507,884.390581507,884.390581507,884.390581507,884.390581507,884.390581507,886.4256555090001,886.4256555090001,886.4256555090001,886.4256555090001,,,,,,,,,,,,,,,,,,,,,,,,,,,,,,,,,,,,,,,6,009,2022-09-26_09h00.26.271,test2,2022.2.4,59.942675740213375,
0,0,0,0,133,0,133,0,886.4256555090001,886.4256555090001,886.4256555090001,886.4256555090001,886.4256555090001,886.4256555090001,886.4256555090001,1,1,rojo,1,['N_A'],887.993645175,887.993645175,887.993645175,887.993645175,890.012994106,890.012994106,890.012994106,890.012994106,890.012994106,890.012994106,890.012994106,890.012994106,892.0484706929999,892.0484706929999,892.0484706929999,892.0484706929999,,,,,,,,,,,,,,,,,,,,,,,,,,,,,,,,,,,,,,,6,009,2022-09-26_09h00.26.271,test2,2022.2.4,59.942675740213375,
0,0,0,0,134,0,134,0,892.0484706929999,892.0484706929999,892.0484706929999,892.0484706929999,892.0484706929999,892.0484706929999,892.0484706929999,1,1,rojo,1,['N_A'],893.7500802940001,893.7500802940001,893.7500802940001,893.7500802940001,895.769253124,895.769253124,895.769253124,895.769253124,895.769253124,895.769253124,895.769253124,895.769253124,897.804822653,897.804822653,897.804822653,897.804822653,,,,,,,,,,,,,,,,,,,,,,,,,,,,,,,,,,,,,,,6,009,2022-09-26_09h00.26.271,test2,2022.2.4,59.942675740213375,
0,0,0,0,135,0,135,0,897.804822653,897.804822653,897.804822653,897.804822653,897.804822653,897.804822653,897.804822653,1,1,rojo,1,['N_A'],899.1560867329999,899.1560867329999,899.1560867329999,899.1560867329999,901.1925361460001,901.1925361460001,901.1925361460001,901.1925361460001,901.1925361460001,901.1925361460001,901.1925361460001,901.1925361460001,903.2273734569999,903.2273734569999,903.2273734569999,903.2273734569999,,,,,,,,,,,,,,,,,,,,,,,,,,,,,,,,,,,,,,,6,009,2022-09-26_09h00.26.271,test2,2022.2.4,59.942675740213375,
0,0,0,0,136,0,136,0,903.2273734569999,903.2273734569999,903.2273734569999,903.2273734569999,903.2273734569999,903.2273734569999,903.2273734569999,1,-1,rojo,1,['N_A'],904.962452123,904.962452123,904.962452123,904.962452123,906.9984611130001,906.9984611130001,906.9984611130001,906.9984611130001,906.9984611130001,906.9984611130001,906.9984611130001,906.9984611130001,909.0340721709999,909.0340721709999,909.0340721709999,909.0340721709999,,,,,,,,,,,,,,,,,,,,,,,,,,,,,,,,,,,,,,,6,009,2022-09-26_09h00.26.271,test2,2022.2.4,59.942675740213375,
0,0,0,0,137,0,137,0,909.0340721709999,909.0340721709999,909.0340721709999,909.0340721709999,909.0340721709999,909.0340721709999,909.0340721709999,1,1,rojo,1,['N_A'],911.003135255,911.003135255,911.003135255,911.003135255,913.020355936,913.020355936,913.020355936,913.020355936,913.020355936,913.020355936,913.020355936,913.020355936,915.0572413330001,915.0572413330001,915.0572413330001,915.0572413330001,,,,,,,,,,,,,,,,,,,,,,,,,,,,,,,,,,,,,,,6,009,2022-09-26_09h00.26.271,test2,2022.2.4,59.942675740213375,
0,0,0,0,138,0,138,0,915.0572413330001,915.0572413330001,915.0572413330001,915.0572413330001,915.0572413330001,915.0572413330001,915.0572413330001,1,1,rojo,1,['N_A'],916.475620275,916.475620275,916.475620275,916.475620275,918.510960503,918.510960503,918.510960503,918.510960503,918.510960503,918.510960503,918.510960503,918.510960503,920.546261471,920.546261471,920.546261471,920.546261471,,,,,,,,,,,,,,,,,,,,,,,,,,,,,,,,,,,,,,,6,009,2022-09-26_09h00.26.271,test2,2022.2.4,59.942675740213375,
0,0,0,0,139,0,139,0,920.546261471,920.546261471,920.546261471,920.546261471,920.546261471,920.546261471,920.546261471,1,-1,rojo,1,['N_A'],922.164724496,922.164724496,922.164724496,922.164724496,924.2003081949999,924.2003081949999,924.2003081949999,924.2003081949999,924.2003081949999,924.2003081949999,924.2003081949999,924.2003081949999,926.236200455,926.236200455,926.236200455,926.236200455,,,,,,,,,,,,,,,,,,,,,,,,,,,,,,,,,,,,,,,6,009,2022-09-26_09h00.26.271,test2,2022.2.4,59.942675740213375,
0,0,0,0,140,0,140,0,926.236200455,926.236200455,926.236200455,926.236200455,926.236200455,926.236200455,926.236200455,1,1,rojo,1,['N_A'],928.255004328,928.255004328,928.255004328,928.255004328,930.2900568,930.2900568,930.2900568,930.2900568,930.2900568,930.2900568,930.2900568,930.2900568,932.325829315,932.325829315,932.325829315,932.325829315,,,,,,,,,,,,,,,,,,,,,,,,,,,,,,,,,,,,,,,6,009,2022-09-26_09h00.26.271,test2,2022.2.4,59.942675740213375,
0,0,0,0,141,0,141,0,932.325829315,932.325829315,932.325829315,932.325829315,932.325829315,932.325829315,932.325829315,-1,-1,azul,1,['N_A'],934.1450895339999,934.1450895339999,934.1450895339999,934.1450895339999,936.1806021929999,936.1806021929999,936.1806021929999,936.1806021929999,936.1806021929999,936.1806021929999,936.1806021929999,936.1806021929999,938.2157250299999,938.2157250299999,938.2157250299999,938.2157250299999,,,,,,,,,,,,,,,,,,,,,,,,,,,,,,,,,,,,,,,6,009,2022-09-26_09h00.26.271,test2,2022.2.4,59.942675740213375,
0,0,0,0,142,0,142,0,938.2157250299999,938.2157250299999,938.2157250299999,938.2157250299999,938.2157250299999,938.2157250299999,938.2157250299999,1,-1,rojo,1,['N_A'],939.7010297290001,939.7010297290001,939.7010297290001,939.7010297290001,941.73652623,941.73652623,941.73652623,941.73652623,941.73652623,941.73652623,941.73652623,941.73652623,943.7719877919999,943.7719877919999,943.7719877919999,943.7719877919999,,,,,,,,,,,,,,,,,,,,,,,,,,,,,,,,,,,,,,,6,009,2022-09-26_09h00.26.271,test2,2022.2.4,59.942675740213375,
0,0,0,0,143,0,143,0,943.7719877919999,943.7719877919999,943.7719877919999,943.7719877919999,943.7719877919999,943.7719877919999,943.7719877919999,1,1,rojo,1,['N_A'],945.4241656899999,945.4241656899999,945.4241656899999,945.4241656899999,947.4595867339999,947.4595867339999,947.4595867339999,947.4595867339999,947.4595867339999,947.4595867339999,947.4595867339999,947.4595867339999,949.4947262109999,949.4947262109999,949.4947262109999,949.4947262109999,,,,,,,,,,,,,,,,,,,,,,,,,,,,,,,,,,,,,,,6,009,2022-09-26_09h00.26.271,test2,2022.2.4,59.942675740213375,
0,0,0,0,144,0,144,0,949.4947262109999,949.4947262109999,949.4947262109999,949.4947262109999,949.4947262109999,949.4947262109999,949.4947262109999,-1,-1,azul,1,['N_A'],950.8461377890001,950.8461377890001,950.8461377890001,950.8461377890001,952.8825083029999,952.8825083029999,952.8825083029999,952.8825083029999,952.8825083029999,952.8825083029999,952.8825083029999,952.8825083029999,954.918009276,954.918009276,954.918009276,954.918009276,,,,,,,,,,,,,,,,,,,,,,,,,,,,,,,,,,,,,,,6,009,2022-09-26_09h00.26.271,test2,2022.2.4,59.942675740213375,
0,0,0,0,145,0,145,0,954.918009276,954.918009276,954.918009276,954.918009276,954.918009276,954.918009276,954.918009276,1,1,rojo,1,['N_A'],956.468986224,956.468986224,956.468986224,956.468986224,958.4876839240001,958.4876839240001,958.4876839240001,958.4876839240001,958.4876839240001,958.4876839240001,958.4876839240001,958.4876839240001,960.523725967,960.523725967,960.523725967,960.523725967,,,,,,,,,,,,,,,,,,,,,,,,,,,,,,,,,,,,,,,6,009,2022-09-26_09h00.26.271,test2,2022.2.4,59.942675740213375,
0,0,0,0,146,0,146,0,960.523725967,960.523725967,960.523725967,960.523725967,960.523725967,960.523725967,960.523725967,-1,1,azul,1,['N_A'],961.925620171,961.925620171,961.925620171,961.925620171,963.9610107599999,963.9610107599999,963.9610107599999,963.9610107599999,963.9610107599999,963.9610107599999,963.9610107599999,963.9610107599999,965.9963754979999,965.9963754979999,965.9963754979999,965.9963754979999,,,,,,,,,,,,,,,,,,,,,,,,,,,,,,,,,,,,,,,6,009,2022-09-26_09h00.26.271,test2,2022.2.4,59.942675740213375,
0,0,0,0,147,0,147,0,965.9963754979999,965.9963754979999,965.9963754979999,965.9963754979999,965.9963754979999,965.9963754979999,965.9963754979999,1,-1,rojo,1,['N_A'],967.4822021,967.4822021,967.4822021,967.4822021,969.517335562,969.517335562,969.517335562,969.517335562,969.517335562,969.517335562,969.517335562,969.517335562,971.552857115,971.552857115,971.552857115,971.552857115,,,,,,,,,,,,,,,,,,,,,,,,,,,,,,,,,,,,,,,6,009,2022-09-26_09h00.26.271,test2,2022.2.4,59.942675740213375,
0,0,0,0,148,0,148,0,971.552857115,971.552857115,971.552857115,971.552857115,971.552857115,971.552857115,971.552857115,1,-1,rojo,1,['N_A'],973.104345578,973.104345578,973.104345578,973.104345578,975.14050645,975.14050645,975.14050645,975.14050645,975.14050645,975.14050645,975.14050645,975.14050645,977.175584053,977.175584053,977.175584053,977.175584053,,,,,,,,,,,,,,,,,,,,,,,,,,,,,,,,,,,,,,,6,009,2022-09-26_09h00.26.271,test2,2022.2.4,59.942675740213375,
0,0,0,0,149,0,149,0,977.175584053,977.175584053,977.175584053,977.175584053,977.175584053,977.175584053,977.175584053,1,1,rojo,1,['N_A'],978.594119636,978.594119636,978.594119636,978.594119636,980.612288457,980.612288457,980.612288457,980.612288457,980.612288457,980.612288457,980.612288457,980.612288457,982.648481019,982.648481019,982.648481019,982.648481019,,,,,,,,,,,,,,,,,,,,,,,,,,,,,,,,,,,,,,,6,009,2022-09-26_09h00.26.271,test2,2022.2.4,59.942675740213375,
0,0,0,0,150,0,150,0,982.648481019,982.648481019,982.648481019,982.648481019,982.648481019,982.648481019,982.648481019,1,1,rojo,1,['N_A'],984.150380675,984.150380675,984.150380675,984.150380675,986.168336558,986.168336558,986.168336558,986.168336558,986.168336558,986.168336558,986.168336558,986.168336558,988.2044186559999,988.2044186559999,988.2044186559999,988.2044186559999,,,,,,,,,,,,,,,,,,,,,,,,,,,,,,,,,,,,,,,6,009,2022-09-26_09h00.26.271,test2,2022.2.4,59.942675740213375,
0,0,0,0,151,0,151,0,988.2044186559999,988.2044186559999,988.2044186559999,988.2044186559999,988.2044186559999,988.2044186559999,988.2044186559999,1,1,rojo,1,['N_A'],989.8231678520001,989.8231678520001,989.8231678520001,989.8231678520001,991.858488137,991.858488137,991.858488137,991.858488137,991.858488137,991.858488137,991.858488137,991.858488137,993.893955626,993.893955626,993.893955626,993.893955626,,,,,,,,,,,,,,,,,,,,,,,,,,,,,,,,,,,,,,,6,009,2022-09-26_09h00.26.271,test2,2022.2.4,59.942675740213375,
0,0,0,0,152,0,152,0,993.893955626,993.893955626,993.893955626,993.893955626,993.893955626,993.893955626,993.893955626,1,-1,rojo,1,['N_A'],995.329070752,995.329070752,995.329070752,995.329070752,997.3650775030001,997.3650775030001,997.3650775030001,997.3650775030001,997.3650775030001,997.3650775030001,997.3650775030001,997.3650775030001,999.400205009,999.400205009,999.400205009,999.400205009,,,,,,,,,,,,,,,,,,,,,,,,,,,,,,,,,,,,,,,6,009,2022-09-26_09h00.26.271,test2,2022.2.4,59.942675740213375,
0,0,0,0,153,0,153,0,999.400205009,999.400205009,999.400205009,999.400205009,999.400205009,999.400205009,999.400205009,1,1,rojo,1,['N_A'],1000.634874931,1000.634874931,1000.634874931,1000.634874931,1002.6707149450001,1002.6707149450001,1002.6707149450001,1002.6707149450001,1002.6707149450001,1002.6707149450001,1002.6707149450001,1002.6707149450001,1004.706182099,1004.706182099,1004.706182099,1004.706182099,,,,,,,,,,,,,,,,,,,,,,,,,,,,,,,,,,,,,,,6,009,2022-09-26_09h00.26.271,test2,2022.2.4,59.942675740213375,
0,0,0,0,154,0,154,0,1004.706182099,1004.706182099,1004.706182099,1004.706182099,1004.706182099,1004.706182099,1004.706182099,1,-1,rojo,1,['N_A'],1006.3413551890001,1006.3413551890001,1006.3413551890001,1006.3413551890001,1008.3766551849999,1008.3766551849999,1008.3766551849999,1008.3766551849999,1008.3766551849999,1008.3766551849999,1008.3766551849999,1008.3766551849999,1010.41237254,1010.41237254,1010.41237254,1010.41237254,,,,,,,,,,,,,,,,,,,,,,,,,,,,,,,,,,,,,,,6,009,2022-09-26_09h00.26.271,test2,2022.2.4,59.942675740213375,
0,0,0,0,155,0,155,0,1010.41237254,1010.41237254,1010.41237254,1010.41237254,1010.41237254,1010.41237254,1010.41237254,1,-1,rojo,1,['N_A'],1011.830467237,1011.830467237,1011.830467237,1011.830467237,1013.86627168,1013.86627168,1013.86627168,1013.86627168,1013.86627168,1013.86627168,1013.86627168,1013.86627168,1015.901793449,1015.901793449,1015.901793449,1015.901793449,,,,,,,,,,,,,,,,,,,,,,,,,,,,,,,,,,,,,,,6,009,2022-09-26_09h00.26.271,test2,2022.2.4,59.942675740213375,
0,0,0,0,156,0,156,0,1015.901793449,1015.901793449,1015.901793449,1015.901793449,1015.901793449,1015.901793449,1015.901793449,1,1,rojo,1,['N_A'],1017.620585661,1017.620585661,1017.620585661,1017.620585661,1019.6385662790001,1019.6385662790001,1019.6385662790001,1019.6385662790001,1019.6385662790001,1019.6385662790001,1019.6385662790001,1019.6385662790001,1021.6748128239999,1021.6748128239999,1021.6748128239999,1021.6748128239999,,,,,,,,,,,,,,,,,,,,,,,,,,,,,,,,,,,,,,,6,009,2022-09-26_09h00.26.271,test2,2022.2.4,59.942675740213375,
0,0,0,0,157,0,157,0,1021.6748128239999,1021.6748128239999,1021.6748128239999,1021.6748128239999,1021.6748128239999,1021.6748128239999,1021.6748128239999,1,1,rojo,1,['N_A'],1023.0262690300001,1023.0262690300001,1023.0262690300001,1023.0262690300001,1025.061905828,1025.061905828,1025.061905828,1025.061905828,1025.061905828,1025.061905828,1025.061905828,1025.061905828,1027.097139049,1027.097139049,1027.097139049,1027.097139049,,,,,,,,,,,,,,,,,,,,,,,,,,,,,,,,,,,,,,,6,009,2022-09-26_09h00.26.271,test2,2022.2.4,59.942675740213375,
0,0,0,0,158,0,158,0,1027.097139049,1027.097139049,1027.097139049,1027.097139049,1027.097139049,1027.097139049,1027.097139049,1,-1,rojo,1,['N_A'],1028.649305293,1028.649305293,1028.649305293,1028.649305293,1030.684165436,1030.684165436,1030.684165436,1030.684165436,1030.684165436,1030.684165436,1030.684165436,1030.684165436,1032.720343556,1032.720343556,1032.720343556,1032.720343556,,,,,,,,,,,,,,,,,,,,,,,,,,,,,,,,,,,,,,,6,009,2022-09-26_09h00.26.271,test2,2022.2.4,59.942675740213375,
0,0,0,0,159,0,159,0,1032.720343556,1032.720343556,1032.720343556,1032.720343556,1032.720343556,1032.720343556,1032.720343556,1,1,rojo,1,['N_A'],1034.155397246,1034.155397246,1034.155397246,1034.155397246,1036.190514836,1036.190514836,1036.190514836,1036.190514836,1036.190514836,1036.190514836,1036.190514836,1036.190514836,1038.227081918,1038.227081918,1038.227081918,1038.227081918,,,,,,,,,,,,,,,,,,,,,,,,,,,,,,,,,,,,,,,6,009,2022-09-26_09h00.26.271,test2,2022.2.4,59.942675740213375,
0,0,0,0,160,0,160,0,1038.227081918,1038.227081918,1038.227081918,1038.227081918,1038.227081918,1038.227081918,1038.227081918,1,-1,rojo,1,['N_A'],1039.744361957,1039.744361957,1039.744361957,1039.744361957,1041.780548192,1041.780548192,1041.780548192,1041.780548192,1041.780548192,1041.780548192,1041.780548192,1041.780548192,1043.81606866,1043.81606866,1043.81606866,1043.81606866,,,,,,,,,,,,,,,,,,,,,,,,,,,,,,,,,,,,,,,6,009,2022-09-26_09h00.26.271,test2,2022.2.4,59.942675740213375,
0,0,0,0,161,0,161,0,1043.81606866,1043.81606866,1043.81606866,1043.81606866,1043.81606866,1043.81606866,1043.81606866,-1,-1,azul,1,['N_A'],1045.300651517,1045.300651517,1045.300651517,1045.300651517,1047.337130572,1047.337130572,1047.337130572,1047.337130572,1047.337130572,1047.337130572,1047.337130572,1047.337130572,1049.37186578,1049.37186578,1049.37186578,1049.37186578,,,,,,,,,,,,,,,,,,,,,,,,,,,,,,,,,,,,,,,6,009,2022-09-26_09h00.26.271,test2,2022.2.4,59.942675740213375,
0,0,0,0,162,0,162,0,1049.37186578,1049.37186578,1049.37186578,1049.37186578,1049.37186578,1049.37186578,1049.37186578,1,-1,rojo,1,['N_A'],1051.324103939,1051.324103939,1051.324103939,1051.324103939,1053.359780228,1053.359780228,1053.359780228,1053.359780228,1053.359780228,1053.359780228,1053.359780228,1053.359780228,1055.395221853,1055.395221853,1055.395221853,1055.395221853,,,,,,,,,,,,,,,,,,,,,,,,,,,,,,,,,,,,,,,6,009,2022-09-26_09h00.26.271,test2,2022.2.4,59.942675740213375,
0,0,0,0,163,0,163,0,1055.395221853,1055.395221853,1055.395221853,1055.395221853,1055.395221853,1055.395221853,1055.395221853,1,1,rojo,1,['N_A'],1057.214182223,1057.214182223,1057.214182223,1057.214182223,1059.232884179,1059.232884179,1059.232884179,1059.232884179,1059.232884179,1059.232884179,1059.232884179,1059.232884179,1061.268227947,1061.268227947,1061.268227947,1061.268227947,,,,,,,,,,,,,,,,,,,,,,,,,,,,,,,,,,,,,,,6,009,2022-09-26_09h00.26.271,test2,2022.2.4,59.942675740213375,
0,0,0,0,164,0,164,0,1061.268227947,1061.268227947,1061.268227947,1061.268227947,1061.268227947,1061.268227947,1061.268227947,1,1,rojo,1,['N_A'],1062.619740094,1062.619740094,1062.619740094,1062.619740094,1064.638936359,1064.638936359,1064.638936359,1064.638936359,1064.638936359,1064.638936359,1064.638936359,1064.638936359,1066.674403755,1066.674403755,1066.674403755,1066.674403755,,,,,,,,,,,,,,,,,,,,,,,,,,,,,,,,,,,,,,,6,009,2022-09-26_09h00.26.271,test2,2022.2.4,59.942675740213375,
0,0,0,0,165,0,165,0,1066.674403755,1066.674403755,1066.674403755,1066.674403755,1066.674403755,1066.674403755,1066.674403755,-1,1,azul,1,['N_A'],1068.225813567,1068.225813567,1068.225813567,1068.225813567,1070.245160667,1070.245160667,1070.245160667,1070.245160667,1070.245160667,1070.245160667,1070.245160667,1070.245160667,1072.280449502,1072.280449502,1072.280449502,1072.280449502,,,,,,,,,,,,,,,,,,,,,,,,,,,,,,,,,,,,,,,6,009,2022-09-26_09h00.26.271,test2,2022.2.4,59.942675740213375,
0,0,0,0,166,0,166,0,1072.280449502,1072.280449502,1072.280449502,1072.280449502,1072.280449502,1072.280449502,1072.280449502,1,1,rojo,1,['N_A'],1073.732652885,1073.732652885,1073.732652885,1073.732652885,1075.751094108,1075.751094108,1075.751094108,1075.751094108,1075.751094108,1075.751094108,1075.751094108,1075.751094108,1077.786675184,1077.786675184,1077.786675184,1077.786675184,,,,,,,,,,,,,,,,,,,,,,,,,,,,,,,,,,,,,,,6,009,2022-09-26_09h00.26.271,test2,2022.2.4,59.942675740213375,
0,0,0,0,167,0,167,0,1077.786675184,1077.786675184,1077.786675184,1077.786675184,1077.786675184,1077.786675184,1077.786675184,1,1,rojo,1,['N_A'],1079.221325509,1079.221325509,1079.221325509,1079.221325509,1081.239405902,1081.239405902,1081.239405902,1081.239405902,1081.239405902,1081.239405902,1081.239405902,1081.239405902,1083.275675926,1083.275675926,1083.275675926,1083.275675926,,,,,,,,,,,,,,,,,,,,,,,,,,,,,,,,,,,,,,,6,009,2022-09-26_09h00.26.271,test2,2022.2.4,59.942675740213375,
0,0,0,0,168,0,168,0,1083.275675926,1083.275675926,1083.275675926,1083.275675926,1083.275675926,1083.275675926,1083.275675926,-1,1,azul,1,['N_A'],1084.74482017,1084.74482017,1084.74482017,1084.74482017,1086.763214151,1086.763214151,1086.763214151,1086.763214151,1086.763214151,1086.763214151,1086.763214151,1086.763214151,1088.799030385,1088.799030385,1088.799030385,1088.799030385,,,,,,,,,,,,,,,,,,,,,,,,,,,,,,,,,,,,,,,6,009,2022-09-26_09h00.26.271,test2,2022.2.4,59.942675740213375,
0,0,0,0,169,0,169,0,1088.799030385,1088.799030385,1088.799030385,1088.799030385,1088.799030385,1088.799030385,1088.799030385,1,1,rojo,1,['N_A'],1090.417865563,1090.417865563,1090.417865563,1090.417865563,1092.436581664,1092.436581664,1092.436581664,1092.436581664,1092.436581664,1092.436581664,1092.436581664,1092.436581664,1094.471795724,1094.471795724,1094.471795724,1094.471795724,,,,,,,,,,,,,,,,,,,,,,,,,,,,,,,,,,,,,,,6,009,2022-09-26_09h00.26.271,test2,2022.2.4,59.942675740213375,
0,0,0,0,170,0,170,0,1094.471795724,1094.471795724,1094.471795724,1094.471795724,1094.471795724,1094.471795724,1094.471795724,1,1,rojo,1,['N_A'],1095.789729695,1095.789729695,1095.789729695,1095.789729695,1097.808154995,1097.808154995,1097.808154995,1097.808154995,1097.808154995,1097.808154995,1097.808154995,1097.808154995,1099.844429556,1099.844429556,1099.844429556,1099.844429556,,,,,,,,,,,,,,,,,,,,,,,,,,,,,,,,,,,,,,,6,009,2022-09-26_09h00.26.271,test2,2022.2.4,59.942675740213375,
0,0,0,0,171,0,171,0,1099.844429556,1099.844429556,1099.844429556,1099.844429556,1099.844429556,1099.844429556,1099.844429556,1,1,rojo,1,['N_A'],1101.196339067,1101.196339067,1101.196339067,1101.196339067,1103.213678531,1103.213678531,1103.213678531,1103.213678531,1103.213678531,1103.213678531,1103.213678531,1103.213678531,1105.250409083,1105.250409083,1105.250409083,1105.250409083,,,,,,,,,,,,,,,,,,,,,,,,,,,,,,,,,,,,,,,6,009,2022-09-26_09h00.26.271,test2,2022.2.4,59.942675740213375,
0,0,0,0,172,0,172,0,1105.250409083,1105.250409083,1105.250409083,1105.250409083,1105.250409083,1105.250409083,1105.250409083,1,1,rojo,1,['N_A'],1115.794442527,1115.794442527,1115.794442527,1115.794442527,1117.814850036,1117.814850036,1117.814850036,1117.814850036,1117.814850036,1117.814850036,1117.814850036,1117.814850036,1119.849478422,1119.849478422,1119.849478422,1119.849478422,,,,,,,,,,,,,,,,,,,,,,,,,,,,,,,,,,,,,,,6,009,2022-09-26_09h00.26.271,test2,2022.2.4,59.942675740213375,
0,0,0,0,173,0,173,0,1119.849478422,1119.849478422,1119.849478422,1119.849478422,1119.849478422,1119.849478422,1119.849478422,1,1,rojo,1,['N_A'],1121.267540157,1121.267540157,1121.267540157,1121.267540157,1123.303657683,1123.303657683,1123.303657683,1123.303657683,1123.303657683,1123.303657683,1123.303657683,1123.303657683,1125.338902843,1125.338902843,1125.338902843,1125.338902843,,,,,,,,,,,,,,,,,,,,,,,,,,,,,,,,,,,,,,,6,009,2022-09-26_09h00.26.271,test2,2022.2.4,59.942675740213375,
0,0,0,0,174,0,174,0,1125.338902843,1125.338902843,1125.338902843,1125.338902843,1125.338902843,1125.338902843,1125.338902843,1,-1,rojo,1,['N_A'],1127.007485459,1127.007485459,1127.007485459,1127.007485459,1129.042901309,1129.042901309,1129.042901309,1129.042901309,1129.042901309,1129.042901309,1129.042901309,1129.042901309,1131.078925004,1131.078925004,1131.078925004,1131.078925004,,,,,,,,,,,,,,,,,,,,,,,,,,,,,,,,,,,,,,,6,009,2022-09-26_09h00.26.271,test2,2022.2.4,59.942675740213375,
0,0,0,0,175,0,175,0,1131.078925004,1131.078925004,1131.078925004,1131.078925004,1131.078925004,1131.078925004,1131.078925004,-1,1,azul,1,['N_A'],1132.664656356,1132.664656356,1132.664656356,1132.664656356,1134.682893019,1134.682893019,1134.682893019,1134.682893019,1134.682893019,1134.682893019,1134.682893019,1134.682893019,1136.718425491,1136.718425491,1136.718425491,1136.718425491,,,,,,,,,,,,,,,,,,,,,,,,,,,,,,,,,,,,,,,6,009,2022-09-26_09h00.26.271,test2,2022.2.4,59.942675740213375,
0,0,0,0,176,0,176,0,1136.718425491,1136.718425491,1136.718425491,1136.718425491,1136.718425491,1136.718425491,1136.718425491,1,1,rojo,1,['N_A'],1139.104611894,1139.104611894,1139.104611894,1139.104611894,1141.1403156439999,1141.1403156439999,1141.1403156439999,1141.1403156439999,1141.1403156439999,1141.1403156439999,1141.1403156439999,1141.1403156439999,1143.175537991,1143.175537991,1143.175537991,1143.175537991,,,,,,,,,,,,,,,,,,,,,,,,,,,,,,,,,,,,,,,6,009,2022-09-26_09h00.26.271,test2,2022.2.4,59.942675740213375,
0,0,0,0,177,0,177,0,1143.175537991,1143.175537991,1143.175537991,1143.175537991,1143.175537991,1143.175537991,1143.175537991,1,-1,rojo,1,['N_A'],1145.461276697,1145.461276697,1145.461276697,1145.461276697,1147.497157659,1147.497157659,1147.497157659,1147.497157659,1147.497157659,1147.497157659,1147.497157659,1147.497157659,1149.532303309,1149.532303309,1149.532303309,1149.532303309,,,,,,,,,,,,,,,,,,,,,,,,,,,,,,,,,,,,,,,6,009,2022-09-26_09h00.26.271,test2,2022.2.4,59.942675740213375,
0,0,0,0,178,0,178,0,1149.532303309,1149.532303309,1149.532303309,1149.532303309,1149.532303309,1149.532303309,1149.532303309,-1,1,azul,1,['N_A'],1152.101864916,1152.101864916,1152.101864916,1152.101864916,1154.120975308,1154.120975308,1154.120975308,1154.120975308,1154.120975308,1154.120975308,1154.120975308,1154.120975308,1156.15605627,1156.15605627,1156.15605627,1156.15605627,,,,,,,,,,,,,,,,,,,,,,,,,,,,,,,,,,,,,,,6,009,2022-09-26_09h00.26.271,test2,2022.2.4,59.942675740213375,
0,0,0,0,179,0,179,0,1156.15605627,1156.15605627,1156.15605627,1156.15605627,1156.15605627,1156.15605627,1156.15605627,-1,1,azul,1,['N_A'],1157.474835904,1157.474835904,1157.474835904,1157.474835904,1159.493721641,1159.493721641,1159.493721641,1159.493721641,1159.493721641,1159.493721641,1159.493721641,1159.493721641,1161.5286775,1161.5286775,1161.5286775,1161.5286775,,,,,,,,,,,,,,,,,,,,,,,,,,,,,,,,,,,,,,,6,009,2022-09-26_09h00.26.271,test2,2022.2.4,59.942675740213375,
0,0,0,0,180,0,180,0,1161.5286775,1161.5286775,1161.5286775,1161.5286775,1161.5286775,1161.5286775,1161.5286775,1,1,rojo,1,['N_A'],1162.897007605,1162.897007605,1162.897007605,1162.897007605,1164.932896678,1164.932896678,1164.932896678,1164.932896678,1164.932896678,1164.932896678,1164.932896678,1164.932896678,1166.968382526,1166.968382526,1166.968382526,1166.968382526,,,,,,,,,,,,,,,,,,,,,,,,,,,,,,,,,,,,,,,6,009,2022-09-26_09h00.26.271,test2,2022.2.4,59.942675740213375,
0,0,0,0,181,0,181,0,1166.968382526,1166.968382526,1166.968382526,1166.968382526,1166.968382526,1166.968382526,1166.968382526,1,-1,rojo,1,['N_A'],1168.553044926,1168.553044926,1168.553044926,1168.553044926,1170.589439444,1170.589439444,1170.589439444,1170.589439444,1170.589439444,1170.589439444,1170.589439444,1170.589439444,1172.624188411,1172.624188411,1172.624188411,1172.624188411,,,,,,,,,,,,,,,,,,,,,,,,,,,,,,,,,,,,,,,6,009,2022-09-26_09h00.26.271,test2,2022.2.4,59.942675740213375,
0,0,0,0,182,0,182,0,1172.624188411,1172.624188411,1172.624188411,1172.624188411,1172.624188411,1172.624188411,1172.624188411,1,-1,rojo,1,['N_A'],1174.093603062,1174.093603062,1174.093603062,1174.093603062,1176.129099701,1176.129099701,1176.129099701,1176.129099701,1176.129099701,1176.129099701,1176.129099701,1176.129099701,1178.164119132,1178.164119132,1178.164119132,1178.164119132,,,,,,,,,,,,,,,,,,,,,,,,,,,,,,,,,,,,,,,6,009,2022-09-26_09h00.26.271,test2,2022.2.4,59.942675740213375,
0,0,0,0,183,0,183,0,1178.164119132,1178.164119132,1178.164119132,1178.164119132,1178.164119132,1178.164119132,1178.164119132,1,1,rojo,1,['N_A'],1179.548924367,1179.548924367,1179.548924367,1179.548924367,1181.56762894,1181.56762894,1181.56762894,1181.56762894,1181.56762894,1181.56762894,1181.56762894,1181.56762894,1183.603538662,1183.603538662,1183.603538662,1183.603538662,,,,,,,,,,,,,,,,,,,,,,,,,,,,,,,,,,,,,,,6,009,2022-09-26_09h00.26.271,test2,2022.2.4,59.942675740213375,
0,0,0,0,184,0,184,0,1183.603538662,1183.603538662,1183.603538662,1183.603538662,1183.603538662,1183.603538662,1183.603538662,-1,1,azul,1,['N_A'],1185.505165199,1185.505165199,1185.505165199,1185.505165199,1187.523657273,1187.523657273,1187.523657273,1187.523657273,1187.523657273,1187.523657273,1187.523657273,1187.523657273,1189.559960208,1189.559960208,1189.559960208,1189.559960208,,,,,,,,,,,,,,,,,,,,,,,,,,,,,,,,,,,,,,,6,009,2022-09-26_09h00.26.271,test2,2022.2.4,59.942675740213375,
0,0,0,0,185,0,185,0,1189.559960208,1189.559960208,1189.559960208,1189.559960208,1189.559960208,1189.559960208,1189.559960208,1,1,rojo,1,['N_A'],1191.328556938,1191.328556938,1191.328556938,1191.328556938,1193.346951844,1193.346951844,1193.346951844,1193.346951844,1193.346951844,1193.346951844,1193.346951844,1193.346951844,1195.382877986,1195.382877986,1195.382877986,1195.382877986,,,,,,,,,,,,,,,,,,,,,,,,,,,,,,,,,,,,,,,6,009,2022-09-26_09h00.26.271,test2,2022.2.4,59.942675740213375,
0,0,0,0,186,0,186,0,1195.382877986,1195.382877986,1195.382877986,1195.382877986,1195.382877986,1195.382877986,1195.382877986,1,1,rojo,1,['N_A'],1197.051864123,1197.051864123,1197.051864123,1197.051864123,1199.086891962,1199.086891962,1199.086891962,1199.086891962,1199.086891962,1199.086891962,1199.086891962,1199.086891962,1201.12280429,1201.12280429,1201.12280429,1201.12280429,,,,,,,,,,,,,,,,,,,,,,,,,,,,,,,,,,,,,,,6,009,2022-09-26_09h00.26.271,test2,2022.2.4,59.942675740213375,
0,0,0,0,187,0,187,0,1201.12280429,1201.12280429,1201.12280429,1201.12280429,1201.12280429,1201.12280429,1201.12280429,1,-1,rojo,1,['N_A'],1203.67577301,1203.67577301,1203.67577301,1203.67577301,1205.711746786,1205.711746786,1205.711746786,1205.711746786,1205.711746786,1205.711746786,1205.711746786,1205.711746786,1207.746816259,1207.746816259,1207.746816259,1207.746816259,,,,,,,,,,,,,,,,,,,,,,,,,,,,,,,,,,,,,,,6,009,2022-09-26_09h00.26.271,test2,2022.2.4,59.942675740213375,
0,0,0,0,188,0,188,0,1207.746816259,1207.746816259,1207.746816259,1207.746816259,1207.746816259,1207.746816259,1207.746816259,-1,1,azul,1,['N_A'],1209.514865004,1209.514865004,1209.514865004,1209.514865004,1211.533893355,1211.533893355,1211.533893355,1211.533893355,1211.533893355,1211.533893355,1211.533893355,1211.533893355,1213.569840865,1213.569840865,1213.569840865,1213.569840865,,,,,,,,,,,,,,,,,,,,,,,,,,,,,,,,,,,,,,,6,009,2022-09-26_09h00.26.271,test2,2022.2.4,59.942675740213375,
0,0,0,0,189,0,189,0,1213.569840865,1213.569840865,1213.569840865,1213.569840865,1213.569840865,1213.569840865,1213.569840865,1,1,rojo,1,['N_A'],1215.021290779,1215.021290779,1215.021290779,1215.021290779,1217.040049681,1217.040049681,1217.040049681,1217.040049681,1217.040049681,1217.040049681,1217.040049681,1217.040049681,1219.076034961,1219.076034961,1219.076034961,1219.076034961,,,,,,,,,,,,,,,,,,,,,,,,,,,,,,,,,,,,,,,6,009,2022-09-26_09h00.26.271,test2,2022.2.4,59.942675740213375,
0,0,0,0,190,0,190,0,1219.076034961,1219.076034961,1219.076034961,1219.076034961,1219.076034961,1219.076034961,1219.076034961,-1,1,azul,1,['N_A'],1221.094750266,1221.094750266,1221.094750266,1221.094750266,1223.113041801,1223.113041801,1223.113041801,1223.113041801,1223.113041801,1223.113041801,1223.113041801,1223.113041801,1225.148770293,1225.148770293,1225.148770293,1225.148770293,,,,,,,,,,,,,,,,,,,,,,,,,,,,,,,,,,,,,,,6,009,2022-09-26_09h00.26.271,test2,2022.2.4,59.942675740213375,
0,0,0,0,191,0,191,0,1225.148770293,1225.148770293,1225.148770293,1225.148770293,1225.148770293,1225.148770293,1225.148770293,-1,1,azul,1,['N_A'],1226.800681563,1226.800681563,1226.800681563,1226.800681563,1228.820109367,1228.820109367,1228.820109367,1228.820109367,1228.820109367,1228.820109367,1228.820109367,1228.820109367,1230.855228674,1230.855228674,1230.855228674,1230.855228674,,,,,,,,,,,,,,,,,,,,,,,,,,,,,,,,,,,,,,,6,009,2022-09-26_09h00.26.271,test2,2022.2.4,59.942675740213375,
