trials_2.thisRepN,trials_2.thisTrialN,trials_2.thisN,trials_2.thisIndex,trials.thisRepN,trials.thisTrialN,trials.thisN,trials.thisIndex,Instrucción2.started,N_A_4.started,N_B_4.started,Exitos_3.started,Dias_3.started,Stimuli_1.started,Stimuli_2.started,Transitions,Rewards,Mode,Stay,Neighbour,Stimuli_3.started,Modo.started,Dias2.started,Exitos2.started,Stimuli_3.stopped,Modo.stopped,Dias2.stopped,Exitos2.stopped,Reward.started,Stimuli_reward.started,Exitos3.started,Dias3.started,Reward.stopped,Stimuli_reward.stopped,Exitos3.stopped,Dias3.stopped,Cue_text.started,Stimuli_4.started,Exitos4.started,Dias4.started,Stimuli_3_3.started,Stimuli_2_3.started,Instrucción.started,N_A.started,N_B.started,N_C.started,Exitos_2.started,Dias_2.started,Stimuli_1_3.started,Resp_final_1,Modo2.started,Modo1.started,Pregunta_4.started,Modo3.started,Exitos7.started,Dias6.started,Resp_final_2,Modo1_2.started,Pregunta_3.started,Modo2_2.started,Exitos8.started,Dias7.started,Resp_final_3,Mensaje_Final2.started,Exitos6.started,participant,session,date,expName,psychopyVersion,frameRate,
0,0,0,0,0,0,0,0,735.010699816,735.010699816,735.010699816,735.010699816,735.010699816,735.010699816,735.010699816,0,0,0,0,['N_A'],741.4998336140001,741.4998336140001,741.4998336140001,741.4998336140001,743.5532067529999,743.5532067529999,743.5532067529999,743.5532067529999,743.5532067529999,743.5532067529999,743.5532067529999,743.5532067529999,745.588895963,745.588895963,745.588895963,745.588895963,,,,,,,,,,,,,,,,,,,,,,,,,,,,,,6,011,2022-09-27_09h06.38.872,test2,2022.2.4,60.16415126872891,
0,0,0,0,1,0,1,0,745.588895963,745.588895963,745.588895963,745.588895963,745.588895963,745.588895963,745.588895963,-1,1,azul,1,['N_A'],754.966064479,754.966064479,754.966064479,754.966064479,757.0515381650001,757.0515381650001,757.0515381650001,757.0515381650001,757.0515381650001,757.0515381650001,757.0515381650001,757.0515381650001,759.0871055430001,759.0871055430001,759.0871055430001,759.0871055430001,,,,,,,,,,,,,,,,,,,,,,,,,,,,,,6,011,2022-09-27_09h06.38.872,test2,2022.2.4,60.16415126872891,
0,0,0,0,2,0,2,0,759.0871055430001,759.0871055430001,759.0871055430001,759.0871055430001,759.0871055430001,759.0871055430001,759.0871055430001,1,-1,rojo,0,['N_B'],765.711204053,765.711204053,765.711204053,765.711204053,767.7474336270001,767.7474336270001,767.7474336270001,767.7474336270001,767.7474336270001,767.7474336270001,767.7474336270001,767.7474336270001,769.7827255440001,769.7827255440001,769.7827255440001,769.7827255440001,,,,,,,,,,,,,,,,,,,,,,,,,,,,,,6,011,2022-09-27_09h06.38.872,test2,2022.2.4,60.16415126872891,
0,0,0,0,3,0,3,0,769.7827255440001,769.7827255440001,769.7827255440001,769.7827255440001,769.7827255440001,769.7827255440001,769.7827255440001,-1,-1,rojo,1,['N_B'],776.7235934270001,776.7235934270001,776.7235934270001,776.7235934270001,778.759429906,778.759429906,778.759429906,778.759429906,778.759429906,778.759429906,778.759429906,778.759429906,780.7941737110001,780.7941737110001,780.7941737110001,780.7941737110001,,,,,,,,,,,,,,,,,,,,,,,,,,,,,,6,011,2022-09-27_09h06.38.872,test2,2022.2.4,60.16415126872891,
0,0,0,0,4,0,4,0,780.7941737110001,780.7941737110001,780.7941737110001,780.7941737110001,780.7941737110001,780.7941737110001,780.7941737110001,1,-1,azul,1,['N_B'],787.0352249399999,787.0352249399999,787.0352249399999,787.0352249399999,789.070970334,789.070970334,789.070970334,789.070970334,789.070970334,789.070970334,789.070970334,789.070970334,791.105652268,791.105652268,791.105652268,791.105652268,,,,,,,,,,,,,,,,,,,,,,,,,,,,,,6,011,2022-09-27_09h06.38.872,test2,2022.2.4,60.16415126872891,
0,0,0,0,5,0,5,0,791.105652268,791.105652268,791.105652268,791.105652268,791.105652268,791.105652268,791.105652268,-1,-1,rojo,0,['N_A'],793.8928817290001,793.8928817290001,793.8928817290001,793.8928817290001,795.9282272500001,795.9282272500001,795.9282272500001,795.9282272500001,795.9282272500001,795.9282272500001,795.9282272500001,795.9282272500001,797.963993645,797.963993645,797.963993645,797.963993645,,,,,,,,,,,,,,,,,,,,,,,,,,,,,,6,011,2022-09-27_09h06.38.872,test2,2022.2.4,60.16415126872891,
0,0,0,0,6,0,6,0,797.963993645,797.963993645,797.963993645,797.963993645,797.963993645,797.963993645,797.963993645,1,-1,rojo,1,['N_A'],802.719181562,802.719181562,802.719181562,802.719181562,804.7541675470001,804.7541675470001,804.7541675470001,804.7541675470001,804.7541675470001,804.7541675470001,804.7541675470001,804.7541675470001,806.7895595599999,806.7895595599999,806.7895595599999,806.7895595599999,,,,,,,,,,,,,,,,,,,,,,,,,,,,,,6,011,2022-09-27_09h06.38.872,test2,2022.2.4,60.16415126872891,
0,0,0,0,7,0,7,0,806.7895595599999,806.7895595599999,806.7895595599999,806.7895595599999,806.7895595599999,806.7895595599999,806.7895595599999,1,1,rojo,1,['N_A'],813.647692425,813.647692425,813.647692425,813.647692425,815.68309693,815.68309693,815.68309693,815.68309693,815.68309693,815.68309693,815.68309693,815.68309693,817.7181188160001,817.7181188160001,817.7181188160001,817.7181188160001,,,,,,,,,,,,,,,,,,,,,,,,,,,,,,6,011,2022-09-27_09h06.38.872,test2,2022.2.4,60.16415126872891,
0,0,0,0,8,0,8,0,817.7181188160001,817.7181188160001,817.7181188160001,817.7181188160001,817.7181188160001,817.7181188160001,817.7181188160001,1,-1,rojo,1,['N_A'],819.4368270399999,819.4368270399999,819.4368270399999,819.4368270399999,821.473050966,821.473050966,821.473050966,821.473050966,821.473050966,821.473050966,821.473050966,821.473050966,823.5079868260001,823.5079868260001,823.5079868260001,823.5079868260001,,,,,,,,,,,,,,,,,,,,,,,,,,,,,,6,011,2022-09-27_09h06.38.872,test2,2022.2.4,60.16415126872891,
0,0,0,0,9,0,9,0,823.5079868260001,823.5079868260001,823.5079868260001,823.5079868260001,823.5079868260001,823.5079868260001,823.5079868260001,1,1,rojo,1,['N_A'],826.028293317,826.028293317,826.028293317,826.028293317,828.0635860040001,828.0635860040001,828.0635860040001,828.0635860040001,828.0635860040001,828.0635860040001,828.0635860040001,828.0635860040001,830.098991984,830.098991984,830.098991984,830.098991984,,,,,,,,,,,,,,,,,,,,,,,,,,,,,,6,011,2022-09-27_09h06.38.872,test2,2022.2.4,60.16415126872891,
0,0,0,0,10,0,10,0,830.098991984,830.098991984,830.098991984,830.098991984,830.098991984,830.098991984,830.098991984,-1,-1,azul,0,['N_B'],836.5892504889999,836.5892504889999,836.5892504889999,836.5892504889999,838.6249965549999,838.6249965549999,838.6249965549999,838.6249965549999,838.6249965549999,838.6249965549999,838.6249965549999,838.6249965549999,840.6608961620001,840.6608961620001,840.6608961620001,840.6608961620001,,,,,,,,,,,,,,,,,,,,,,,,,,,,,,6,011,2022-09-27_09h06.38.872,test2,2022.2.4,60.16415126872891,
0,0,0,0,11,0,11,0,840.6608961620001,840.6608961620001,840.6608961620001,840.6608961620001,840.6608961620001,840.6608961620001,840.6608961620001,1,-1,azul,0,['N_A'],842.479058883,842.479058883,842.479058883,842.479058883,844.5140084390001,844.5140084390001,844.5140084390001,844.5140084390001,844.5140084390001,844.5140084390001,844.5140084390001,844.5140084390001,846.5508580320001,846.5508580320001,846.5508580320001,846.5508580320001,,,,,,,,,,,,,,,,,,,,,,,,,,,,,,6,011,2022-09-27_09h06.38.872,test2,2022.2.4,60.16415126872891,
0,0,0,0,12,0,12,0,846.5508580320001,846.5508580320001,846.5508580320001,846.5508580320001,846.5508580320001,846.5508580320001,846.5508580320001,1,-1,rojo,1,['N_A'],848.102398803,848.102398803,848.102398803,848.102398803,850.1381501100001,850.1381501100001,850.1381501100001,850.1381501100001,850.1381501100001,850.1381501100001,850.1381501100001,850.1381501100001,852.1731968539999,852.1731968539999,852.1731968539999,852.1731968539999,,,,,,,,,,,,,,,,,,,,,,,,,,,,,,6,011,2022-09-27_09h06.38.872,test2,2022.2.4,60.16415126872891,
0,0,0,0,13,0,13,0,852.1731968539999,852.1731968539999,852.1731968539999,852.1731968539999,852.1731968539999,852.1731968539999,852.1731968539999,-1,-1,azul,1,['N_A'],856.0606025400001,856.0606025400001,856.0606025400001,856.0606025400001,858.096566138,858.096566138,858.096566138,858.096566138,858.096566138,858.096566138,858.096566138,858.096566138,860.1326436749999,860.1326436749999,860.1326436749999,860.1326436749999,,,,,,,,,,,,,,,,,,,,,,,,,,,,,,6,011,2022-09-27_09h06.38.872,test2,2022.2.4,60.16415126872891,
0,0,0,0,14,0,14,0,860.1326436749999,860.1326436749999,860.1326436749999,860.1326436749999,860.1326436749999,860.1326436749999,860.1326436749999,1,-1,rojo,1,['N_A'],863.4854473869999,863.4854473869999,863.4854473869999,863.4854473869999,865.52209779,865.52209779,865.52209779,865.52209779,865.52209779,865.52209779,865.52209779,865.52209779,867.556660478,867.556660478,867.556660478,867.556660478,,,,,,,,,,,,,,,,,,,,,,,,,,,,,,6,011,2022-09-27_09h06.38.872,test2,2022.2.4,60.16415126872891,
0,0,0,0,15,0,15,0,867.556660478,867.556660478,867.556660478,867.556660478,867.556660478,867.556660478,867.556660478,1,-1,rojo,1,['N_A'],872.112285173,872.112285173,872.112285173,872.112285173,874.147205675,874.147205675,874.147205675,874.147205675,874.147205675,874.147205675,874.147205675,874.147205675,876.183288715,876.183288715,876.183288715,876.183288715,,,,,,,,,,,,,,,,,,,,,,,,,,,,,,6,011,2022-09-27_09h06.38.872,test2,2022.2.4,60.16415126872891,
0,0,0,0,16,0,16,0,876.183288715,876.183288715,876.183288715,876.183288715,876.183288715,876.183288715,876.183288715,1,-1,rojo,1,['N_A'],879.0363996730001,879.0363996730001,879.0363996730001,879.0363996730001,881.072020558,881.072020558,881.072020558,881.072020558,881.072020558,881.072020558,881.072020558,881.072020558,883.106947441,883.106947441,883.106947441,883.106947441,,,,,,,,,,,,,,,,,,,,,,,,,,,,,,6,011,2022-09-27_09h06.38.872,test2,2022.2.4,60.16415126872891,
0,0,0,0,17,0,17,0,883.106947441,883.106947441,883.106947441,883.106947441,883.106947441,883.106947441,883.106947441,-1,1,azul,1,['N_A'],884.725860418,884.725860418,884.725860418,884.725860418,886.7456547140001,886.7456547140001,886.7456547140001,886.7456547140001,886.7456547140001,886.7456547140001,886.7456547140001,886.7456547140001,888.7799965539999,888.7799965539999,888.7799965539999,888.7799965539999,,,,,,,,,,,,,,,,,,,,,,,,,,,,,,6,011,2022-09-27_09h06.38.872,test2,2022.2.4,60.16415126872891,
0,0,0,0,18,0,18,0,888.7799965539999,888.7799965539999,888.7799965539999,888.7799965539999,888.7799965539999,888.7799965539999,888.7799965539999,-1,1,azul,0,['N_B'],890.49897155,890.49897155,890.49897155,890.49897155,892.5175998430001,892.5175998430001,892.5175998430001,892.5175998430001,892.5175998430001,892.5175998430001,892.5175998430001,892.5175998430001,894.553021713,894.553021713,894.553021713,894.553021713,,,,,,,,,,,,,,,,,,,,,,,,,,,,,,6,011,2022-09-27_09h06.38.872,test2,2022.2.4,60.16415126872891,
0,0,0,0,19,0,19,0,894.553021713,894.553021713,894.553021713,894.553021713,894.553021713,894.553021713,894.553021713,1,1,azul,0,['N_A'],899.0420603220001,899.0420603220001,899.0420603220001,899.0420603220001,901.061167363,901.061167363,901.061167363,901.061167363,901.061167363,901.061167363,901.061167363,901.061167363,903.0963903349999,903.0963903349999,903.0963903349999,903.0963903349999,,,,,,,,,,,,,,,,,,,,,,,,,,,,,,6,011,2022-09-27_09h06.38.872,test2,2022.2.4,60.16415126872891,
0,0,0,0,20,0,20,0,903.0963903349999,903.0963903349999,903.0963903349999,903.0963903349999,903.0963903349999,903.0963903349999,903.0963903349999,1,1,rojo,0,['N_B'],904.9479066939999,904.9479066939999,904.9479066939999,904.9479066939999,906.967203515,906.967203515,906.967203515,906.967203515,906.967203515,906.967203515,906.967203515,906.967203515,909.0030493820001,909.0030493820001,909.0030493820001,909.0030493820001,,,,,,,,,,,,,,,,,,,,,,,,,,,,,,6,011,2022-09-27_09h06.38.872,test2,2022.2.4,60.16415126872891,
0,0,0,0,21,0,21,0,909.0030493820001,909.0030493820001,909.0030493820001,909.0030493820001,909.0030493820001,909.0030493820001,909.0030493820001,1,1,azul,1,['N_B'],916.6950123759999,916.6950123759999,916.6950123759999,916.6950123759999,918.731106324,918.731106324,918.731106324,918.731106324,918.731106324,918.731106324,918.731106324,918.731106324,920.7655151120001,920.7655151120001,920.7655151120001,920.7655151120001,,,,,,,,,,,,,,,,,,,,,,,,,,,,,,6,011,2022-09-27_09h06.38.872,test2,2022.2.4,60.16415126872891,
0,0,0,0,22,0,22,0,920.7655151120001,920.7655151120001,920.7655151120001,920.7655151120001,920.7655151120001,920.7655151120001,920.7655151120001,-1,-1,rojo,0,['N_A'],922.2334541710001,922.2334541710001,922.2334541710001,922.2334541710001,924.2697457969999,924.2697457969999,924.2697457969999,924.2697457969999,924.2697457969999,924.2697457969999,924.2697457969999,924.2697457969999,926.3052242079999,926.3052242079999,926.3052242079999,926.3052242079999,,,,,,,,,,,,,,,,,,,,,,,,,,,,,,6,011,2022-09-27_09h06.38.872,test2,2022.2.4,60.16415126872891,
0,0,0,0,23,0,23,0,926.3052242079999,926.3052242079999,926.3052242079999,926.3052242079999,926.3052242079999,926.3052242079999,926.3052242079999,1,1,rojo,1,['N_A'],928.240341369,928.240341369,928.240341369,928.240341369,930.258731578,930.258731578,930.258731578,930.258731578,930.258731578,930.258731578,930.258731578,930.258731578,932.2953935019999,932.2953935019999,932.2953935019999,932.2953935019999,,,,,,,,,,,,,,,,,,,,,,,,,,,,,,6,011,2022-09-27_09h06.38.872,test2,2022.2.4,60.16415126872891,
0,0,0,0,24,0,24,0,932.2953935019999,932.2953935019999,932.2953935019999,932.2953935019999,932.2953935019999,932.2953935019999,932.2953935019999,1,1,rojo,0,['N_B'],933.9802437909999,933.9802437909999,933.9802437909999,933.9802437909999,935.999152619,935.999152619,935.999152619,935.999152619,935.999152619,935.999152619,935.999152619,935.999152619,938.0349904599999,938.0349904599999,938.0349904599999,938.0349904599999,,,,,,,,,,,,,,,,,,,,,,,,,,,,,,6,011,2022-09-27_09h06.38.872,test2,2022.2.4,60.16415126872891,
0,0,0,0,25,0,25,0,938.0349904599999,938.0349904599999,938.0349904599999,938.0349904599999,938.0349904599999,938.0349904599999,938.0349904599999,-1,1,rojo,0,['N_A'],940.521215482,940.521215482,940.521215482,940.521215482,942.5565735690001,942.5565735690001,942.5565735690001,942.5565735690001,942.5565735690001,942.5565735690001,942.5565735690001,942.5565735690001,944.591544454,944.591544454,944.591544454,944.591544454,,,,,,,,,,,,,,,,,,,,,,,,,,,,,,6,011,2022-09-27_09h06.38.872,test2,2022.2.4,60.16415126872891,
0,0,0,0,26,0,26,0,944.591544454,944.591544454,944.591544454,944.591544454,944.591544454,944.591544454,944.591544454,1,-1,rojo,1,['N_A'],947.845103842,947.845103842,947.845103842,947.845103842,949.8815464850001,949.8815464850001,949.8815464850001,949.8815464850001,949.8815464850001,949.8815464850001,949.8815464850001,949.8815464850001,951.916195828,951.916195828,951.916195828,951.916195828,,,,,,,,,,,,,,,,,,,,,,,,,,,,,,6,011,2022-09-27_09h06.38.872,test2,2022.2.4,60.16415126872891,
0,0,0,0,27,0,27,0,951.916195828,951.916195828,951.916195828,951.916195828,951.916195828,951.916195828,951.916195828,-1,1,azul,1,['N_A'],954.569681884,954.569681884,954.569681884,954.569681884,956.5882532219999,956.5882532219999,956.5882532219999,956.5882532219999,956.5882532219999,956.5882532219999,956.5882532219999,956.5882532219999,958.624592152,958.624592152,958.624592152,958.624592152,,,,,,,,,,,,,,,,,,,,,,,,,,,,,,6,011,2022-09-27_09h06.38.872,test2,2022.2.4,60.16415126872891,
0,0,0,0,28,0,28,0,958.624592152,958.624592152,958.624592152,958.624592152,958.624592152,958.624592152,958.624592152,1,1,rojo,1,['N_A'],960.3094214419999,960.3094214419999,960.3094214419999,960.3094214419999,962.327763162,962.327763162,962.327763162,962.327763162,962.327763162,962.327763162,962.327763162,962.327763162,964.363999902,964.363999902,964.363999902,964.363999902,,,,,,,,,,,,,,,,,,,,,,,,,,,,,,6,011,2022-09-27_09h06.38.872,test2,2022.2.4,60.16415126872891,
0,0,0,0,29,0,29,0,964.363999902,964.363999902,964.363999902,964.363999902,964.363999902,964.363999902,964.363999902,1,1,rojo,0,['N_B'],967.650990146,967.650990146,967.650990146,967.650990146,969.6689069309999,969.6689069309999,969.6689069309999,969.6689069309999,969.6689069309999,969.6689069309999,969.6689069309999,969.6689069309999,971.7058076019999,971.7058076019999,971.7058076019999,971.7058076019999,,,,,,,,,,,,,,,,,,,,,,,,,,,,,,6,011,2022-09-27_09h06.38.872,test2,2022.2.4,60.16415126872891,
0,0,0,0,30,0,30,0,971.7058076019999,971.7058076019999,971.7058076019999,971.7058076019999,971.7058076019999,971.7058076019999,971.7058076019999,1,1,azul,0,['N_A'],975.425583442,975.425583442,975.425583442,975.425583442,977.444105489,977.444105489,977.444105489,977.444105489,977.444105489,977.444105489,977.444105489,977.444105489,979.4807193539999,979.4807193539999,979.4807193539999,979.4807193539999,,,,,,,,,,,,,,,,,,,,,,,,,,,,,,6,011,2022-09-27_09h06.38.872,test2,2022.2.4,60.16415126872891,
0,0,0,0,31,0,31,0,979.4807193539999,979.4807193539999,979.4807193539999,979.4807193539999,979.4807193539999,979.4807193539999,979.4807193539999,1,1,rojo,0,['N_B'],982.2331614430001,982.2331614430001,982.2331614430001,982.2331614430001,984.2689538650001,984.2689538650001,984.2689538650001,984.2689538650001,984.2689538650001,984.2689538650001,984.2689538650001,984.2689538650001,986.3050915729999,986.3050915729999,986.3050915729999,986.3050915729999,,,,,,,,,,,,,,,,,,,,,,,,,,,,,,6,011,2022-09-27_09h06.38.872,test2,2022.2.4,60.16415126872891,
0,0,0,0,32,0,32,0,986.3050915729999,986.3050915729999,986.3050915729999,986.3050915729999,986.3050915729999,986.3050915729999,986.3050915729999,-1,-1,rojo,0,['N_A'],988.591155345,988.591155345,988.591155345,988.591155345,990.626045456,990.626045456,990.626045456,990.626045456,990.626045456,990.626045456,990.626045456,990.626045456,992.6614079889999,992.6614079889999,992.6614079889999,992.6614079889999,,,,,,,,,,,,,,,,,,,,,,,,,,,,,,6,011,2022-09-27_09h06.38.872,test2,2022.2.4,60.16415126872891,
0,0,0,0,33,0,33,0,992.6614079889999,992.6614079889999,992.6614079889999,992.6614079889999,992.6614079889999,992.6614079889999,992.6614079889999,1,1,rojo,1,['N_A'],994.514088177,994.514088177,994.514088177,994.514088177,996.549233156,996.549233156,996.549233156,996.549233156,996.549233156,996.549233156,996.549233156,996.549233156,998.5845445179999,998.5845445179999,998.5845445179999,998.5845445179999,,,,,,,,,,,,,,,,,,,,,,,,,,,,,,6,011,2022-09-27_09h06.38.872,test2,2022.2.4,60.16415126872891,
0,0,0,0,34,0,34,0,998.5845445179999,998.5845445179999,998.5845445179999,998.5845445179999,998.5845445179999,998.5845445179999,998.5845445179999,-1,-1,azul,1,['N_A'],1001.504611535,1001.504611535,1001.504611535,1001.504611535,1003.5401326120001,1003.5401326120001,1003.5401326120001,1003.5401326120001,1003.5401326120001,1003.5401326120001,1003.5401326120001,1003.5401326120001,1005.5761120200001,1005.5761120200001,1005.5761120200001,1005.5761120200001,,,,,,,,,,,,,,,,,,,,,,,,,,,,,,6,011,2022-09-27_09h06.38.872,test2,2022.2.4,60.16415126872891,
0,0,0,0,35,0,35,0,1005.5761120200001,1005.5761120200001,1005.5761120200001,1005.5761120200001,1005.5761120200001,1005.5761120200001,1005.5761120200001,1,1,rojo,1,['N_A'],1007.5953663920001,1007.5953663920001,1007.5953663920001,1007.5953663920001,1009.6307732429999,1009.6307732429999,1009.6307732429999,1009.6307732429999,1009.6307732429999,1009.6307732429999,1009.6307732429999,1009.6307732429999,1011.666288256,1011.666288256,1011.666288256,1011.666288256,,,,,,,,,,,,,,,,,,,,,,,,,,,,,,6,011,2022-09-27_09h06.38.872,test2,2022.2.4,60.16415126872891,
0,0,0,0,36,0,36,0,1011.666288256,1011.666288256,1011.666288256,1011.666288256,1011.666288256,1011.666288256,1011.666288256,1,-1,rojo,1,['N_A'],1014.2859039399999,1014.2859039399999,1014.2859039399999,1014.2859039399999,1016.320862705,1016.320862705,1016.320862705,1016.320862705,1016.320862705,1016.320862705,1016.320862705,1016.320862705,1018.356367598,1018.356367598,1018.356367598,1018.356367598,,,,,,,,,,,,,,,,,,,,,,,,,,,,,,6,011,2022-09-27_09h06.38.872,test2,2022.2.4,60.16415126872891,
0,0,0,0,37,0,37,0,1018.356367598,1018.356367598,1018.356367598,1018.356367598,1018.356367598,1018.356367598,1018.356367598,1,1,rojo,0,['N_B'],1021.259652155,1021.259652155,1021.259652155,1021.259652155,1023.2789403989999,1023.2789403989999,1023.2789403989999,1023.2789403989999,1023.2789403989999,1023.2789403989999,1023.2789403989999,1023.2789403989999,1025.3142093010001,1025.3142093010001,1025.3142093010001,1025.3142093010001,,,,,,,,,,,,,,,,,,,,,,,,,,,,,,6,011,2022-09-27_09h06.38.872,test2,2022.2.4,60.16415126872891,
0,0,0,0,38,0,38,0,1025.3142093010001,1025.3142093010001,1025.3142093010001,1025.3142093010001,1025.3142093010001,1025.3142093010001,1025.3142093010001,1,1,azul,0,['N_A'],1026.99952183,1026.99952183,1026.99952183,1026.99952183,1029.0351157240002,1029.0351157240002,1029.0351157240002,1029.0351157240002,1029.0351157240002,1029.0351157240002,1029.0351157240002,1029.0351157240002,1031.070320147,1031.070320147,1031.070320147,1031.070320147,,,,,,,,,,,,,,,,,,,,,,,,,,,,,,6,011,2022-09-27_09h06.38.872,test2,2022.2.4,60.16415126872891,
0,0,0,0,39,0,39,0,1031.070320147,1031.070320147,1031.070320147,1031.070320147,1031.070320147,1031.070320147,1031.070320147,-1,-1,azul,1,['N_A'],1035.425806873,1035.425806873,1035.425806873,1035.425806873,1037.461346129,1037.461346129,1037.461346129,1037.461346129,1037.461346129,1037.461346129,1037.461346129,1037.461346129,1039.496585203,1039.496585203,1039.496585203,1039.496585203,,,,,,,,,,,,,,,,,,,,,,,,,,,,,,6,011,2022-09-27_09h06.38.872,test2,2022.2.4,60.16415126872891,
0,0,0,0,40,0,40,0,1039.496585203,1039.496585203,1039.496585203,1039.496585203,1039.496585203,1039.496585203,1039.496585203,1,-1,rojo,1,['N_A'],1041.0485224099998,1041.0485224099998,1041.0485224099998,1041.0485224099998,1043.083849348,1043.083849348,1043.083849348,1043.083849348,1043.083849348,1043.083849348,1043.083849348,1043.083849348,1045.1193672220002,1045.1193672220002,1045.1193672220002,1045.1193672220002,,,,,,,,,,,,,,,,,,,,,,,,,,,,,,6,011,2022-09-27_09h06.38.872,test2,2022.2.4,60.16415126872891,
0,0,0,0,41,0,41,0,1045.1193672220002,1045.1193672220002,1045.1193672220002,1045.1193672220002,1045.1193672220002,1045.1193672220002,1045.1193672220002,1,1,rojo,1,['N_A'],1046.721005153,1046.721005153,1046.721005153,1046.721005153,1048.7567950799998,1048.7567950799998,1048.7567950799998,1048.7567950799998,1048.7567950799998,1048.7567950799998,1048.7567950799998,1048.7567950799998,1050.792573867,1050.792573867,1050.792573867,1050.792573867,,,,,,,,,,,,,,,,,,,,,,,,,,,,,,6,011,2022-09-27_09h06.38.872,test2,2022.2.4,60.16415126872891,
0,0,0,0,42,0,42,0,1050.792573867,1050.792573867,1050.792573867,1050.792573867,1050.792573867,1050.792573867,1050.792573867,1,-1,rojo,1,['N_A'],1053.912422556,1053.912422556,1053.912422556,1053.912422556,1055.9477799400001,1055.9477799400001,1055.9477799400001,1055.9477799400001,1055.9477799400001,1055.9477799400001,1055.9477799400001,1055.9477799400001,1057.9836634580001,1057.9836634580001,1057.9836634580001,1057.9836634580001,,,,,,,,,,,,,,,,,,,,,,,,,,,,,,6,011,2022-09-27_09h06.38.872,test2,2022.2.4,60.16415126872891,
0,0,0,0,43,0,43,0,1057.9836634580001,1057.9836634580001,1057.9836634580001,1057.9836634580001,1057.9836634580001,1057.9836634580001,1057.9836634580001,1,1,rojo,1,['N_A'],1060.1863624080002,1060.1863624080002,1060.1863624080002,1060.1863624080002,1062.222084939,1062.222084939,1062.222084939,1062.222084939,1062.222084939,1062.222084939,1062.222084939,1062.222084939,1064.2575590870001,1064.2575590870001,1064.2575590870001,1064.2575590870001,,,,,,,,,,,,,,,,,,,,,,,,,,,,,,6,011,2022-09-27_09h06.38.872,test2,2022.2.4,60.16415126872891,
0,0,0,0,44,0,44,0,1064.2575590870001,1064.2575590870001,1064.2575590870001,1064.2575590870001,1064.2575590870001,1064.2575590870001,1064.2575590870001,1,-1,rojo,1,['N_A'],1066.5268578690002,1066.5268578690002,1066.5268578690002,1066.5268578690002,1068.561617029,1068.561617029,1068.561617029,1068.561617029,1068.561617029,1068.561617029,1068.561617029,1068.561617029,1070.5977615279999,1070.5977615279999,1070.5977615279999,1070.5977615279999,,,,,,,,,,,,,,,,,,,,,,,,,,,,,,6,011,2022-09-27_09h06.38.872,test2,2022.2.4,60.16415126872891,
0,0,0,0,45,0,45,0,1070.5977615279999,1070.5977615279999,1070.5977615279999,1070.5977615279999,1070.5977615279999,1070.5977615279999,1070.5977615279999,-1,1,azul,0,['N_B'],1072.049245178,1072.049245178,1072.049245178,1072.049245178,1074.0680395139998,1074.0680395139998,1074.0680395139998,1074.0680395139998,1074.0680395139998,1074.0680395139998,1074.0680395139998,1074.0680395139998,1076.1040103999999,1076.1040103999999,1076.1040103999999,1076.1040103999999,,,,,,,,,,,,,,,,,,,,,,,,,,,,,,6,011,2022-09-27_09h06.38.872,test2,2022.2.4,60.16415126872891,
0,0,0,0,46,0,46,0,1076.1040103999999,1076.1040103999999,1076.1040103999999,1076.1040103999999,1076.1040103999999,1076.1040103999999,1076.1040103999999,1,1,azul,0,['N_A'],1077.888818732,1077.888818732,1077.888818732,1077.888818732,1079.924600723,1079.924600723,1079.924600723,1079.924600723,1079.924600723,1079.924600723,1079.924600723,1079.924600723,1081.9597584150001,1081.9597584150001,1081.9597584150001,1081.9597584150001,,,,,,,,,,,,,,,,,,,,,,,,,,,,,,6,011,2022-09-27_09h06.38.872,test2,2022.2.4,60.16415126872891,
0,0,0,0,47,0,47,0,1081.9597584150001,1081.9597584150001,1081.9597584150001,1081.9597584150001,1081.9597584150001,1081.9597584150001,1081.9597584150001,1,-1,rojo,1,['N_A'],1084.846755853,1084.846755853,1084.846755853,1084.846755853,1086.881973735,1086.881973735,1086.881973735,1086.881973735,1086.881973735,1086.881973735,1086.881973735,1086.881973735,1088.9181771980002,1088.9181771980002,1088.9181771980002,1088.9181771980002,,,,,,,,,,,,,,,,,,,,,,,,,,,,,,6,011,2022-09-27_09h06.38.872,test2,2022.2.4,60.16415126872891,
0,0,0,0,48,0,48,0,1088.9181771980002,1088.9181771980002,1088.9181771980002,1088.9181771980002,1088.9181771980002,1088.9181771980002,1088.9181771980002,1,-1,rojo,1,['N_A'],1090.4194681039999,1090.4194681039999,1090.4194681039999,1090.4194681039999,1092.4547374459999,1092.4547374459999,1092.4547374459999,1092.4547374459999,1092.4547374459999,1092.4547374459999,1092.4547374459999,1092.4547374459999,1094.490974492,1094.490974492,1094.490974492,1094.490974492,,,,,,,,,,,,,,,,,,,,,,,,,,,,,,6,011,2022-09-27_09h06.38.872,test2,2022.2.4,60.16415126872891,
0,0,0,0,49,0,49,0,1094.490974492,1094.490974492,1094.490974492,1094.490974492,1094.490974492,1094.490974492,1094.490974492,-1,-1,azul,1,['N_A'],1096.209718144,1096.209718144,1096.209718144,1096.209718144,1098.2452762510002,1098.2452762510002,1098.2452762510002,1098.2452762510002,1098.2452762510002,1098.2452762510002,1098.2452762510002,1098.2452762510002,1100.2805652339998,1100.2805652339998,1100.2805652339998,1100.2805652339998,,,,,,,,,,,,,,,,,,,,,,,,,,,,,,6,011,2022-09-27_09h06.38.872,test2,2022.2.4,60.16415126872891,
0,0,0,0,50,0,50,0,1100.2805652339998,1100.2805652339998,1100.2805652339998,1100.2805652339998,1100.2805652339998,1100.2805652339998,1100.2805652339998,-1,-1,azul,1,['N_A'],1102.6331336029998,1102.6331336029998,1102.6331336029998,1102.6331336029998,1104.668848144,1104.668848144,1104.668848144,1104.668848144,1104.668848144,1104.668848144,1104.668848144,1104.668848144,1106.7046545980002,1106.7046545980002,1106.7046545980002,1106.7046545980002,,,,,,,,,,,,,,,,,,,,,,,,,,,,,,6,011,2022-09-27_09h06.38.872,test2,2022.2.4,60.16415126872891,
0,0,0,0,51,0,51,0,1106.7046545980002,1106.7046545980002,1106.7046545980002,1106.7046545980002,1106.7046545980002,1106.7046545980002,1106.7046545980002,1,1,rojo,0,['N_B'],1108.655900106,1108.655900106,1108.655900106,1108.655900106,1110.6754191250002,1110.6754191250002,1110.6754191250002,1110.6754191250002,1110.6754191250002,1110.6754191250002,1110.6754191250002,1110.6754191250002,1112.710200782,1112.710200782,1112.710200782,1112.710200782,,,,,,,,,,,,,,,,,,,,,,,,,,,,,,6,011,2022-09-27_09h06.38.872,test2,2022.2.4,60.16415126872891,
0,0,0,0,52,0,52,0,1112.710200782,1112.710200782,1112.710200782,1112.710200782,1112.710200782,1112.710200782,1112.710200782,1,1,azul,1,['N_B'],1114.3625916800002,1114.3625916800002,1114.3625916800002,1114.3625916800002,1116.382014327,1116.382014327,1116.382014327,1116.382014327,1116.382014327,1116.382014327,1116.382014327,1116.382014327,1118.417716929,1118.417716929,1118.417716929,1118.417716929,,,,,,,,,,,,,,,,,,,,,,,,,,,,,,6,011,2022-09-27_09h06.38.872,test2,2022.2.4,60.16415126872891,
0,0,0,0,53,0,53,0,1118.417716929,1118.417716929,1118.417716929,1118.417716929,1118.417716929,1118.417716929,1118.417716929,1,1,azul,0,['N_A'],1120.035308724,1120.035308724,1120.035308724,1120.035308724,1122.0713596669998,1122.0713596669998,1122.0713596669998,1122.0713596669998,1122.0713596669998,1122.0713596669998,1122.0713596669998,1122.0713596669998,1124.106352791,1124.106352791,1124.106352791,1124.106352791,,,,,,,,,,,,,,,,,,,,,,,,,,,,,,6,011,2022-09-27_09h06.38.872,test2,2022.2.4,60.16415126872891,
0,0,0,0,54,0,54,0,1124.106352791,1124.106352791,1124.106352791,1124.106352791,1124.106352791,1124.106352791,1124.106352791,1,-1,rojo,1,['N_A'],1125.9419352220002,1125.9419352220002,1125.9419352220002,1125.9419352220002,1127.9777126550002,1127.9777126550002,1127.9777126550002,1127.9777126550002,1127.9777126550002,1127.9777126550002,1127.9777126550002,1127.9777126550002,1130.0127130679998,1130.0127130679998,1130.0127130679998,1130.0127130679998,,,,,,,,,,,,,,,,,,,,,,,,,,,,,,6,011,2022-09-27_09h06.38.872,test2,2022.2.4,60.16415126872891,
0,0,0,0,55,0,55,0,1130.0127130679998,1130.0127130679998,1130.0127130679998,1130.0127130679998,1130.0127130679998,1130.0127130679998,1130.0127130679998,1,1,rojo,0,['N_B'],1131.481504754,1131.481504754,1131.481504754,1131.481504754,1133.5005574000002,1133.5005574000002,1133.5005574000002,1133.5005574000002,1133.5005574000002,1133.5005574000002,1133.5005574000002,1133.5005574000002,1135.5355679479999,1135.5355679479999,1135.5355679479999,1135.5355679479999,,,,,,,,,,,,,,,,,,,,,,,,,,,,,,6,011,2022-09-27_09h06.38.872,test2,2022.2.4,60.16415126872891,
0,0,0,0,56,0,56,0,1135.5355679479999,1135.5355679479999,1135.5355679479999,1135.5355679479999,1135.5355679479999,1135.5355679479999,1135.5355679479999,1,1,azul,1,['N_B'],1137.1381810110001,1137.1381810110001,1137.1381810110001,1137.1381810110001,1139.1554976319999,1139.1554976319999,1139.1554976319999,1139.1554976319999,1139.1554976319999,1139.1554976319999,1139.1554976319999,1139.1554976319999,1141.192648362,1141.192648362,1141.192648362,1141.192648362,,,,,,,,,,,,,,,,,,,,,,,,,,,,,,6,011,2022-09-27_09h06.38.872,test2,2022.2.4,60.16415126872891,
0,0,0,0,57,0,57,0,1141.192648362,1141.192648362,1141.192648362,1141.192648362,1141.192648362,1141.192648362,1141.192648362,1,1,azul,1,['N_B'],1142.7775773570002,1142.7775773570002,1142.7775773570002,1142.7775773570002,1144.7965215529998,1144.7965215529998,1144.7965215529998,1144.7965215529998,1144.7965215529998,1144.7965215529998,1144.7965215529998,1144.7965215529998,1146.831976166,1146.831976166,1146.831976166,1146.831976166,,,,,,,,,,,,,,,,,,,,,,,,,,,,,,6,011,2022-09-27_09h06.38.872,test2,2022.2.4,60.16415126872891,
0,0,0,0,58,0,58,0,1146.831976166,1146.831976166,1146.831976166,1146.831976166,1146.831976166,1146.831976166,1146.831976166,1,1,azul,0,['N_A'],1148.332963939,1148.332963939,1148.332963939,1148.332963939,1150.36872253,1150.36872253,1150.36872253,1150.36872253,1150.36872253,1150.36872253,1150.36872253,1150.36872253,1152.4041879669999,1152.4041879669999,1152.4041879669999,1152.4041879669999,,,,,,,,,,,,,,,,,,,,,,,,,,,,,,6,011,2022-09-27_09h06.38.872,test2,2022.2.4,60.16415126872891,
0,0,0,0,59,0,59,0,1152.4041879669999,1152.4041879669999,1152.4041879669999,1152.4041879669999,1152.4041879669999,1152.4041879669999,1152.4041879669999,1,-1,rojo,1,['N_A'],1157.1592659880002,1157.1592659880002,1157.1592659880002,1157.1592659880002,1159.19542847,1159.19542847,1159.19542847,1159.19542847,1159.19542847,1159.19542847,1159.19542847,1159.19542847,1161.231299175,1161.231299175,1161.231299175,1161.231299175,,,,,,,,,,,,,,,,,,,,,,,,,,,,,,6,011,2022-09-27_09h06.38.872,test2,2022.2.4,60.16415126872891,
0,0,0,0,60,0,60,0,1161.231299175,1161.231299175,1161.231299175,1161.231299175,1161.231299175,1161.231299175,1161.231299175,-1,1,azul,0,['N_B'],1162.7493013530002,1162.7493013530002,1162.7493013530002,1162.7493013530002,1164.767895719,1164.767895719,1164.767895719,1164.767895719,1164.767895719,1164.767895719,1164.767895719,1164.767895719,1166.8034844059998,1166.8034844059998,1166.8034844059998,1166.8034844059998,,,,,,,,,,,,,,,,,,,,,,,,,,,,,,6,011,2022-09-27_09h06.38.872,test2,2022.2.4,60.16415126872891,
0,0,0,0,61,0,61,0,1166.8034844059998,1166.8034844059998,1166.8034844059998,1166.8034844059998,1166.8034844059998,1166.8034844059998,1166.8034844059998,1,1,azul,1,['N_B'],1168.522404492,1168.522404492,1168.522404492,1168.522404492,1170.5408630840002,1170.5408630840002,1170.5408630840002,1170.5408630840002,1170.5408630840002,1170.5408630840002,1170.5408630840002,1170.5408630840002,1172.5772615629999,1172.5772615629999,1172.5772615629999,1172.5772615629999,,,,,,,,,,,,,,,,,,,,,,,,,,,,,,6,011,2022-09-27_09h06.38.872,test2,2022.2.4,60.16415126872891,
0,0,0,0,62,0,62,0,1172.5772615629999,1172.5772615629999,1172.5772615629999,1172.5772615629999,1172.5772615629999,1172.5772615629999,1172.5772615629999,1,1,azul,1,['N_B'],1174.128776696,1174.128776696,1174.128776696,1174.128776696,1176.164511426,1176.164511426,1176.164511426,1176.164511426,1176.164511426,1176.164511426,1176.164511426,1176.164511426,1178.1998272239998,1178.1998272239998,1178.1998272239998,1178.1998272239998,,,,,,,,,,,,,,,,,,,,,,,,,,,,,,6,011,2022-09-27_09h06.38.872,test2,2022.2.4,60.16415126872891,
0,0,0,0,63,0,63,0,1178.1998272239998,1178.1998272239998,1178.1998272239998,1178.1998272239998,1178.1998272239998,1178.1998272239998,1178.1998272239998,1,-1,azul,1,['N_B'],1180.452513268,1180.452513268,1180.452513268,1180.452513268,1182.4874414710002,1182.4874414710002,1182.4874414710002,1182.4874414710002,1182.4874414710002,1182.4874414710002,1182.4874414710002,1182.4874414710002,1184.522983802,1184.522983802,1184.522983802,1184.522983802,,,,,,,,,,,,,,,,,,,,,,,,,,,,,,6,011,2022-09-27_09h06.38.872,test2,2022.2.4,60.16415126872891,
0,0,0,0,64,0,64,0,1184.522983802,1184.522983802,1184.522983802,1184.522983802,1184.522983802,1184.522983802,1184.522983802,1,1,azul,1,['N_B'],1186.075543288,1186.075543288,1186.075543288,1186.075543288,1188.0932554770002,1188.0932554770002,1188.0932554770002,1188.0932554770002,1188.0932554770002,1188.0932554770002,1188.0932554770002,1188.0932554770002,1190.129231896,1190.129231896,1190.129231896,1190.129231896,,,,,,,,,,,,,,,,,,,,,,,,,,,,,,6,011,2022-09-27_09h06.38.872,test2,2022.2.4,60.16415126872891,
0,0,0,0,65,0,65,0,1190.129231896,1190.129231896,1190.129231896,1190.129231896,1190.129231896,1190.129231896,1190.129231896,1,1,azul,0,['N_A'],1191.91449341,1191.91449341,1191.91449341,1191.91449341,1193.9328724490001,1193.9328724490001,1193.9328724490001,1193.9328724490001,1193.9328724490001,1193.9328724490001,1193.9328724490001,1193.9328724490001,1195.969184257,1195.969184257,1195.969184257,1195.969184257,,,,,,,,,,,,,,,,,,,,,,,,,,,,,,6,011,2022-09-27_09h06.38.872,test2,2022.2.4,60.16415126872891,
0,0,0,0,66,0,66,0,1195.969184257,1195.969184257,1195.969184257,1195.969184257,1195.969184257,1195.969184257,1195.969184257,1,1,rojo,0,['N_B'],1197.4210514790002,1197.4210514790002,1197.4210514790002,1197.4210514790002,1199.439486746,1199.439486746,1199.439486746,1199.439486746,1199.439486746,1199.439486746,1199.439486746,1199.439486746,1201.474752448,1201.474752448,1201.474752448,1201.474752448,,,,,,,,,,,,,,,,,,,,,,,,,,,,,,6,011,2022-09-27_09h06.38.872,test2,2022.2.4,60.16415126872891,
0,0,0,0,67,0,67,0,1201.474752448,1201.474752448,1201.474752448,1201.474752448,1201.474752448,1201.474752448,1201.474752448,1,1,azul,1,['N_B'],1202.993818685,1202.993818685,1202.993818685,1202.993818685,1205.029569242,1205.029569242,1205.029569242,1205.029569242,1205.029569242,1205.029569242,1205.029569242,1205.029569242,1207.0652651159999,1207.0652651159999,1207.0652651159999,1207.0652651159999,,,,,,,,,,,,,,,,,,,,,,,,,,,,,,6,011,2022-09-27_09h06.38.872,test2,2022.2.4,60.16415126872891,
0,0,0,0,68,0,68,0,1207.0652651159999,1207.0652651159999,1207.0652651159999,1207.0652651159999,1207.0652651159999,1207.0652651159999,1207.0652651159999,-1,-1,rojo,1,['N_B'],1210.852227842,1210.852227842,1210.852227842,1210.852227842,1212.8875137750001,1212.8875137750001,1212.8875137750001,1212.8875137750001,1212.8875137750001,1212.8875137750001,1212.8875137750001,1212.8875137750001,1214.9231391600001,1214.9231391600001,1214.9231391600001,1214.9231391600001,,,,,,,,,,,,,,,,,,,,,,,,,,,,,,6,011,2022-09-27_09h06.38.872,test2,2022.2.4,60.16415126872891,
0,0,0,0,69,0,69,0,1214.9231391600001,1214.9231391600001,1214.9231391600001,1214.9231391600001,1214.9231391600001,1214.9231391600001,1214.9231391600001,1,1,azul,0,['N_A'],1216.374898423,1216.374898423,1216.374898423,1216.374898423,1218.410631617,1218.410631617,1218.410631617,1218.410631617,1218.410631617,1218.410631617,1218.410631617,1218.410631617,1220.4466869110001,1220.4466869110001,1220.4466869110001,1220.4466869110001,,,,,,,,,,,,,,,,,,,,,,,,,,,,,,6,011,2022-09-27_09h06.38.872,test2,2022.2.4,60.16415126872891,
0,0,0,0,70,0,70,0,1220.4466869110001,1220.4466869110001,1220.4466869110001,1220.4466869110001,1220.4466869110001,1220.4466869110001,1220.4466869110001,1,-1,rojo,1,['N_A'],1221.9310258250002,1221.9310258250002,1221.9310258250002,1221.9310258250002,1223.96734345,1223.96734345,1223.96734345,1223.96734345,1223.96734345,1223.96734345,1223.96734345,1223.96734345,1226.0021767500002,1226.0021767500002,1226.0021767500002,1226.0021767500002,,,,,,,,,,,,,,,,,,,,,,,,,,,,,,6,011,2022-09-27_09h06.38.872,test2,2022.2.4,60.16415126872891,
0,0,0,0,71,0,71,0,1226.0021767500002,1226.0021767500002,1226.0021767500002,1226.0021767500002,1226.0021767500002,1226.0021767500002,1226.0021767500002,-1,-1,azul,1,['N_A'],1227.754036506,1227.754036506,1227.754036506,1227.754036506,1229.789717833,1229.789717833,1229.789717833,1229.789717833,1229.789717833,1229.789717833,1229.789717833,1229.789717833,1231.8254742509998,1231.8254742509998,1231.8254742509998,1231.8254742509998,,,,,,,,,,,,,,,,,,,,,,,,,,,,,,6,011,2022-09-27_09h06.38.872,test2,2022.2.4,60.16415126872891,
0,0,0,0,72,0,72,0,1231.8254742509998,1231.8254742509998,1231.8254742509998,1231.8254742509998,1231.8254742509998,1231.8254742509998,1231.8254742509998,1,-1,rojo,1,['N_A'],1235.345985639,1235.345985639,1235.345985639,1235.345985639,1237.381892677,1237.381892677,1237.381892677,1237.381892677,1237.381892677,1237.381892677,1237.381892677,1237.381892677,1239.4173720439999,1239.4173720439999,1239.4173720439999,1239.4173720439999,,,,,,,,,,,,,,,,,,,,,,,,,,,,,,6,011,2022-09-27_09h06.38.872,test2,2022.2.4,60.16415126872891,
0,0,0,0,73,0,73,0,1239.4173720439999,1239.4173720439999,1239.4173720439999,1239.4173720439999,1239.4173720439999,1239.4173720439999,1239.4173720439999,1,-1,rojo,1,['N_A'],1241.186283163,1241.186283163,1241.186283163,1241.186283163,1243.2210741160002,1243.2210741160002,1243.2210741160002,1243.2210741160002,1243.2210741160002,1243.2210741160002,1243.2210741160002,1243.2210741160002,1245.256625524,1245.256625524,1245.256625524,1245.256625524,,,,,,,,,,,,,,,,,,,,,,,,,,,,,,6,011,2022-09-27_09h06.38.872,test2,2022.2.4,60.16415126872891,
0,0,0,0,74,0,74,0,1245.256625524,1245.256625524,1245.256625524,1245.256625524,1245.256625524,1245.256625524,1245.256625524,1,-1,rojo,1,['N_A'],1247.0254057060001,1247.0254057060001,1247.0254057060001,1247.0254057060001,1249.061279773,1249.061279773,1249.061279773,1249.061279773,1249.061279773,1249.061279773,1249.061279773,1249.061279773,1251.0963565380002,1251.0963565380002,1251.0963565380002,1251.0963565380002,,,,,,,,,,,,,,,,,,,,,,,,,,,,,,6,011,2022-09-27_09h06.38.872,test2,2022.2.4,60.16415126872891,
0,0,0,0,75,0,75,0,1251.0963565380002,1251.0963565380002,1251.0963565380002,1251.0963565380002,1251.0963565380002,1251.0963565380002,1251.0963565380002,-1,-1,azul,1,['N_A'],1253.5831626620002,1253.5831626620002,1253.5831626620002,1253.5831626620002,1255.618184721,1255.618184721,1255.618184721,1255.618184721,1255.618184721,1255.618184721,1255.618184721,1255.618184721,1257.6543131899998,1257.6543131899998,1257.6543131899998,1257.6543131899998,,,,,,,,,,,,,,,,,,,,,,,,,,,,,,6,011,2022-09-27_09h06.38.872,test2,2022.2.4,60.16415126872891,
0,0,0,0,76,0,76,0,1257.6543131899998,1257.6543131899998,1257.6543131899998,1257.6543131899998,1257.6543131899998,1257.6543131899998,1257.6543131899998,-1,1,azul,0,['N_B'],1259.239425796,1259.239425796,1259.239425796,1259.239425796,1261.256941186,1261.256941186,1261.256941186,1261.256941186,1261.256941186,1261.256941186,1261.256941186,1261.256941186,1263.2936682529999,1263.2936682529999,1263.2936682529999,1263.2936682529999,,,,,,,,,,,,,,,,,,,,,,,,,,,,,,6,011,2022-09-27_09h06.38.872,test2,2022.2.4,60.16415126872891,
0,0,0,0,77,0,77,0,1263.2936682529999,1263.2936682529999,1263.2936682529999,1263.2936682529999,1263.2936682529999,1263.2936682529999,1263.2936682529999,-1,1,rojo,1,['N_B'],1264.678658535,1264.678658535,1264.678658535,1264.678658535,1266.697968852,1266.697968852,1266.697968852,1266.697968852,1266.697968852,1266.697968852,1266.697968852,1266.697968852,1268.73268749,1268.73268749,1268.73268749,1268.73268749,,,,,,,,,,,,,,,,,,,,,,,,,,,,,,6,011,2022-09-27_09h06.38.872,test2,2022.2.4,60.16415126872891,
0,0,0,0,78,0,78,0,1268.73268749,1268.73268749,1268.73268749,1268.73268749,1268.73268749,1268.73268749,1268.73268749,-1,1,rojo,1,['N_B'],1270.23465907,1270.23465907,1270.23465907,1270.23465907,1272.253443086,1272.253443086,1272.253443086,1272.253443086,1272.253443086,1272.253443086,1272.253443086,1272.253443086,1274.288541111,1274.288541111,1274.288541111,1274.288541111,,,,,,,,,,,,,,,,,,,,,,,,,,,,,,6,011,2022-09-27_09h06.38.872,test2,2022.2.4,60.16415126872891,
0,0,0,0,79,0,79,0,1274.288541111,1274.288541111,1274.288541111,1274.288541111,1274.288541111,1274.288541111,1274.288541111,1,1,azul,1,['N_B'],1275.957088474,1275.957088474,1275.957088474,1275.957088474,1277.976982691,1277.976982691,1277.976982691,1277.976982691,1277.976982691,1277.976982691,1277.976982691,1277.976982691,1280.0124808669998,1280.0124808669998,1280.0124808669998,1280.0124808669998,,,,,,,,,,,,,,,,,,,,,,,,,,,,,,6,011,2022-09-27_09h06.38.872,test2,2022.2.4,60.16415126872891,
0,0,0,0,80,0,80,0,1280.0124808669998,1280.0124808669998,1280.0124808669998,1280.0124808669998,1280.0124808669998,1280.0124808669998,1280.0124808669998,1,1,azul,1,['N_B'],1281.530559758,1281.530559758,1281.530559758,1281.530559758,1283.548490403,1283.548490403,1283.548490403,1283.548490403,1283.548490403,1283.548490403,1283.548490403,1283.548490403,1285.5853284529999,1285.5853284529999,1285.5853284529999,1285.5853284529999,,,,,,,,,,,,,,,,,,,,,,,,,,,,,,6,011,2022-09-27_09h06.38.872,test2,2022.2.4,60.16415126872891,
0,0,0,0,81,0,81,0,1285.5853284529999,1285.5853284529999,1285.5853284529999,1285.5853284529999,1285.5853284529999,1285.5853284529999,1285.5853284529999,1,1,azul,1,['N_B'],1287.303107352,1287.303107352,1287.303107352,1287.303107352,1289.322614016,1289.322614016,1289.322614016,1289.322614016,1289.322614016,1289.322614016,1289.322614016,1289.322614016,1291.358326899,1291.358326899,1291.358326899,1291.358326899,,,,,,,,,,,,,,,,,,,,,,,,,,,,,,6,011,2022-09-27_09h06.38.872,test2,2022.2.4,60.16415126872891,
0,0,0,0,82,0,82,0,1291.358326899,1291.358326899,1291.358326899,1291.358326899,1291.358326899,1291.358326899,1291.358326899,-1,1,rojo,0,['N_A'],1293.093287793,1293.093287793,1293.093287793,1293.093287793,1295.111337932,1295.111337932,1295.111337932,1295.111337932,1295.111337932,1295.111337932,1295.111337932,1295.111337932,1297.147159134,1297.147159134,1297.147159134,1297.147159134,,,,,,,,,,,,,,,,,,,,,,,,,,,,,,6,011,2022-09-27_09h06.38.872,test2,2022.2.4,60.16415126872891,
0,0,0,0,83,0,83,0,1297.147159134,1297.147159134,1297.147159134,1297.147159134,1297.147159134,1297.147159134,1297.147159134,1,1,rojo,0,['N_B'],1299.132863833,1299.132863833,1299.132863833,1299.132863833,1301.1517947000002,1301.1517947000002,1301.1517947000002,1301.1517947000002,1301.1517947000002,1301.1517947000002,1301.1517947000002,1301.1517947000002,1303.1873754910002,1303.1873754910002,1303.1873754910002,1303.1873754910002,,,,,,,,,,,,,,,,,,,,,,,,,,,,,,6,011,2022-09-27_09h06.38.872,test2,2022.2.4,60.16415126872891,
0,0,0,0,84,0,84,0,1303.1873754910002,1303.1873754910002,1303.1873754910002,1303.1873754910002,1303.1873754910002,1303.1873754910002,1303.1873754910002,1,1,azul,1,['N_B'],1304.6893626770002,1304.6893626770002,1304.6893626770002,1304.6893626770002,1306.7082401950001,1306.7082401950001,1306.7082401950001,1306.7082401950001,1306.7082401950001,1306.7082401950001,1306.7082401950001,1306.7082401950001,1308.744139981,1308.744139981,1308.744139981,1308.744139981,,,,,,,,,,,,,,,,,,,,,,,,,,,,,,6,011,2022-09-27_09h06.38.872,test2,2022.2.4,60.16415126872891,
0,0,0,0,85,0,85,0,1308.744139981,1308.744139981,1308.744139981,1308.744139981,1308.744139981,1308.744139981,1308.744139981,1,1,azul,1,['N_B'],1310.29531542,1310.29531542,1310.29531542,1310.29531542,1312.3137077729998,1312.3137077729998,1312.3137077729998,1312.3137077729998,1312.3137077729998,1312.3137077729998,1312.3137077729998,1312.3137077729998,1314.349523762,1314.349523762,1314.349523762,1314.349523762,,,,,,,,,,,,,,,,,,,,,,,,,,,,,,6,011,2022-09-27_09h06.38.872,test2,2022.2.4,60.16415126872891,
0,0,0,0,86,0,86,0,1314.349523762,1314.349523762,1314.349523762,1314.349523762,1314.349523762,1314.349523762,1314.349523762,1,1,azul,1,['N_B'],1316.0178277290001,1316.0178277290001,1316.0178277290001,1316.0178277290001,1318.0538600579998,1318.0538600579998,1318.0538600579998,1318.0538600579998,1318.0538600579998,1318.0538600579998,1318.0538600579998,1318.0538600579998,1320.0890851190002,1320.0890851190002,1320.0890851190002,1320.0890851190002,,,,,,,,,,,,,,,,,,,,,,,,,,,,,,6,011,2022-09-27_09h06.38.872,test2,2022.2.4,60.16415126872891,
0,0,0,0,87,0,87,0,1320.0890851190002,1320.0890851190002,1320.0890851190002,1320.0890851190002,1320.0890851190002,1320.0890851190002,1320.0890851190002,1,-1,azul,1,['N_B'],1322.0588196580002,1322.0588196580002,1322.0588196580002,1322.0588196580002,1324.0941674,1324.0941674,1324.0941674,1324.0941674,1324.0941674,1324.0941674,1324.0941674,1324.0941674,1326.1293232930002,1326.1293232930002,1326.1293232930002,1326.1293232930002,,,,,,,,,,,,,,,,,,,,,,,,,,,,,,6,011,2022-09-27_09h06.38.872,test2,2022.2.4,60.16415126872891,
0,0,0,0,88,0,88,0,1326.1293232930002,1326.1293232930002,1326.1293232930002,1326.1293232930002,1326.1293232930002,1326.1293232930002,1326.1293232930002,1,1,azul,1,['N_B'],1327.580835272,1327.580835272,1327.580835272,1327.580835272,1329.5996198379999,1329.5996198379999,1329.5996198379999,1329.5996198379999,1329.5996198379999,1329.5996198379999,1329.5996198379999,1329.5996198379999,1331.6351925610002,1331.6351925610002,1331.6351925610002,1331.6351925610002,,,,,,,,,,,,,,,,,,,,,,,,,,,,,,6,011,2022-09-27_09h06.38.872,test2,2022.2.4,60.16415126872891,
0,0,0,0,89,0,89,0,1331.6351925610002,1331.6351925610002,1331.6351925610002,1331.6351925610002,1331.6351925610002,1331.6351925610002,1331.6351925610002,1,1,azul,1,['N_B'],1333.2710357269998,1333.2710357269998,1333.2710357269998,1333.2710357269998,1335.2902803309998,1335.2902803309998,1335.2902803309998,1335.2902803309998,1335.2902803309998,1335.2902803309998,1335.2902803309998,1335.2902803309998,1337.325037218,1337.325037218,1337.325037218,1337.325037218,,,,,,,,,,,,,,,,,,,,,,,,,,,,,,6,011,2022-09-27_09h06.38.872,test2,2022.2.4,60.16415126872891,
0,0,0,0,90,0,90,0,1337.325037218,1337.325037218,1337.325037218,1337.325037218,1337.325037218,1337.325037218,1337.325037218,1,1,azul,0,['N_A'],1339.460365765,1339.460365765,1339.460365765,1339.460365765,1341.480501816,1341.480501816,1341.480501816,1341.480501816,1341.480501816,1341.480501816,1341.480501816,1341.480501816,1343.515387035,1343.515387035,1343.515387035,1343.515387035,,,,,,,,,,,,,,,,,,,,,,,,,,,,,,6,011,2022-09-27_09h06.38.872,test2,2022.2.4,60.16415126872891,
0,0,0,0,91,0,91,0,1343.515387035,1343.515387035,1343.515387035,1343.515387035,1343.515387035,1343.515387035,1343.515387035,1,1,rojo,0,['N_B'],1345.101006192,1345.101006192,1345.101006192,1345.101006192,1347.1357099380002,1347.1357099380002,1347.1357099380002,1347.1357099380002,1347.1357099380002,1347.1357099380002,1347.1357099380002,1347.1357099380002,1349.171198092,1349.171198092,1349.171198092,1349.171198092,,,,,,,,,,,,,,,,,,,,,,,,,,,,,,6,011,2022-09-27_09h06.38.872,test2,2022.2.4,60.16415126872891,
0,0,0,0,92,0,92,0,1349.171198092,1349.171198092,1349.171198092,1349.171198092,1349.171198092,1349.171198092,1349.171198092,-1,-1,rojo,1,['N_B'],1351.390356417,1351.390356417,1351.390356417,1351.390356417,1353.4262250309998,1353.4262250309998,1353.4262250309998,1353.4262250309998,1353.4262250309998,1353.4262250309998,1353.4262250309998,1353.4262250309998,1355.461545822,1355.461545822,1355.461545822,1355.461545822,,,,,,,,,,,,,,,,,,,,,,,,,,,,,,6,011,2022-09-27_09h06.38.872,test2,2022.2.4,60.16415126872891,
0,0,0,0,93,0,93,0,1355.461545822,1355.461545822,1355.461545822,1355.461545822,1355.461545822,1355.461545822,1355.461545822,1,1,azul,0,['N_A'],1357.1136314780001,1357.1136314780001,1357.1136314780001,1357.1136314780001,1359.149655619,1359.149655619,1359.149655619,1359.149655619,1359.149655619,1359.149655619,1359.149655619,1359.149655619,1361.1845741930001,1361.1845741930001,1361.1845741930001,1361.1845741930001,,,,,,,,,,,,,,,,,,,,,,,,,,,,,,6,011,2022-09-27_09h06.38.872,test2,2022.2.4,60.16415126872891,
0,0,0,0,94,0,94,0,1361.1845741930001,1361.1845741930001,1361.1845741930001,1361.1845741930001,1361.1845741930001,1361.1845741930001,1361.1845741930001,1,-1,rojo,1,['N_A'],1362.8035185580002,1362.8035185580002,1362.8035185580002,1362.8035185580002,1364.8388856820002,1364.8388856820002,1364.8388856820002,1364.8388856820002,1364.8388856820002,1364.8388856820002,1364.8388856820002,1364.8388856820002,1366.8747453669998,1366.8747453669998,1366.8747453669998,1366.8747453669998,,,,,,,,,,,,,,,,,,,,,,,,,,,,,,6,011,2022-09-27_09h06.38.872,test2,2022.2.4,60.16415126872891,
0,0,0,0,95,0,95,0,1366.8747453669998,1366.8747453669998,1366.8747453669998,1366.8747453669998,1366.8747453669998,1366.8747453669998,1366.8747453669998,-1,1,azul,0,['N_B'],1368.8433519300002,1368.8433519300002,1368.8433519300002,1368.8433519300002,1370.861811547,1370.861811547,1370.861811547,1370.861811547,1370.861811547,1370.861811547,1370.861811547,1370.861811547,1372.897689551,1372.897689551,1372.897689551,1372.897689551,,,,,,,,,,,,,,,,,,,,,,,,,,,,,,6,011,2022-09-27_09h06.38.872,test2,2022.2.4,60.16415126872891,
0,0,0,0,96,0,96,0,1372.897689551,1372.897689551,1372.897689551,1372.897689551,1372.897689551,1372.897689551,1372.897689551,1,1,azul,0,['N_A'],1375.016832707,1375.016832707,1375.016832707,1375.016832707,1377.0359217189998,1377.0359217189998,1377.0359217189998,1377.0359217189998,1377.0359217189998,1377.0359217189998,1377.0359217189998,1377.0359217189998,1379.071320047,1379.071320047,1379.071320047,1379.071320047,,,,,,,,,,,,,,,,,,,,,,,,,,,,,,6,011,2022-09-27_09h06.38.872,test2,2022.2.4,60.16415126872891,
0,0,0,0,97,0,97,0,1379.071320047,1379.071320047,1379.071320047,1379.071320047,1379.071320047,1379.071320047,1379.071320047,-1,1,azul,0,['N_B'],1380.5897093570002,1380.5897093570002,1380.5897093570002,1380.5897093570002,1382.6256484680002,1382.6256484680002,1382.6256484680002,1382.6256484680002,1382.6256484680002,1382.6256484680002,1382.6256484680002,1382.6256484680002,1384.6605140699999,1384.6605140699999,1384.6605140699999,1384.6605140699999,,,,,,,,,,,,,,,,,,,,,,,,,,,,,,6,011,2022-09-27_09h06.38.872,test2,2022.2.4,60.16415126872891,
0,0,0,0,98,0,98,0,1384.6605140699999,1384.6605140699999,1384.6605140699999,1384.6605140699999,1384.6605140699999,1384.6605140699999,1384.6605140699999,-1,-1,rojo,1,['N_B'],1386.362341294,1386.362341294,1386.362341294,1386.362341294,1388.39839752,1388.39839752,1388.39839752,1388.39839752,1388.39839752,1388.39839752,1388.39839752,1388.39839752,1390.4341709639998,1390.4341709639998,1390.4341709639998,1390.4341709639998,,,,,,,,,,,,,,,,,,,,,,,,,,,,,,6,011,2022-09-27_09h06.38.872,test2,2022.2.4,60.16415126872891,
0,0,0,0,99,0,99,0,1390.4341709639998,1390.4341709639998,1390.4341709639998,1390.4341709639998,1390.4341709639998,1390.4341709639998,1390.4341709639998,-1,-1,rojo,1,['N_B'],1396.9748981920002,1396.9748981920002,1396.9748981920002,1396.9748981920002,1399.009886489,1399.009886489,1399.009886489,1399.009886489,1399.009886489,1399.009886489,1399.009886489,1399.009886489,1401.04607421,1401.04607421,1401.04607421,1401.04607421,,,,,,,,,,,,,,,,,,,,,,,,,,,,,,6,011,2022-09-27_09h06.38.872,test2,2022.2.4,60.16415126872891,
0,0,0,0,100,0,100,0,1401.04607421,1401.04607421,1401.04607421,1401.04607421,1401.04607421,1401.04607421,1401.04607421,1,-1,azul,1,['N_B'],1403.4980416140002,1403.4980416140002,1403.4980416140002,1403.4980416140002,1405.5345553789998,1405.5345553789998,1405.5345553789998,1405.5345553789998,1405.5345553789998,1405.5345553789998,1405.5345553789998,1405.5345553789998,1407.5690725099998,1407.5690725099998,1407.5690725099998,1407.5690725099998,,,,,,,,,,,,,,,,,,,,,,,,,,,,,,6,011,2022-09-27_09h06.38.872,test2,2022.2.4,60.16415126872891,
0,0,0,0,101,0,101,0,1407.5690725099998,1407.5690725099998,1407.5690725099998,1407.5690725099998,1407.5690725099998,1407.5690725099998,1407.5690725099998,1,1,azul,0,['N_A'],1409.1714390430002,1409.1714390430002,1409.1714390430002,1409.1714390430002,1411.2065155999999,1411.2065155999999,1411.2065155999999,1411.2065155999999,1411.2065155999999,1411.2065155999999,1411.2065155999999,1411.2065155999999,1413.2425259360002,1413.2425259360002,1413.2425259360002,1413.2425259360002,,,,,,,,,,,,,,,,,,,,,,,,,,,,,,6,011,2022-09-27_09h06.38.872,test2,2022.2.4,60.16415126872891,
0,0,0,0,102,0,102,0,1413.2425259360002,1413.2425259360002,1413.2425259360002,1413.2425259360002,1413.2425259360002,1413.2425259360002,1413.2425259360002,1,-1,rojo,0,['N_B'],1415.728495493,1415.728495493,1415.728495493,1415.728495493,1417.7638577389998,1417.7638577389998,1417.7638577389998,1417.7638577389998,1417.7638577389998,1417.7638577389998,1417.7638577389998,1417.7638577389998,1419.79925791,1419.79925791,1419.79925791,1419.79925791,,,,,,,,,,,,,,,,,,,,,,,,,,,,,,6,011,2022-09-27_09h06.38.872,test2,2022.2.4,60.16415126872891,
0,0,0,0,103,0,103,0,1419.79925791,1419.79925791,1419.79925791,1419.79925791,1419.79925791,1419.79925791,1419.79925791,1,1,azul,1,['N_B'],1421.5019058960002,1421.5019058960002,1421.5019058960002,1421.5019058960002,1423.5372410539999,1423.5372410539999,1423.5372410539999,1423.5372410539999,1423.5372410539999,1423.5372410539999,1423.5372410539999,1423.5372410539999,1425.5730396990002,1425.5730396990002,1425.5730396990002,1425.5730396990002,,,,,,,,,,,,,,,,,,,,,,,,,,,,,,6,011,2022-09-27_09h06.38.872,test2,2022.2.4,60.16415126872891,
0,0,0,0,104,0,104,0,1425.5730396990002,1425.5730396990002,1425.5730396990002,1425.5730396990002,1425.5730396990002,1425.5730396990002,1425.5730396990002,1,-1,azul,1,['N_B'],1427.107402619,1427.107402619,1427.107402619,1427.107402619,1429.143322765,1429.143322765,1429.143322765,1429.143322765,1429.143322765,1429.143322765,1429.143322765,1429.143322765,1431.178659744,1431.178659744,1431.178659744,1431.178659744,,,,,,,,,,,,,,,,,,,,,,,,,,,,,,6,011,2022-09-27_09h06.38.872,test2,2022.2.4,60.16415126872891,
0,0,0,0,105,0,105,0,1431.178659744,1431.178659744,1431.178659744,1431.178659744,1431.178659744,1431.178659744,1431.178659744,1,1,azul,1,['N_B'],1432.613869635,1432.613869635,1432.613869635,1432.613869635,1434.6492267439999,1434.6492267439999,1434.6492267439999,1434.6492267439999,1434.6492267439999,1434.6492267439999,1434.6492267439999,1434.6492267439999,1436.6844606180002,1436.6844606180002,1436.6844606180002,1436.6844606180002,,,,,,,,,,,,,,,,,,,,,,,,,,,,,,6,011,2022-09-27_09h06.38.872,test2,2022.2.4,60.16415126872891,
0,0,0,0,106,0,106,0,1436.6844606180002,1436.6844606180002,1436.6844606180002,1436.6844606180002,1436.6844606180002,1436.6844606180002,1436.6844606180002,1,-1,azul,1,['N_B'],1438.2696713579999,1438.2696713579999,1438.2696713579999,1438.2696713579999,1440.305442449,1440.305442449,1440.305442449,1440.305442449,1440.305442449,1440.305442449,1440.305442449,1440.305442449,1442.3414942099998,1442.3414942099998,1442.3414942099998,1442.3414942099998,,,,,,,,,,,,,,,,,,,,,,,,,,,,,,6,011,2022-09-27_09h06.38.872,test2,2022.2.4,60.16415126872891,
0,0,0,0,107,0,107,0,1442.3414942099998,1442.3414942099998,1442.3414942099998,1442.3414942099998,1442.3414942099998,1442.3414942099998,1442.3414942099998,1,1,azul,1,['N_B'],1443.8590674490001,1443.8590674490001,1443.8590674490001,1443.8590674490001,1445.894593345,1445.894593345,1445.894593345,1445.894593345,1445.894593345,1445.894593345,1445.894593345,1445.894593345,1447.9310289700002,1447.9310289700002,1447.9310289700002,1447.9310289700002,,,,,,,,,,,,,,,,,,,,,,,,,,,,,,6,011,2022-09-27_09h06.38.872,test2,2022.2.4,60.16415126872891,
0,0,0,0,108,0,108,0,1447.9310289700002,1447.9310289700002,1447.9310289700002,1447.9310289700002,1447.9310289700002,1447.9310289700002,1447.9310289700002,-1,-1,rojo,1,['N_B'],1449.2486867940002,1449.2486867940002,1449.2486867940002,1449.2486867940002,1451.284846829,1451.284846829,1451.284846829,1451.284846829,1451.284846829,1451.284846829,1451.284846829,1451.284846829,1453.3200782039999,1453.3200782039999,1453.3200782039999,1453.3200782039999,,,,,,,,,,,,,,,,,,,,,,,,,,,,,,6,011,2022-09-27_09h06.38.872,test2,2022.2.4,60.16415126872891,
0,0,0,0,109,0,109,0,1453.3200782039999,1453.3200782039999,1453.3200782039999,1453.3200782039999,1453.3200782039999,1453.3200782039999,1453.3200782039999,-1,1,rojo,1,['N_B'],1454.754484433,1454.754484433,1454.754484433,1454.754484433,1456.7734430360001,1456.7734430360001,1456.7734430360001,1456.7734430360001,1456.7734430360001,1456.7734430360001,1456.7734430360001,1456.7734430360001,1458.808601969,1458.808601969,1458.808601969,1458.808601969,,,,,,,,,,,,,,,,,,,,,,,,,,,,,,6,011,2022-09-27_09h06.38.872,test2,2022.2.4,60.16415126872891,
0,0,0,0,110,0,110,0,1458.808601969,1458.808601969,1458.808601969,1458.808601969,1458.808601969,1458.808601969,1458.808601969,1,1,azul,0,['N_A'],1460.4112434140002,1460.4112434140002,1460.4112434140002,1460.4112434140002,1462.4299220510002,1462.4299220510002,1462.4299220510002,1462.4299220510002,1462.4299220510002,1462.4299220510002,1462.4299220510002,1462.4299220510002,1464.465355149,1464.465355149,1464.465355149,1464.465355149,,,,,,,,,,,,,,,,,,,,,,,,,,,,,,6,011,2022-09-27_09h06.38.872,test2,2022.2.4,60.16415126872891,
0,0,0,0,111,0,111,0,1464.465355149,1464.465355149,1464.465355149,1464.465355149,1464.465355149,1464.465355149,1464.465355149,-1,1,azul,0,['N_B'],1466.1170181769999,1466.1170181769999,1466.1170181769999,1466.1170181769999,1468.1351364789998,1468.1351364789998,1468.1351364789998,1468.1351364789998,1468.1351364789998,1468.1351364789998,1468.1351364789998,1468.1351364789998,1470.171873161,1470.171873161,1470.171873161,1470.171873161,,,,,,,,,,,,,,,,,,,,,,,,,,,,,,6,011,2022-09-27_09h06.38.872,test2,2022.2.4,60.16415126872891,
0,0,0,0,112,0,112,0,1470.171873161,1470.171873161,1470.171873161,1470.171873161,1470.171873161,1470.171873161,1470.171873161,1,1,azul,1,['N_B'],1471.606999534,1471.606999534,1471.606999534,1471.606999534,1473.625272401,1473.625272401,1473.625272401,1473.625272401,1473.625272401,1473.625272401,1473.625272401,1473.625272401,1475.661103755,1475.661103755,1475.661103755,1475.661103755,,,,,,,,,,,,,,,,,,,,,,,,,,,,,,6,011,2022-09-27_09h06.38.872,test2,2022.2.4,60.16415126872891,
0,0,0,0,113,0,113,0,1475.661103755,1475.661103755,1475.661103755,1475.661103755,1475.661103755,1475.661103755,1475.661103755,1,1,azul,1,['N_B'],1477.1133578610002,1477.1133578610002,1477.1133578610002,1477.1133578610002,1479.131653757,1479.131653757,1479.131653757,1479.131653757,1479.131653757,1479.131653757,1479.131653757,1479.131653757,1481.167774996,1481.167774996,1481.167774996,1481.167774996,,,,,,,,,,,,,,,,,,,,,,,,,,,,,,6,011,2022-09-27_09h06.38.872,test2,2022.2.4,60.16415126872891,
0,0,0,0,114,0,114,0,1481.167774996,1481.167774996,1481.167774996,1481.167774996,1481.167774996,1481.167774996,1481.167774996,1,1,azul,0,['N_A'],1482.552002215,1482.552002215,1482.552002215,1482.552002215,1484.587968243,1484.587968243,1484.587968243,1484.587968243,1484.587968243,1484.587968243,1484.587968243,1484.587968243,1486.623300785,1486.623300785,1486.623300785,1486.623300785,,,,,,,,,,,,,,,,,,,,,,,,,,,,,,6,011,2022-09-27_09h06.38.872,test2,2022.2.4,60.16415126872891,
0,0,0,0,115,0,115,0,1486.623300785,1486.623300785,1486.623300785,1486.623300785,1486.623300785,1486.623300785,1486.623300785,1,-1,rojo,1,['N_A'],1488.341923503,1488.341923503,1488.341923503,1488.341923503,1490.3772634759998,1490.3772634759998,1490.3772634759998,1490.3772634759998,1490.3772634759998,1490.3772634759998,1490.3772634759998,1490.3772634759998,1492.413129255,1492.413129255,1492.413129255,1492.413129255,,,,,,,,,,,,,,,,,,,,,,,,,,,,,,6,011,2022-09-27_09h06.38.872,test2,2022.2.4,60.16415126872891,
0,0,0,0,116,0,116,0,1492.413129255,1492.413129255,1492.413129255,1492.413129255,1492.413129255,1492.413129255,1492.413129255,1,-1,rojo,1,['N_A'],1494.0311715480002,1494.0311715480002,1494.0311715480002,1494.0311715480002,1496.067367656,1496.067367656,1496.067367656,1496.067367656,1496.067367656,1496.067367656,1496.067367656,1496.067367656,1498.1028055259999,1498.1028055259999,1498.1028055259999,1498.1028055259999,,,,,,,,,,,,,,,,,,,,,,,,,,,,,,6,011,2022-09-27_09h06.38.872,test2,2022.2.4,60.16415126872891,
0,0,0,0,117,0,117,0,1498.1028055259999,1498.1028055259999,1498.1028055259999,1498.1028055259999,1498.1028055259999,1498.1028055259999,1498.1028055259999,1,-1,rojo,1,['N_A'],1499.6707275869999,1499.6707275869999,1499.6707275869999,1499.6707275869999,1501.70593331,1501.70593331,1501.70593331,1501.70593331,1501.70593331,1501.70593331,1501.70593331,1501.70593331,1503.7416123900002,1503.7416123900002,1503.7416123900002,1503.7416123900002,,,,,,,,,,,,,,,,,,,,,,,,,,,,,,6,011,2022-09-27_09h06.38.872,test2,2022.2.4,60.16415126872891,
0,0,0,0,118,0,118,0,1503.7416123900002,1503.7416123900002,1503.7416123900002,1503.7416123900002,1503.7416123900002,1503.7416123900002,1503.7416123900002,1,-1,rojo,1,['N_A'],1505.193870342,1505.193870342,1505.193870342,1505.193870342,1507.2295478370002,1507.2295478370002,1507.2295478370002,1507.2295478370002,1507.2295478370002,1507.2295478370002,1507.2295478370002,1507.2295478370002,1509.2653225630002,1509.2653225630002,1509.2653225630002,1509.2653225630002,,,,,,,,,,,,,,,,,,,,,,,,,,,,,,6,011,2022-09-27_09h06.38.872,test2,2022.2.4,60.16415126872891,
0,0,0,0,119,0,119,0,1509.2653225630002,1509.2653225630002,1509.2653225630002,1509.2653225630002,1509.2653225630002,1509.2653225630002,1509.2653225630002,-1,1,azul,0,['N_B'],1511.1009048310002,1511.1009048310002,1511.1009048310002,1511.1009048310002,1513.1358607460002,1513.1358607460002,1513.1358607460002,1513.1358607460002,1513.1358607460002,1513.1358607460002,1513.1358607460002,1513.1358607460002,1515.171808701,1515.171808701,1515.171808701,1515.171808701,,,,,,,,,,,,,,,,,,,,,,,,,,,,,,6,011,2022-09-27_09h06.38.872,test2,2022.2.4,60.16415126872891,
0,0,0,0,120,0,120,0,1515.171808701,1515.171808701,1515.171808701,1515.171808701,1515.171808701,1515.171808701,1515.171808701,-1,-1,rojo,1,['N_B'],1516.589456219,1516.589456219,1516.589456219,1516.589456219,1518.625678541,1518.625678541,1518.625678541,1518.625678541,1518.625678541,1518.625678541,1518.625678541,1518.625678541,1520.6610683029999,1520.6610683029999,1520.6610683029999,1520.6610683029999,,,,,,,,,,,,,,,,,,,,,,,,,,,,,,6,011,2022-09-27_09h06.38.872,test2,2022.2.4,60.16415126872891,
0,0,0,0,121,0,121,0,1520.6610683029999,1520.6610683029999,1520.6610683029999,1520.6610683029999,1520.6610683029999,1520.6610683029999,1520.6610683029999,1,1,azul,0,['N_A'],1522.713609845,1522.713609845,1522.713609845,1522.713609845,1524.732040247,1524.732040247,1524.732040247,1524.732040247,1524.732040247,1524.732040247,1524.732040247,1524.732040247,1526.767493767,1526.767493767,1526.767493767,1526.767493767,,,,,,,,,,,,,,,,,,,,,,,,,,,,,,6,011,2022-09-27_09h06.38.872,test2,2022.2.4,60.16415126872891,
0,0,0,0,122,0,122,0,1526.767493767,1526.767493767,1526.767493767,1526.767493767,1526.767493767,1526.767493767,1526.767493767,-1,1,azul,1,['N_A'],1528.252225053,1528.252225053,1528.252225053,1528.252225053,1530.271124256,1530.271124256,1530.271124256,1530.271124256,1530.271124256,1530.271124256,1530.271124256,1530.271124256,1532.3075034960002,1532.3075034960002,1532.3075034960002,1532.3075034960002,,,,,,,,,,,,,,,,,,,,,,,,,,,,,,6,011,2022-09-27_09h06.38.872,test2,2022.2.4,60.16415126872891,
0,0,0,0,123,0,123,0,1532.3075034960002,1532.3075034960002,1532.3075034960002,1532.3075034960002,1532.3075034960002,1532.3075034960002,1532.3075034960002,1,1,rojo,0,['N_B'],1533.658290244,1533.658290244,1533.658290244,1533.658290244,1535.6782423949999,1535.6782423949999,1535.6782423949999,1535.6782423949999,1535.6782423949999,1535.6782423949999,1535.6782423949999,1535.6782423949999,1537.713787451,1537.713787451,1537.713787451,1537.713787451,,,,,,,,,,,,,,,,,,,,,,,,,,,,,,6,011,2022-09-27_09h06.38.872,test2,2022.2.4,60.16415126872891,
0,0,0,0,124,0,124,0,1537.713787451,1537.713787451,1537.713787451,1537.713787451,1537.713787451,1537.713787451,1537.713787451,1,1,azul,0,['N_A'],1539.164887025,1539.164887025,1539.164887025,1539.164887025,1541.1828740770002,1541.1828740770002,1541.1828740770002,1541.1828740770002,1541.1828740770002,1541.1828740770002,1541.1828740770002,1541.1828740770002,1543.218519951,1543.218519951,1543.218519951,1543.218519951,,,,,,,,,,,,,,,,,,,,,,,,,,,,,,6,011,2022-09-27_09h06.38.872,test2,2022.2.4,60.16415126872891,
0,0,0,0,125,0,125,0,1543.218519951,1543.218519951,1543.218519951,1543.218519951,1543.218519951,1543.218519951,1543.218519951,1,1,rojo,1,['N_A'],1544.637527366,1544.637527366,1544.637527366,1544.637527366,1546.656774872,1546.656774872,1546.656774872,1546.656774872,1546.656774872,1546.656774872,1546.656774872,1546.656774872,1548.691804469,1548.691804469,1548.691804469,1548.691804469,,,,,,,,,,,,,,,,,,,,,,,,,,,,,,6,011,2022-09-27_09h06.38.872,test2,2022.2.4,60.16415126872891,
0,0,0,0,126,0,126,0,1548.691804469,1548.691804469,1548.691804469,1548.691804469,1548.691804469,1548.691804469,1548.691804469,-1,1,azul,0,['N_B'],1550.126321276,1550.126321276,1550.126321276,1550.126321276,1552.1623479139998,1552.1623479139998,1552.1623479139998,1552.1623479139998,1552.1623479139998,1552.1623479139998,1552.1623479139998,1552.1623479139998,1554.1976582080001,1554.1976582080001,1554.1976582080001,1554.1976582080001,,,,,,,,,,,,,,,,,,,,,,,,,,,,,,6,011,2022-09-27_09h06.38.872,test2,2022.2.4,60.16415126872891,
0,0,0,0,127,0,127,0,1554.1976582080001,1554.1976582080001,1554.1976582080001,1554.1976582080001,1554.1976582080001,1554.1976582080001,1554.1976582080001,-1,-1,rojo,1,['N_B'],1555.53300665,1555.53300665,1555.53300665,1555.53300665,1557.568910422,1557.568910422,1557.568910422,1557.568910422,1557.568910422,1557.568910422,1557.568910422,1557.568910422,1559.6033888890001,1559.6033888890001,1559.6033888890001,1559.6033888890001,,,,,,,,,,,,,,,,,,,,,,,,,,,,,,6,011,2022-09-27_09h06.38.872,test2,2022.2.4,60.16415126872891,
0,0,0,0,128,0,128,0,1559.6033888890001,1559.6033888890001,1559.6033888890001,1559.6033888890001,1559.6033888890001,1559.6033888890001,1559.6033888890001,1,1,azul,1,['N_B'],1561.0883186810001,1561.0883186810001,1561.0883186810001,1561.0883186810001,1563.107629317,1563.107629317,1563.107629317,1563.107629317,1563.107629317,1563.107629317,1563.107629317,1563.107629317,1565.143000514,1565.143000514,1565.143000514,1565.143000514,,,,,,,,,,,,,,,,,,,,,,,,,,,,,,6,011,2022-09-27_09h06.38.872,test2,2022.2.4,60.16415126872891,
0,0,0,0,129,0,129,0,1565.143000514,1565.143000514,1565.143000514,1565.143000514,1565.143000514,1565.143000514,1565.143000514,1,1,azul,1,['N_B'],1567.729306103,1567.729306103,1567.729306103,1567.729306103,1569.7478176170002,1569.7478176170002,1569.7478176170002,1569.7478176170002,1569.7478176170002,1569.7478176170002,1569.7478176170002,1569.7478176170002,1571.7833773830002,1571.7833773830002,1571.7833773830002,1571.7833773830002,,,,,,,,,,,,,,,,,,,,,,,,,,,,,,6,011,2022-09-27_09h06.38.872,test2,2022.2.4,60.16415126872891,
0,0,0,0,130,0,130,0,1571.7833773830002,1571.7833773830002,1571.7833773830002,1571.7833773830002,1571.7833773830002,1571.7833773830002,1571.7833773830002,-1,1,rojo,0,['N_A'],1573.1852823049999,1573.1852823049999,1573.1852823049999,1573.1852823049999,1575.2041151970002,1575.2041151970002,1575.2041151970002,1575.2041151970002,1575.2041151970002,1575.2041151970002,1575.2041151970002,1575.2041151970002,1577.2402544709998,1577.2402544709998,1577.2402544709998,1577.2402544709998,,,,,,,,,,,,,,,,,,,,,,,,,,,,,,6,011,2022-09-27_09h06.38.872,test2,2022.2.4,60.16415126872891,
0,0,0,0,131,0,131,0,1577.2402544709998,1577.2402544709998,1577.2402544709998,1577.2402544709998,1577.2402544709998,1577.2402544709998,1577.2402544709998,1,1,rojo,0,['N_B'],1578.69109105,1578.69109105,1578.69109105,1578.69109105,1580.710925496,1580.710925496,1580.710925496,1580.710925496,1580.710925496,1580.710925496,1580.710925496,1580.710925496,1582.745769707,1582.745769707,1582.745769707,1582.745769707,,,,,,,,,,,,,,,,,,,,,,,,,,,,,,6,011,2022-09-27_09h06.38.872,test2,2022.2.4,60.16415126872891,
0,0,0,0,132,0,132,0,1582.745769707,1582.745769707,1582.745769707,1582.745769707,1582.745769707,1582.745769707,1582.745769707,1,1,azul,1,['N_B'],1584.1307301299998,1584.1307301299998,1584.1307301299998,1584.1307301299998,1586.1670657660002,1586.1670657660002,1586.1670657660002,1586.1670657660002,1586.1670657660002,1586.1670657660002,1586.1670657660002,1586.1670657660002,1588.2025343300002,1588.2025343300002,1588.2025343300002,1588.2025343300002,,,,,,,,,,,,,,,,,,,,,,,,,,,,,,6,011,2022-09-27_09h06.38.872,test2,2022.2.4,60.16415126872891,
0,0,0,0,133,0,133,0,1588.2025343300002,1588.2025343300002,1588.2025343300002,1588.2025343300002,1588.2025343300002,1588.2025343300002,1588.2025343300002,-1,-1,rojo,1,['N_B'],1589.7038682840002,1589.7038682840002,1589.7038682840002,1589.7038682840002,1591.740031446,1591.740031446,1591.740031446,1591.740031446,1591.740031446,1591.740031446,1591.740031446,1591.740031446,1593.7742650650002,1593.7742650650002,1593.7742650650002,1593.7742650650002,,,,,,,,,,,,,,,,,,,,,,,,,,,,,,6,011,2022-09-27_09h06.38.872,test2,2022.2.4,60.16415126872891,
0,0,0,0,134,0,134,0,1593.7742650650002,1593.7742650650002,1593.7742650650002,1593.7742650650002,1593.7742650650002,1593.7742650650002,1593.7742650650002,1,1,azul,1,['N_B'],1595.409420518,1595.409420518,1595.409420518,1595.409420518,1597.429308589,1597.429308589,1597.429308589,1597.429308589,1597.429308589,1597.429308589,1597.429308589,1597.429308589,1599.464574902,1599.464574902,1599.464574902,1599.464574902,,,,,,,,,,,,,,,,,,,,,,,,,,,,,,6,011,2022-09-27_09h06.38.872,test2,2022.2.4,60.16415126872891,
0,0,0,0,135,0,135,0,1599.464574902,1599.464574902,1599.464574902,1599.464574902,1599.464574902,1599.464574902,1599.464574902,1,1,azul,1,['N_B'],1601.016000343,1601.016000343,1601.016000343,1601.016000343,1603.035503094,1603.035503094,1603.035503094,1603.035503094,1603.035503094,1603.035503094,1603.035503094,1603.035503094,1605.0704107780002,1605.0704107780002,1605.0704107780002,1605.0704107780002,,,,,,,,,,,,,,,,,,,,,,,,,,,,,,6,011,2022-09-27_09h06.38.872,test2,2022.2.4,60.16415126872891,
0,0,0,0,136,0,136,0,1605.0704107780002,1605.0704107780002,1605.0704107780002,1605.0704107780002,1605.0704107780002,1605.0704107780002,1605.0704107780002,1,1,azul,1,['N_B'],1606.939314913,1606.939314913,1606.939314913,1606.939314913,1608.958290698,1608.958290698,1608.958290698,1608.958290698,1608.958290698,1608.958290698,1608.958290698,1608.958290698,1610.9934710339999,1610.9934710339999,1610.9934710339999,1610.9934710339999,,,,,,,,,,,,,,,,,,,,,,,,,,,,,,6,011,2022-09-27_09h06.38.872,test2,2022.2.4,60.16415126872891,
0,0,0,0,137,0,137,0,1610.9934710339999,1610.9934710339999,1610.9934710339999,1610.9934710339999,1610.9934710339999,1610.9934710339999,1610.9934710339999,1,1,azul,1,['N_B'],1612.44541307,1612.44541307,1612.44541307,1612.44541307,1614.465020188,1614.465020188,1614.465020188,1614.465020188,1614.465020188,1614.465020188,1614.465020188,1614.465020188,1616.4997707410002,1616.4997707410002,1616.4997707410002,1616.4997707410002,,,,,,,,,,,,,,,,,,,,,,,,,,,,,,6,011,2022-09-27_09h06.38.872,test2,2022.2.4,60.16415126872891,
0,0,0,0,138,0,138,0,1616.4997707410002,1616.4997707410002,1616.4997707410002,1616.4997707410002,1616.4997707410002,1616.4997707410002,1616.4997707410002,1,1,azul,1,['N_B'],1617.9851337560003,1617.9851337560003,1617.9851337560003,1617.9851337560003,1620.0038495530002,1620.0038495530002,1620.0038495530002,1620.0038495530002,1620.0038495530002,1620.0038495530002,1620.0038495530002,1620.0038495530002,1622.0391611660002,1622.0391611660002,1622.0391611660002,1622.0391611660002,,,,,,,,,,,,,,,,,,,,,,,,,,,,,,6,011,2022-09-27_09h06.38.872,test2,2022.2.4,60.16415126872891,
0,0,0,0,139,0,139,0,1622.0391611660002,1622.0391611660002,1622.0391611660002,1622.0391611660002,1622.0391611660002,1622.0391611660002,1622.0391611660002,-1,1,rojo,1,['N_B'],1623.3912000740002,1623.3912000740002,1623.3912000740002,1623.3912000740002,1625.4265326590003,1625.4265326590003,1625.4265326590003,1625.4265326590003,1625.4265326590003,1625.4265326590003,1625.4265326590003,1625.4265326590003,1627.461611825,1627.461611825,1627.461611825,1627.461611825,,,,,,,,,,,,,,,,,,,,,,,,,,,,,,6,011,2022-09-27_09h06.38.872,test2,2022.2.4,60.16415126872891,
0,0,0,0,140,0,140,0,1627.461611825,1627.461611825,1627.461611825,1627.461611825,1627.461611825,1627.461611825,1627.461611825,1,-1,azul,0,['N_A'],1629.0132999050002,1629.0132999050002,1629.0132999050002,1629.0132999050002,1631.0491963210002,1631.0491963210002,1631.0491963210002,1631.0491963210002,1631.0491963210002,1631.0491963210002,1631.0491963210002,1631.0491963210002,1633.085180941,1633.085180941,1633.085180941,1633.085180941,,,,,,,,,,,,,,,,,,,,,,,,,,,,,,6,011,2022-09-27_09h06.38.872,test2,2022.2.4,60.16415126872891,
0,0,0,0,141,0,141,0,1633.085180941,1633.085180941,1633.085180941,1633.085180941,1633.085180941,1633.085180941,1633.085180941,1,-1,rojo,1,['N_A'],1635.587744252,1635.587744252,1635.587744252,1635.587744252,1637.6234894960003,1637.6234894960003,1637.6234894960003,1637.6234894960003,1637.6234894960003,1637.6234894960003,1637.6234894960003,1637.6234894960003,1639.658895343,1639.658895343,1639.658895343,1639.658895343,,,,,,,,,,,,,,,,,,,,,,,,,,,,,,6,011,2022-09-27_09h06.38.872,test2,2022.2.4,60.16415126872891,
0,0,0,0,142,0,142,0,1639.658895343,1639.658895343,1639.658895343,1639.658895343,1639.658895343,1639.658895343,1639.658895343,-1,1,azul,1,['N_A'],1641.2942182290003,1641.2942182290003,1641.2942182290003,1641.2942182290003,1643.329337732,1643.329337732,1643.329337732,1643.329337732,1643.329337732,1643.329337732,1643.329337732,1643.329337732,1645.3650491060002,1645.3650491060002,1645.3650491060002,1645.3650491060002,,,,,,,,,,,,,,,,,,,,,,,,,,,,,,6,011,2022-09-27_09h06.38.872,test2,2022.2.4,60.16415126872891,
0,0,0,0,143,0,143,0,1645.3650491060002,1645.3650491060002,1645.3650491060002,1645.3650491060002,1645.3650491060002,1645.3650491060002,1645.3650491060002,1,-1,rojo,1,['N_A'],1647.2505616600001,1647.2505616600001,1647.2505616600001,1647.2505616600001,1649.286402572,1649.286402572,1649.286402572,1649.286402572,1649.286402572,1649.286402572,1649.286402572,1649.286402572,1651.321661175,1651.321661175,1651.321661175,1651.321661175,,,,,,,,,,,,,,,,,,,,,,,,,,,,,,6,011,2022-09-27_09h06.38.872,test2,2022.2.4,60.16415126872891,
0,0,0,0,144,0,144,0,1651.321661175,1651.321661175,1651.321661175,1651.321661175,1651.321661175,1651.321661175,1651.321661175,1,-1,rojo,0,['N_B'],1652.7062987190002,1652.7062987190002,1652.7062987190002,1652.7062987190002,1654.742534341,1654.742534341,1654.742534341,1654.742534341,1654.742534341,1654.742534341,1654.742534341,1654.742534341,1656.7780245490003,1656.7780245490003,1656.7780245490003,1656.7780245490003,,,,,,,,,,,,,,,,,,,,,,,,,,,,,,6,011,2022-09-27_09h06.38.872,test2,2022.2.4,60.16415126872891,
0,0,0,0,145,0,145,0,1656.7780245490003,1656.7780245490003,1656.7780245490003,1656.7780245490003,1656.7780245490003,1656.7780245490003,1656.7780245490003,1,1,azul,1,['N_B'],1658.3624540210003,1658.3624540210003,1658.3624540210003,1658.3624540210003,1660.3805471220003,1660.3805471220003,1660.3805471220003,1660.3805471220003,1660.3805471220003,1660.3805471220003,1660.3805471220003,1660.3805471220003,1662.416941121,1662.416941121,1662.416941121,1662.416941121,,,,,,,,,,,,,,,,,,,,,,,,,,,,,,6,011,2022-09-27_09h06.38.872,test2,2022.2.4,60.16415126872891,
0,0,0,0,146,0,146,0,1662.416941121,1662.416941121,1662.416941121,1662.416941121,1662.416941121,1662.416941121,1662.416941121,-1,1,rojo,1,['N_B'],1663.9356576110004,1663.9356576110004,1663.9356576110004,1663.9356576110004,1665.9706840530002,1665.9706840530002,1665.9706840530002,1665.9706840530002,1665.9706840530002,1665.9706840530002,1665.9706840530002,1665.9706840530002,1668.0063483940003,1668.0063483940003,1668.0063483940003,1668.0063483940003,,,,,,,,,,,,,,,,,,,,,,,,,,,,,,6,011,2022-09-27_09h06.38.872,test2,2022.2.4,60.16415126872891,
0,0,0,0,147,0,147,0,1668.0063483940003,1668.0063483940003,1668.0063483940003,1668.0063483940003,1668.0063483940003,1668.0063483940003,1668.0063483940003,-1,-1,rojo,1,['N_B'],1670.859278339,1670.859278339,1670.859278339,1670.859278339,1672.8959106360003,1672.8959106360003,1672.8959106360003,1672.8959106360003,1672.8959106360003,1672.8959106360003,1672.8959106360003,1672.8959106360003,1674.9312210440003,1674.9312210440003,1674.9312210440003,1674.9312210440003,,,,,,,,,,,,,,,,,,,,,,,,,,,,,,6,011,2022-09-27_09h06.38.872,test2,2022.2.4,60.16415126872891,
0,0,0,0,148,0,148,0,1674.9312210440003,1674.9312210440003,1674.9312210440003,1674.9312210440003,1674.9312210440003,1674.9312210440003,1674.9312210440003,1,1,azul,1,['N_B'],1676.4162107800003,1676.4162107800003,1676.4162107800003,1676.4162107800003,1678.4346664680002,1678.4346664680002,1678.4346664680002,1678.4346664680002,1678.4346664680002,1678.4346664680002,1678.4346664680002,1678.4346664680002,1680.470510101,1680.470510101,1680.470510101,1680.470510101,,,,,,,,,,,,,,,,,,,,,,,,,,,,,,6,011,2022-09-27_09h06.38.872,test2,2022.2.4,60.16415126872891,
0,0,0,0,149,0,149,0,1680.470510101,1680.470510101,1680.470510101,1680.470510101,1680.470510101,1680.470510101,1680.470510101,1,1,azul,0,['N_A'],1681.8888978650002,1681.8888978650002,1681.8888978650002,1681.8888978650002,1683.924710316,1683.924710316,1683.924710316,1683.924710316,1683.924710316,1683.924710316,1683.924710316,1683.924710316,1685.96031589,1685.96031589,1685.96031589,1685.96031589,,,,,,,,,,,,,,,,,,,,,,,,,,,,,,6,011,2022-09-27_09h06.38.872,test2,2022.2.4,60.16415126872891,
0,0,0,0,150,0,150,0,1685.96031589,1685.96031589,1685.96031589,1685.96031589,1685.96031589,1685.96031589,1685.96031589,1,-1,rojo,0,['N_B'],1687.3781419750003,1687.3781419750003,1687.3781419750003,1687.3781419750003,1689.413327929,1689.413327929,1689.413327929,1689.413327929,1689.413327929,1689.413327929,1689.413327929,1689.413327929,1691.4489157850003,1691.4489157850003,1691.4489157850003,1691.4489157850003,,,,,,,,,,,,,,,,,,,,,,,,,,,,,,6,011,2022-09-27_09h06.38.872,test2,2022.2.4,60.16415126872891,
0,0,0,0,151,0,151,0,1691.4489157850003,1691.4489157850003,1691.4489157850003,1691.4489157850003,1691.4489157850003,1691.4489157850003,1691.4489157850003,1,1,azul,1,['N_B'],1692.9005234690003,1692.9005234690003,1692.9005234690003,1692.9005234690003,1694.9360716380002,1694.9360716380002,1694.9360716380002,1694.9360716380002,1694.9360716380002,1694.9360716380002,1694.9360716380002,1694.9360716380002,1696.971623454,1696.971623454,1696.971623454,1696.971623454,,,,,,,,,,,,,,,,,,,,,,,,,,,,,,6,011,2022-09-27_09h06.38.872,test2,2022.2.4,60.16415126872891,
0,0,0,0,152,0,152,0,1696.971623454,1696.971623454,1696.971623454,1696.971623454,1696.971623454,1696.971623454,1696.971623454,-1,-1,rojo,1,['N_B'],1698.389997544,1698.389997544,1698.389997544,1698.389997544,1700.426414182,1700.426414182,1700.426414182,1700.426414182,1700.426414182,1700.426414182,1700.426414182,1700.426414182,1702.4616625160002,1702.4616625160002,1702.4616625160002,1702.4616625160002,,,,,,,,,,,,,,,,,,,,,,,,,,,,,,6,011,2022-09-27_09h06.38.872,test2,2022.2.4,60.16415126872891,
0,0,0,0,153,0,153,0,1702.4616625160002,1702.4616625160002,1702.4616625160002,1702.4616625160002,1702.4616625160002,1702.4616625160002,1702.4616625160002,-1,1,rojo,1,['N_B'],1704.0468149910002,1704.0468149910002,1704.0468149910002,1704.0468149910002,1706.064439411,1706.064439411,1706.064439411,1706.064439411,1706.064439411,1706.064439411,1706.064439411,1706.064439411,1708.100974345,1708.100974345,1708.100974345,1708.100974345,,,,,,,,,,,,,,,,,,,,,,,,,,,,,,6,011,2022-09-27_09h06.38.872,test2,2022.2.4,60.16415126872891,
0,0,0,0,154,0,154,0,1708.100974345,1708.100974345,1708.100974345,1708.100974345,1708.100974345,1708.100974345,1708.100974345,-1,1,rojo,1,['N_B'],1709.55278606,1709.55278606,1709.55278606,1709.55278606,1711.5880595010003,1711.5880595010003,1711.5880595010003,1711.5880595010003,1711.5880595010003,1711.5880595010003,1711.5880595010003,1711.5880595010003,1713.6242974710003,1713.6242974710003,1713.6242974710003,1713.6242974710003,,,,,,,,,,,,,,,,,,,,,,,,,,,,,,6,011,2022-09-27_09h06.38.872,test2,2022.2.4,60.16415126872891,
0,0,0,0,155,0,155,0,1713.6242974710003,1713.6242974710003,1713.6242974710003,1713.6242974710003,1713.6242974710003,1713.6242974710003,1713.6242974710003,1,-1,azul,0,['N_A'],1716.6943810330004,1716.6943810330004,1716.6943810330004,1716.6943810330004,1718.7292616190002,1718.7292616190002,1718.7292616190002,1718.7292616190002,1718.7292616190002,1718.7292616190002,1718.7292616190002,1718.7292616190002,1720.7648201400002,1720.7648201400002,1720.7648201400002,1720.7648201400002,,,,,,,,,,,,,,,,,,,,,,,,,,,,,,6,011,2022-09-27_09h06.38.872,test2,2022.2.4,60.16415126872891,
0,0,0,0,156,0,156,0,1720.7648201400002,1720.7648201400002,1720.7648201400002,1720.7648201400002,1720.7648201400002,1720.7648201400002,1720.7648201400002,-1,1,azul,0,['N_B'],1722.149770892,1722.149770892,1722.149770892,1722.149770892,1724.1677600110002,1724.1677600110002,1724.1677600110002,1724.1677600110002,1724.1677600110002,1724.1677600110002,1724.1677600110002,1724.1677600110002,1726.204588731,1726.204588731,1726.204588731,1726.204588731,,,,,,,,,,,,,,,,,,,,,,,,,,,,,,6,011,2022-09-27_09h06.38.872,test2,2022.2.4,60.16415126872891,
0,0,0,0,157,0,157,0,1726.204588731,1726.204588731,1726.204588731,1726.204588731,1726.204588731,1726.204588731,1726.204588731,-1,1,rojo,0,['N_A'],1728.2068527440001,1728.2068527440001,1728.2068527440001,1728.2068527440001,1730.2418245140002,1730.2418245140002,1730.2418245140002,1730.2418245140002,1730.2418245140002,1730.2418245140002,1730.2418245140002,1730.2418245140002,1732.2780213800002,1732.2780213800002,1732.2780213800002,1732.2780213800002,,,,,,,,,,,,,,,,,,,,,,,,,,,,,,6,011,2022-09-27_09h06.38.872,test2,2022.2.4,60.16415126872891,
0,0,0,0,158,0,158,0,1732.2780213800002,1732.2780213800002,1732.2780213800002,1732.2780213800002,1732.2780213800002,1732.2780213800002,1732.2780213800002,1,-1,rojo,0,['N_B'],1733.779058134,1733.779058134,1733.779058134,1733.779058134,1735.8146944100004,1735.8146944100004,1735.8146944100004,1735.8146944100004,1735.8146944100004,1735.8146944100004,1735.8146944100004,1735.8146944100004,1737.850924295,1737.850924295,1737.850924295,1737.850924295,,,,,,,,,,,,,,,,,,,,,,,,,,,,,,6,011,2022-09-27_09h06.38.872,test2,2022.2.4,60.16415126872891,
0,0,0,0,159,0,159,0,1737.850924295,1737.850924295,1737.850924295,1737.850924295,1737.850924295,1737.850924295,1737.850924295,-1,-1,rojo,1,['N_B'],1739.2685668930003,1739.2685668930003,1739.2685668930003,1739.2685668930003,1741.304209759,1741.304209759,1741.304209759,1741.304209759,1741.304209759,1741.304209759,1741.304209759,1741.304209759,1743.340209084,1743.340209084,1743.340209084,1743.340209084,,,,,,,,,,,,,,,,,,,,,,,,,,,,,,6,011,2022-09-27_09h06.38.872,test2,2022.2.4,60.16415126872891,
0,0,0,0,160,0,160,0,1743.340209084,1743.340209084,1743.340209084,1743.340209084,1743.340209084,1743.340209084,1743.340209084,-1,-1,rojo,1,['N_B'],1744.707658933,1744.707658933,1744.707658933,1744.707658933,1746.743659832,1746.743659832,1746.743659832,1746.743659832,1746.743659832,1746.743659832,1746.743659832,1746.743659832,1748.7793181920001,1748.7793181920001,1748.7793181920001,1748.7793181920001,,,,,,,,,,,,,,,,,,,,,,,,,,,,,,6,011,2022-09-27_09h06.38.872,test2,2022.2.4,60.16415126872891,
0,0,0,0,161,0,161,0,1748.7793181920001,1748.7793181920001,1748.7793181920001,1748.7793181920001,1748.7793181920001,1748.7793181920001,1748.7793181920001,1,1,azul,0,['N_A'],1750.314307735,1750.314307735,1750.314307735,1750.314307735,1752.333106171,1752.333106171,1752.333106171,1752.333106171,1752.333106171,1752.333106171,1752.333106171,1752.333106171,1754.3691515570004,1754.3691515570004,1754.3691515570004,1754.3691515570004,,,,,,,,,,,,,,,,,,,,,,,,,,,,,,6,011,2022-09-27_09h06.38.872,test2,2022.2.4,60.16415126872891,
0,0,0,0,162,0,162,0,1754.3691515570004,1754.3691515570004,1754.3691515570004,1754.3691515570004,1754.3691515570004,1754.3691515570004,1754.3691515570004,1,1,rojo,1,['N_A'],1755.853230826,1755.853230826,1755.853230826,1755.853230826,1757.889271164,1757.889271164,1757.889271164,1757.889271164,1757.889271164,1757.889271164,1757.889271164,1757.889271164,1759.9247956620002,1759.9247956620002,1759.9247956620002,1759.9247956620002,,,,,,,,,,,,,,,,,,,,,,,,,,,,,,6,011,2022-09-27_09h06.38.872,test2,2022.2.4,60.16415126872891,
0,0,0,0,163,0,163,0,1759.9247956620002,1759.9247956620002,1759.9247956620002,1759.9247956620002,1759.9247956620002,1759.9247956620002,1759.9247956620002,1,-1,rojo,0,['N_B'],1764.1133930610004,1764.1133930610004,1764.1133930610004,1764.1133930610004,1766.1489162820003,1766.1489162820003,1766.1489162820003,1766.1489162820003,1766.1489162820003,1766.1489162820003,1766.1489162820003,1766.1489162820003,1768.1840518870004,1768.1840518870004,1768.1840518870004,1768.1840518870004,,,,,,,,,,,,,,,,,,,,,,,,,,,,,,6,011,2022-09-27_09h06.38.872,test2,2022.2.4,60.16415126872891,
0,0,0,0,164,0,164,0,1768.1840518870004,1768.1840518870004,1768.1840518870004,1768.1840518870004,1768.1840518870004,1768.1840518870004,1768.1840518870004,-1,-1,rojo,0,['N_A'],1769.5690939390001,1769.5690939390001,1769.5690939390001,1769.5690939390001,1771.604306485,1771.604306485,1771.604306485,1771.604306485,1771.604306485,1771.604306485,1771.604306485,1771.604306485,1773.6395245840004,1773.6395245840004,1773.6395245840004,1773.6395245840004,,,,,,,,,,,,,,,,,,,,,,,,,,,,,,6,011,2022-09-27_09h06.38.872,test2,2022.2.4,60.16415126872891,
0,0,0,0,165,0,165,0,1773.6395245840004,1773.6395245840004,1773.6395245840004,1773.6395245840004,1773.6395245840004,1773.6395245840004,1773.6395245840004,-1,-1,azul,0,['N_B'],1776.0759966330002,1776.0759966330002,1776.0759966330002,1776.0759966330002,1778.1117681330002,1778.1117681330002,1778.1117681330002,1778.1117681330002,1778.1117681330002,1778.1117681330002,1778.1117681330002,1778.1117681330002,1780.1466930010001,1780.1466930010001,1780.1466930010001,1780.1466930010001,,,,,,,,,,,,,,,,,,,,,,,,,,,,,,6,011,2022-09-27_09h06.38.872,test2,2022.2.4,60.16415126872891,
0,0,0,0,166,0,166,0,1780.1466930010001,1780.1466930010001,1780.1466930010001,1780.1466930010001,1780.1466930010001,1780.1466930010001,1780.1466930010001,1,1,azul,1,['N_B'],1781.5985847380002,1781.5985847380002,1781.5985847380002,1781.5985847380002,1783.634181846,1783.634181846,1783.634181846,1783.634181846,1783.634181846,1783.634181846,1783.634181846,1783.634181846,1785.669999795,1785.669999795,1785.669999795,1785.669999795,,,,,,,,,,,,,,,,,,,,,,,,,,,,,,6,011,2022-09-27_09h06.38.872,test2,2022.2.4,60.16415126872891,
0,0,0,0,167,0,167,0,1785.669999795,1785.669999795,1785.669999795,1785.669999795,1785.669999795,1785.669999795,1785.669999795,1,-1,azul,1,['N_B'],1787.021519894,1787.021519894,1787.021519894,1787.021519894,1789.057480815,1789.057480815,1789.057480815,1789.057480815,1789.057480815,1789.057480815,1789.057480815,1789.057480815,1791.0929416900003,1791.0929416900003,1791.0929416900003,1791.0929416900003,,,,,,,,,,,,,,,,,,,,,,,,,,,,,,6,011,2022-09-27_09h06.38.872,test2,2022.2.4,60.16415126872891,
0,0,0,0,168,0,168,0,1791.0929416900003,1791.0929416900003,1791.0929416900003,1791.0929416900003,1791.0929416900003,1791.0929416900003,1791.0929416900003,1,1,azul,1,['N_B'],1792.6272137720002,1792.6272137720002,1792.6272137720002,1792.6272137720002,1794.6464053220002,1794.6464053220002,1794.6464053220002,1794.6464053220002,1794.6464053220002,1794.6464053220002,1794.6464053220002,1794.6464053220002,1796.681731862,1796.681731862,1796.681731862,1796.681731862,,,,,,,,,,,,,,,,,,,,,,,,,,,,,,6,011,2022-09-27_09h06.38.872,test2,2022.2.4,60.16415126872891,
0,0,0,0,169,0,169,0,1796.681731862,1796.681731862,1796.681731862,1796.681731862,1796.681731862,1796.681731862,1796.681731862,1,1,azul,1,['N_B'],1798.267413509,1798.267413509,1798.267413509,1798.267413509,1800.303113934,1800.303113934,1800.303113934,1800.303113934,1800.303113934,1800.303113934,1800.303113934,1800.303113934,1802.338755149,1802.338755149,1802.338755149,1802.338755149,,,,,,,,,,,,,,,,,,,,,,,,,,,,,,6,011,2022-09-27_09h06.38.872,test2,2022.2.4,60.16415126872891,
0,0,0,0,170,0,170,0,1802.338755149,1802.338755149,1802.338755149,1802.338755149,1802.338755149,1802.338755149,1802.338755149,-1,-1,rojo,1,['N_B'],1803.8061600630003,1803.8061600630003,1803.8061600630003,1803.8061600630003,1805.842368057,1805.842368057,1805.842368057,1805.842368057,1805.842368057,1805.842368057,1805.842368057,1805.842368057,1807.8774631200004,1807.8774631200004,1807.8774631200004,1807.8774631200004,,,,,,,,,,,,,,,,,,,,,,,,,,,,,,6,011,2022-09-27_09h06.38.872,test2,2022.2.4,60.16415126872891,
0,0,0,0,171,0,171,0,1807.8774631200004,1807.8774631200004,1807.8774631200004,1807.8774631200004,1807.8774631200004,1807.8774631200004,1807.8774631200004,-1,-1,rojo,1,['N_B'],1809.2955490970003,1809.2955490970003,1809.2955490970003,1809.2955490970003,1811.3316438760003,1811.3316438760003,1811.3316438760003,1811.3316438760003,1811.3316438760003,1811.3316438760003,1811.3316438760003,1811.3316438760003,1813.367690655,1813.367690655,1813.367690655,1813.367690655,,,,,,,,,,,,,,,,,,,,,,,,,,,,,,6,011,2022-09-27_09h06.38.872,test2,2022.2.4,60.16415126872891,
0,0,0,0,172,0,172,0,1813.367690655,1813.367690655,1813.367690655,1813.367690655,1813.367690655,1813.367690655,1813.367690655,1,1,azul,1,['N_B'],1814.8023496160004,1814.8023496160004,1814.8023496160004,1814.8023496160004,1816.8373864560003,1816.8373864560003,1816.8373864560003,1816.8373864560003,1816.8373864560003,1816.8373864560003,1816.8373864560003,1816.8373864560003,1818.87300606,1818.87300606,1818.87300606,1818.87300606,,,,,,,,,,,,,,,,,,,,,,,,,,,,,,6,011,2022-09-27_09h06.38.872,test2,2022.2.4,60.16415126872891,
0,0,0,0,173,0,173,0,1818.87300606,1818.87300606,1818.87300606,1818.87300606,1818.87300606,1818.87300606,1818.87300606,-1,-1,rojo,0,['N_A'],1820.2916247590001,1820.2916247590001,1820.2916247590001,1820.2916247590001,1822.3276249,1822.3276249,1822.3276249,1822.3276249,1822.3276249,1822.3276249,1822.3276249,1822.3276249,1824.3622404460002,1824.3622404460002,1824.3622404460002,1824.3622404460002,,,,,,,,,,,,,,,,,,,,,,,,,,,,,,6,011,2022-09-27_09h06.38.872,test2,2022.2.4,60.16415126872891,
0,0,0,0,174,0,174,0,1824.3622404460002,1824.3622404460002,1824.3622404460002,1824.3622404460002,1824.3622404460002,1824.3622404460002,1824.3622404460002,1,-1,rojo,1,['N_A'],1825.963881451,1825.963881451,1825.963881451,1825.963881451,1828.0005644830003,1828.0005644830003,1828.0005644830003,1828.0005644830003,1828.0005644830003,1828.0005644830003,1828.0005644830003,1828.0005644830003,1830.035167002,1830.035167002,1830.035167002,1830.035167002,,,,,,,,,,,,,,,,,,,,,,,,,,,,,,6,011,2022-09-27_09h06.38.872,test2,2022.2.4,60.16415126872891,
0,0,0,0,175,0,175,0,1830.035167002,1830.035167002,1830.035167002,1830.035167002,1830.035167002,1830.035167002,1830.035167002,1,1,rojo,1,['N_A'],1831.7210013150002,1831.7210013150002,1831.7210013150002,1831.7210013150002,1833.756571755,1833.756571755,1833.756571755,1833.756571755,1833.756571755,1833.756571755,1833.756571755,1833.756571755,1835.7913788320002,1835.7913788320002,1835.7913788320002,1835.7913788320002,,,,,,,,,,,,,,,,,,,,,,,,,,,,,,6,011,2022-09-27_09h06.38.872,test2,2022.2.4,60.16415126872891,
0,0,0,0,176,0,176,0,1835.7913788320002,1835.7913788320002,1835.7913788320002,1835.7913788320002,1835.7913788320002,1835.7913788320002,1835.7913788320002,1,-1,rojo,1,['N_A'],1837.2265299680002,1837.2265299680002,1837.2265299680002,1837.2265299680002,1839.262532413,1839.262532413,1839.262532413,1839.262532413,1839.262532413,1839.262532413,1839.262532413,1839.262532413,1841.298461942,1841.298461942,1841.298461942,1841.298461942,,,,,,,,,,,,,,,,,,,,,,,,,,,,,,6,011,2022-09-27_09h06.38.872,test2,2022.2.4,60.16415126872891,
0,0,0,0,177,0,177,0,1841.298461942,1841.298461942,1841.298461942,1841.298461942,1841.298461942,1841.298461942,1841.298461942,-1,1,azul,1,['N_A'],1842.7157580020003,1842.7157580020003,1842.7157580020003,1842.7157580020003,1844.7515692690004,1844.7515692690004,1844.7515692690004,1844.7515692690004,1844.7515692690004,1844.7515692690004,1844.7515692690004,1844.7515692690004,1846.786972509,1846.786972509,1846.786972509,1846.786972509,,,,,,,,,,,,,,,,,,,,,,,,,,,,,,6,011,2022-09-27_09h06.38.872,test2,2022.2.4,60.16415126872891,
0,0,0,0,178,0,178,0,1846.786972509,1846.786972509,1846.786972509,1846.786972509,1846.786972509,1846.786972509,1846.786972509,1,-1,rojo,1,['N_A'],1848.4387706080001,1848.4387706080001,1848.4387706080001,1848.4387706080001,1850.4739656690003,1850.4739656690003,1850.4739656690003,1850.4739656690003,1850.4739656690003,1850.4739656690003,1850.4739656690003,1850.4739656690003,1852.509969367,1852.509969367,1852.509969367,1852.509969367,,,,,,,,,,,,,,,,,,,,,,,,,,,,,,6,011,2022-09-27_09h06.38.872,test2,2022.2.4,60.16415126872891,
0,0,0,0,179,0,179,0,1852.509969367,1852.509969367,1852.509969367,1852.509969367,1852.509969367,1852.509969367,1852.509969367,-1,-1,azul,0,['N_B'],1853.8950518370002,1853.8950518370002,1853.8950518370002,1853.8950518370002,1855.930754131,1855.930754131,1855.930754131,1855.930754131,1855.930754131,1855.930754131,1855.930754131,1855.930754131,1857.9663207070002,1857.9663207070002,1857.9663207070002,1857.9663207070002,,,,,,,,,,,,,,,,,,,,,,,,,,,,,,6,011,2022-09-27_09h06.38.872,test2,2022.2.4,60.16415126872891,
0,0,0,0,180,0,180,0,1857.9663207070002,1857.9663207070002,1857.9663207070002,1857.9663207070002,1857.9663207070002,1857.9663207070002,1857.9663207070002,-1,-1,rojo,1,['N_B'],1859.417830238,1859.417830238,1859.417830238,1859.417830238,1861.453990296,1861.453990296,1861.453990296,1861.453990296,1861.453990296,1861.453990296,1861.453990296,1861.453990296,1863.48876716,1863.48876716,1863.48876716,1863.48876716,,,,,,,,,,,,,,,,,,,,,,,,,,,,,,6,011,2022-09-27_09h06.38.872,test2,2022.2.4,60.16415126872891,
0,0,0,0,181,0,181,0,1863.48876716,1863.48876716,1863.48876716,1863.48876716,1863.48876716,1863.48876716,1863.48876716,1,-1,azul,1,['N_B'],1865.2240064030002,1865.2240064030002,1865.2240064030002,1865.2240064030002,1867.260324452,1867.260324452,1867.260324452,1867.260324452,1867.260324452,1867.260324452,1867.260324452,1867.260324452,1869.2957045830003,1869.2957045830003,1869.2957045830003,1869.2957045830003,,,,,,,,,,,,,,,,,,,,,,,,,,,,,,6,011,2022-09-27_09h06.38.872,test2,2022.2.4,60.16415126872891,
0,0,0,0,182,0,182,0,1869.2957045830003,1869.2957045830003,1869.2957045830003,1869.2957045830003,1869.2957045830003,1869.2957045830003,1869.2957045830003,1,1,azul,1,['N_B'],1870.880861145,1870.880861145,1870.880861145,1870.880861145,1872.916818795,1872.916818795,1872.916818795,1872.916818795,1872.916818795,1872.916818795,1872.916818795,1872.916818795,1874.951484276,1874.951484276,1874.951484276,1874.951484276,,,,,,,,,,,,,,,,,,,,,,,,,,,,,,6,011,2022-09-27_09h06.38.872,test2,2022.2.4,60.16415126872891,
0,0,0,0,183,0,183,0,1874.951484276,1874.951484276,1874.951484276,1874.951484276,1874.951484276,1874.951484276,1874.951484276,1,-1,azul,1,['N_B'],1876.3368544530003,1876.3368544530003,1876.3368544530003,1876.3368544530003,1878.372194139,1878.372194139,1878.372194139,1878.372194139,1878.372194139,1878.372194139,1878.372194139,1878.372194139,1880.4073149600003,1880.4073149600003,1880.4073149600003,1880.4073149600003,,,,,,,,,,,,,,,,,,,,,,,,,,,,,,6,011,2022-09-27_09h06.38.872,test2,2022.2.4,60.16415126872891,
0,0,0,0,184,0,184,0,1880.4073149600003,1880.4073149600003,1880.4073149600003,1880.4073149600003,1880.4073149600003,1880.4073149600003,1880.4073149600003,1,1,azul,1,['N_B'],1882.9603476800003,1882.9603476800003,1882.9603476800003,1882.9603476800003,1884.996260769,1884.996260769,1884.996260769,1884.996260769,1884.996260769,1884.996260769,1884.996260769,1884.996260769,1887.0320013660003,1887.0320013660003,1887.0320013660003,1887.0320013660003,,,,,,,,,,,,,,,,,,,,,,,,,,,,,,6,011,2022-09-27_09h06.38.872,test2,2022.2.4,60.16415126872891,
0,0,0,0,185,0,185,0,1887.0320013660003,1887.0320013660003,1887.0320013660003,1887.0320013660003,1887.0320013660003,1887.0320013660003,1887.0320013660003,1,-1,azul,1,['N_B'],1889.1175691170001,1889.1175691170001,1889.1175691170001,1889.1175691170001,1891.1531317050003,1891.1531317050003,1891.1531317050003,1891.1531317050003,1891.1531317050003,1891.1531317050003,1891.1531317050003,1891.1531317050003,1893.188547712,1893.188547712,1893.188547712,1893.188547712,,,,,,,,,,,,,,,,,,,,,,,,,,,,,,6,011,2022-09-27_09h06.38.872,test2,2022.2.4,60.16415126872891,
0,0,0,0,186,0,186,0,1893.188547712,1893.188547712,1893.188547712,1893.188547712,1893.188547712,1893.188547712,1893.188547712,1,1,azul,1,['N_B'],1894.839894704,1894.839894704,1894.839894704,1894.839894704,1896.8598380560002,1896.8598380560002,1896.8598380560002,1896.8598380560002,1896.8598380560002,1896.8598380560002,1896.8598380560002,1896.8598380560002,1898.895132792,1898.895132792,1898.895132792,1898.895132792,,,,,,,,,,,,,,,,,,,,,,,,,,,,,,6,011,2022-09-27_09h06.38.872,test2,2022.2.4,60.16415126872891,
0,0,0,0,187,0,187,0,1898.895132792,1898.895132792,1898.895132792,1898.895132792,1898.895132792,1898.895132792,1898.895132792,1,1,azul,0,['N_A'],1900.3794742730001,1900.3794742730001,1900.3794742730001,1900.3794742730001,1902.3979406520002,1902.3979406520002,1902.3979406520002,1902.3979406520002,1902.3979406520002,1902.3979406520002,1902.3979406520002,1902.3979406520002,1904.434868335,1904.434868335,1904.434868335,1904.434868335,,,,,,,,,,,,,,,,,,,,,,,,,,,,,,6,011,2022-09-27_09h06.38.872,test2,2022.2.4,60.16415126872891,
0,0,0,0,188,0,188,0,1904.434868335,1904.434868335,1904.434868335,1904.434868335,1904.434868335,1904.434868335,1904.434868335,1,1,rojo,0,['N_B'],1905.8361265860003,1905.8361265860003,1905.8361265860003,1905.8361265860003,1907.870895304,1907.870895304,1907.870895304,1907.870895304,1907.870895304,1907.870895304,1907.870895304,1907.870895304,1909.9067209620002,1909.9067209620002,1909.9067209620002,1909.9067209620002,,,,,,,,,,,,,,,,,,,,,,,,,,,,,,6,011,2022-09-27_09h06.38.872,test2,2022.2.4,60.16415126872891,
0,0,0,0,189,0,189,0,1909.9067209620002,1909.9067209620002,1909.9067209620002,1909.9067209620002,1909.9067209620002,1909.9067209620002,1909.9067209620002,1,-1,azul,1,['N_B'],1912.2093300790002,1912.2093300790002,1912.2093300790002,1912.2093300790002,1914.2458352530002,1914.2458352530002,1914.2458352530002,1914.2458352530002,1914.2458352530002,1914.2458352530002,1914.2458352530002,1914.2458352530002,1916.2803347570002,1916.2803347570002,1916.2803347570002,1916.2803347570002,,,,,,,,,,,,,,,,,,,,,,,,,,,,,,6,011,2022-09-27_09h06.38.872,test2,2022.2.4,60.16415126872891,
